Subject,Block,Trial,Horizon,Info,mu_L,mu_R,delta,Choice,RT,Accuracy,Outcome
48ne807kl3uo97vu0imier5e.,1,1,10,0,40,48,-8,1,4.874855000060052,0,57
48ne807kl3uo97vu0imier5e.,1,2,10,0,40,48,-8,0,5.008579999906942,1,43
48ne807kl3uo97vu0imier5e.,1,3,10,0,40,48,-8,1,4.617275000084192,0,32
48ne807kl3uo97vu0imier5e.,1,4,10,0,40,48,-8,0,4.653660000069067,1,51
48ne807kl3uo97vu0imier5e.,1,5,10,0,40,48,-8,1,8.640570000046864,0,32
48ne807kl3uo97vu0imier5e.,1,6,10,0,40,48,-8,1,5.758995000040159,0,42
48ne807kl3uo97vu0imier5e.,1,7,10,0,40,48,-8,0,4.352319999830797,1,56
48ne807kl3uo97vu0imier5e.,1,8,10,0,40,48,-8,0,5.465180000057444,1,38
48ne807kl3uo97vu0imier5e.,1,9,10,0,40,48,-8,1,7.211280000163242,0,50
48ne807kl3uo97vu0imier5e.,1,10,10,0,40,48,-8,1,1.5798200001008809,0,36
48ne807kl3uo97vu0imier5e.,2,1,10,0,40,32,8,1,5.484895000001416,1,29
48ne807kl3uo97vu0imier5e.,2,2,10,0,40,32,8,1,5.458705000113696,1,39
48ne807kl3uo97vu0imier5e.,2,3,10,0,40,32,8,0,4.117459999863058,0,25
48ne807kl3uo97vu0imier5e.,2,4,10,0,40,32,8,0,4.5958700000774115,0,28
48ne807kl3uo97vu0imier5e.,2,5,10,0,40,32,8,1,5.380929999984801,1,38
48ne807kl3uo97vu0imier5e.,2,6,10,0,40,32,8,0,8.968074999982491,0,35
48ne807kl3uo97vu0imier5e.,2,7,10,0,40,32,8,1,5.033779999939725,1,26
48ne807kl3uo97vu0imier5e.,2,8,10,0,40,32,8,0,6.124855000060052,0,23
48ne807kl3uo97vu0imier5e.,2,9,10,0,40,32,8,0,4.359560000011697,0,24
48ne807kl3uo97vu0imier5e.,2,10,10,0,40,32,8,1,4.208980000112206,1,24
48ne807kl3uo97vu0imier5e.,3,1,10,0,40,32,8,0,4.776659999974072,0,9
48ne807kl3uo97vu0imier5e.,3,2,10,0,40,32,8,1,3.8199450001120567,1,40
48ne807kl3uo97vu0imier5e.,3,3,10,0,40,32,8,0,1.7780999999959022,0,35
48ne807kl3uo97vu0imier5e.,3,4,10,0,40,32,8,1,4.645964999916032,1,35
48ne807kl3uo97vu0imier5e.,3,5,10,0,40,32,8,0,6.128984999842942,0,19
48ne807kl3uo97vu0imier5e.,3,6,10,0,40,32,8,0,5.0796350000891834,0,29
48ne807kl3uo97vu0imier5e.,3,7,10,0,40,32,8,1,4.086729999864474,1,44
48ne807kl3uo97vu0imier5e.,3,8,10,0,40,32,8,0,6.264719999860972,0,37
48ne807kl3uo97vu0imier5e.,3,9,10,0,40,32,8,1,5.503560000099242,1,18
48ne807kl3uo97vu0imier5e.,3,10,10,0,40,32,8,1,4.619524999987334,1,20
48ne807kl3uo97vu0imier5e.,4,1,5,-1,40,60,-20,0,4.38565000006929,1,75
48ne807kl3uo97vu0imier5e.,4,2,5,-1,40,60,-20,1,4.480515000177547,0,43
48ne807kl3uo97vu0imier5e.,4,3,5,-1,40,60,-20,0,4.665745000122115,1,59
48ne807kl3uo97vu0imier5e.,4,4,5,-1,40,60,-20,0,4.413775000022724,1,65
48ne807kl3uo97vu0imier5e.,4,5,5,-1,40,60,-20,1,3.2011299999430776,0,47
48ne807kl3uo97vu0imier5e.,5,1,5,1,40,44,-4,1,5.579535000026226,0,46
48ne807kl3uo97vu0imier5e.,5,2,5,1,40,44,-4,0,4.341359999962151,1,44
48ne807kl3uo97vu0imier5e.,5,3,5,1,40,44,-4,1,4.393189999973401,0,23
48ne807kl3uo97vu0imier5e.,5,4,5,1,40,44,-4,1,4.895465000066906,0,52
48ne807kl3uo97vu0imier5e.,5,5,5,1,40,44,-4,0,4.666109999874607,1,44
48ne807kl3uo97vu0imier5e.,6,1,10,0,60,48,12,0,4.593210000079125,0,52
48ne807kl3uo97vu0imier5e.,6,2,10,0,60,48,12,0,4.385474999900907,0,51
48ne807kl3uo97vu0imier5e.,6,3,10,0,60,48,12,1,4.342865000013262,1,65
48ne807kl3uo97vu0imier5e.,6,4,10,0,60,48,12,1,4.416234999895096,1,57
48ne807kl3uo97vu0imier5e.,6,5,10,0,60,48,12,0,6.319115000078455,0,42
48ne807kl3uo97vu0imier5e.,6,6,10,0,60,48,12,0,4.611899999901652,0,42
48ne807kl3uo97vu0imier5e.,6,7,10,0,60,48,12,1,3.9282599999569356,1,41
48ne807kl3uo97vu0imier5e.,6,8,10,0,60,48,12,1,4.319200000027195,1,52
48ne807kl3uo97vu0imier5e.,6,9,10,0,60,48,12,0,4.111764999805018,0,39
48ne807kl3uo97vu0imier5e.,6,10,10,0,60,48,12,1,5.40396499983035,1,70
48ne807kl3uo97vu0imier5e.,7,1,10,1,40,60,-20,1,4.27754499996081,0,30
48ne807kl3uo97vu0imier5e.,7,2,10,1,40,60,-20,1,4.335800000000745,0,48
48ne807kl3uo97vu0imier5e.,7,3,10,1,40,60,-20,1,4.247464999789372,0,41
48ne807kl3uo97vu0imier5e.,7,4,10,1,40,60,-20,0,4.176915000192821,1,79
48ne807kl3uo97vu0imier5e.,7,5,10,1,40,60,-20,0,5.662454999983311,1,69
48ne807kl3uo97vu0imier5e.,7,6,10,1,40,60,-20,1,4.433010000037029,0,47
48ne807kl3uo97vu0imier5e.,7,7,10,1,40,60,-20,0,4.615340000018477,1,61
48ne807kl3uo97vu0imier5e.,7,8,10,1,40,60,-20,1,5.183884999947622,0,44
48ne807kl3uo97vu0imier5e.,7,9,10,1,40,60,-20,1,4.184660000028089,0,44
48ne807kl3uo97vu0imier5e.,7,10,10,1,40,60,-20,0,4.150520000141114,1,76
48ne807kl3uo97vu0imier5e.,8,1,10,1,40,10,30,1,4.172345000086352,1,31
48ne807kl3uo97vu0imier5e.,8,2,10,1,40,10,30,0,4.159914999967441,0,13
48ne807kl3uo97vu0imier5e.,8,3,10,1,40,10,30,1,4.151030000066385,1,42
48ne807kl3uo97vu0imier5e.,8,4,10,1,40,10,30,1,4.305944999912754,1,33
48ne807kl3uo97vu0imier5e.,8,5,10,1,40,10,30,0,5.640559999970719,0,11
48ne807kl3uo97vu0imier5e.,8,6,10,1,40,10,30,0,5.06252000015229,0,8
48ne807kl3uo97vu0imier5e.,8,7,10,1,40,10,30,1,3.9623650000430644,1,41
48ne807kl3uo97vu0imier5e.,8,8,10,1,40,10,30,1,4.149555000010878,1,32
48ne807kl3uo97vu0imier5e.,8,9,10,1,40,10,30,1,4.282835000194609,1,46
48ne807kl3uo97vu0imier5e.,8,10,10,1,40,10,30,0,4.236615000059828,0,8
48ne807kl3uo97vu0imier5e.,9,1,5,0,40,36,4,1,4.063214999856427,1,40
48ne807kl3uo97vu0imier5e.,9,2,5,0,40,36,4,0,4.280379999894649,0,37
48ne807kl3uo97vu0imier5e.,9,3,5,0,40,36,4,1,4.264325000112876,1,37
48ne807kl3uo97vu0imier5e.,9,4,5,0,40,36,4,0,4.735825000097975,0,44
48ne807kl3uo97vu0imier5e.,9,5,5,0,40,36,4,1,4.783975000027567,1,44
48ne807kl3uo97vu0imier5e.,10,1,5,1,60,48,12,1,4.231209999881685,1,72
48ne807kl3uo97vu0imier5e.,10,2,5,1,60,48,12,1,4.440299999900162,1,56
48ne807kl3uo97vu0imier5e.,10,3,5,1,60,48,12,1,4.09629000001587,1,57
48ne807kl3uo97vu0imier5e.,10,4,5,1,60,48,12,0,5.539954999927431,0,53
48ne807kl3uo97vu0imier5e.,10,5,5,1,60,48,12,0,5.458955000154674,0,54
48ne807kl3uo97vu0imier5e.,11,1,10,-1,60,64,-4,1,4.894455000059679,0,58
48ne807kl3uo97vu0imier5e.,11,2,10,-1,60,64,-4,0,4.319175000069663,1,67
48ne807kl3uo97vu0imier5e.,11,3,10,-1,60,64,-4,0,4.540425000013784,1,62
48ne807kl3uo97vu0imier5e.,11,4,10,-1,60,64,-4,0,4.351135000120848,1,67
48ne807kl3uo97vu0imier5e.,11,5,10,-1,60,64,-4,1,4.208390000043437,0,64
48ne807kl3uo97vu0imier5e.,11,6,10,-1,60,64,-4,1,4.148904999950901,0,67
48ne807kl3uo97vu0imier5e.,11,7,10,-1,60,64,-4,0,4.026039999909699,1,73
48ne807kl3uo97vu0imier5e.,11,8,10,-1,60,64,-4,1,7.165840000147,0,50
48ne807kl3uo97vu0imier5e.,11,9,10,-1,60,64,-4,1,5.417600000044331,0,62
48ne807kl3uo97vu0imier5e.,11,10,10,-1,60,64,-4,0,3.8707600000780076,1,57
48ne807kl3uo97vu0imier5e.,12,1,10,-1,40,36,4,1,5.295039999997243,1,40
48ne807kl3uo97vu0imier5e.,12,2,10,-1,40,36,4,0,4.384275000076741,0,41
48ne807kl3uo97vu0imier5e.,12,3,10,-1,40,36,4,0,4.544714999850839,0,42
48ne807kl3uo97vu0imier5e.,12,4,10,-1,40,36,4,0,4.583809999981895,0,28
48ne807kl3uo97vu0imier5e.,12,5,10,-1,40,36,4,1,4.902264999924228,1,48
48ne807kl3uo97vu0imier5e.,12,6,10,-1,40,36,4,1,6.524144999915734,1,36
48ne807kl3uo97vu0imier5e.,12,7,10,-1,40,36,4,0,4.235410000197589,0,33
48ne807kl3uo97vu0imier5e.,12,8,10,-1,40,36,4,0,4.8405149998143315,0,43
48ne807kl3uo97vu0imier5e.,12,9,10,-1,40,36,4,1,3.8157900001388043,1,51
48ne807kl3uo97vu0imier5e.,12,10,10,-1,40,36,4,1,3.9996150000952184,1,33
48ne807kl3uo97vu0imier5e.,13,1,10,-1,60,72,-12,0,4.3396399999037385,1,76
48ne807kl3uo97vu0imier5e.,13,2,10,-1,60,72,-12,0,4.511464999988675,1,79
48ne807kl3uo97vu0imier5e.,13,3,10,-1,60,72,-12,1,4.527694999938831,0,52
48ne807kl3uo97vu0imier5e.,13,4,10,-1,60,72,-12,0,4.367739999899641,1,65
48ne807kl3uo97vu0imier5e.,13,5,10,-1,60,72,-12,1,5.365274999989197,0,63
48ne807kl3uo97vu0imier5e.,13,6,10,-1,60,72,-12,1,4.441469999961555,0,54
48ne807kl3uo97vu0imier5e.,13,7,10,-1,60,72,-12,0,4.200925000011921,1,70
48ne807kl3uo97vu0imier5e.,13,8,10,-1,60,72,-12,0,6.935264999978244,1,73
48ne807kl3uo97vu0imier5e.,13,9,10,-1,60,72,-12,1,2.7038699998520315,0,44
48ne807kl3uo97vu0imier5e.,13,10,10,-1,60,72,-12,1,4.47275000018999,0,61
48ne807kl3uo97vu0imier5e.,14,1,5,0,40,28,12,1,4.198194999946281,1,33
48ne807kl3uo97vu0imier5e.,14,2,5,0,40,28,12,0,4.6100749999750406,0,39
48ne807kl3uo97vu0imier5e.,14,3,5,0,40,28,12,1,4.001390000106767,1,55
48ne807kl3uo97vu0imier5e.,14,4,5,0,40,28,12,0,4.281320000067353,0,26
48ne807kl3uo97vu0imier5e.,14,5,5,0,40,28,12,1,5.391579999821261,1,57
48ne807kl3uo97vu0imier5e.,15,1,5,1,40,60,-20,1,4.26869500009343,0,41
48ne807kl3uo97vu0imier5e.,15,2,5,1,40,60,-20,1,4.468494999920949,0,37
48ne807kl3uo97vu0imier5e.,15,3,5,1,40,60,-20,1,4.200144999893382,0,47
48ne807kl3uo97vu0imier5e.,15,4,5,1,40,60,-20,0,4.2399399999994785,1,67
48ne807kl3uo97vu0imier5e.,15,5,5,1,40,60,-20,0,4.3756999999750406,1,61
48ne807kl3uo97vu0imier5e.,16,1,10,-1,60,56,4,0,4.653394999913871,0,54
48ne807kl3uo97vu0imier5e.,16,2,10,-1,60,56,4,0,4.208155000116676,0,57
48ne807kl3uo97vu0imier5e.,16,3,10,-1,60,56,4,1,4.135095000034198,1,61
48ne807kl3uo97vu0imier5e.,16,4,10,-1,60,56,4,0,4.4886549999937415,0,44
48ne807kl3uo97vu0imier5e.,16,5,10,-1,60,56,4,1,6.368544999975711,1,36
48ne807kl3uo97vu0imier5e.,16,6,10,-1,60,56,4,1,4.2725499998778105,1,48
48ne807kl3uo97vu0imier5e.,16,7,10,-1,60,56,4,0,4.061655000085011,0,64
48ne807kl3uo97vu0imier5e.,16,8,10,-1,60,56,4,1,3.98490499984473,1,55
48ne807kl3uo97vu0imier5e.,16,9,10,-1,60,56,4,1,4.272139999782667,1,48
48ne807kl3uo97vu0imier5e.,16,10,10,-1,60,56,4,0,4.039789999835193,0,49
48ne807kl3uo97vu0imier5e.,17,1,10,0,40,36,4,0,6.033220000099391,0,32
48ne807kl3uo97vu0imier5e.,17,2,10,0,40,36,4,1,1.833020000020042,1,52
48ne807kl3uo97vu0imier5e.,17,3,10,0,40,36,4,0,8.974404999986291,0,36
48ne807kl3uo97vu0imier5e.,17,4,10,0,40,36,4,1,3.312290000030771,1,37
48ne807kl3uo97vu0imier5e.,17,5,10,0,40,36,4,0,4.839254999998957,0,42
48ne807kl3uo97vu0imier5e.,17,6,10,0,40,36,4,1,1.263245000038296,1,33
48ne807kl3uo97vu0imier5e.,17,7,10,0,40,36,4,1,5.849165000021458,1,48
48ne807kl3uo97vu0imier5e.,17,8,10,0,40,36,4,0,1.2564250000286847,0,51
48ne807kl3uo97vu0imier5e.,17,9,10,0,40,36,4,1,3.966370000038296,1,39
48ne807kl3uo97vu0imier5e.,17,10,10,0,40,36,4,0,0.6397800000850111,0,34
48ne807kl3uo97vu0imier5e.,18,1,10,0,40,70,-30,0,0.7173200000543147,1,62
48ne807kl3uo97vu0imier5e.,18,2,10,0,40,70,-30,1,0.7918750001117587,0,29
48ne807kl3uo97vu0imier5e.,18,3,10,0,40,70,-30,1,0.8081050000619143,0,38
48ne807kl3uo97vu0imier5e.,18,4,10,0,40,70,-30,0,0.7763499999418855,1,74
48ne807kl3uo97vu0imier5e.,18,5,10,0,40,70,-30,1,1.9593650000169873,0,40
48ne807kl3uo97vu0imier5e.,18,6,10,0,40,70,-30,1,1.015940000070259,0,33
48ne807kl3uo97vu0imier5e.,18,7,10,0,40,70,-30,0,0.6959349999669939,1,76
48ne807kl3uo97vu0imier5e.,18,8,10,0,40,70,-30,1,2.344170000171289,0,49
48ne807kl3uo97vu0imier5e.,18,9,10,0,40,70,-30,0,0.7916749999858439,1,78
48ne807kl3uo97vu0imier5e.,18,10,10,0,40,70,-30,0,0.8799250000156462,1,68
48ne807kl3uo97vu0imier5e.,19,1,10,0,40,10,30,0,0.7266400000080466,0,8
48ne807kl3uo97vu0imier5e.,19,2,10,0,40,10,30,1,0.7763000000268221,1,19
48ne807kl3uo97vu0imier5e.,19,3,10,0,40,10,30,0,0.7116249999962747,0,31
48ne807kl3uo97vu0imier5e.,19,4,10,0,40,10,30,1,0.6960499999113381,1,39
48ne807kl3uo97vu0imier5e.,19,5,10,0,40,10,30,0,1.976024999981746,0,0
48ne807kl3uo97vu0imier5e.,19,6,10,0,40,10,30,0,1.7358000001404434,0,22
48ne807kl3uo97vu0imier5e.,19,7,10,0,40,10,30,0,0.9279300000052899,0,31
48ne807kl3uo97vu0imier5e.,19,8,10,0,40,10,30,1,0.6798299998044968,1,50
48ne807kl3uo97vu0imier5e.,19,9,10,0,40,10,30,1,0.6881999999750406,1,40
48ne807kl3uo97vu0imier5e.,19,10,10,0,40,10,30,1,0.6237449999898672,1,60
48ne807kl3uo97vu0imier5e.,20,1,5,1,60,40,20,1,0.7027950000483543,1,56
48ne807kl3uo97vu0imier5e.,20,2,5,1,60,40,20,1,0.7756600000429899,1,59
48ne807kl3uo97vu0imier5e.,20,3,5,1,60,40,20,1,0.6319250001106411,1,70
48ne807kl3uo97vu0imier5e.,20,4,5,1,60,40,20,0,0.9442050000652671,0,35
48ne807kl3uo97vu0imier5e.,20,5,5,1,60,40,20,0,1.2472749999724329,0,41
48ne807kl3uo97vu0imier5e.,21,1,5,0,40,36,4,1,0.7988799999002367,1,38
48ne807kl3uo97vu0imier5e.,21,2,5,0,40,36,4,1,0.5359950000420213,1,43
48ne807kl3uo97vu0imier5e.,21,3,5,0,40,36,4,0,0.8481699998956174,0,32
48ne807kl3uo97vu0imier5e.,21,4,5,0,40,36,4,0,0.8078499999828637,0,37
48ne807kl3uo97vu0imier5e.,21,5,5,0,40,36,4,1,1.5517649999819696,1,41
48ne807kl3uo97vu0imier5e.,22,1,5,-1,60,72,-12,0,0.8220399999991059,1,70
48ne807kl3uo97vu0imier5e.,22,2,5,-1,60,72,-12,0,0.7915999998804182,1,69
48ne807kl3uo97vu0imier5e.,22,3,5,-1,60,72,-12,0,0.6959800000768155,1,67
48ne807kl3uo97vu0imier5e.,22,4,5,-1,60,72,-12,1,0.823934999993071,0,55
48ne807kl3uo97vu0imier5e.,22,5,5,-1,60,72,-12,1,1.0719200000166893,0,54
48ne807kl3uo97vu0imier5e.,23,1,10,0,60,52,8,1,0.8869500001892447,1,60
48ne807kl3uo97vu0imier5e.,23,2,10,0,60,52,8,0,0.7356450001243502,0,50
48ne807kl3uo97vu0imier5e.,23,3,10,0,60,52,8,0,0.792284999974072,0,48
48ne807kl3uo97vu0imier5e.,23,4,10,0,60,52,8,1,0.703609999967739,1,72
48ne807kl3uo97vu0imier5e.,23,5,10,0,60,52,8,1,1.9282299999613315,1,53
48ne807kl3uo97vu0imier5e.,23,6,10,0,60,52,8,1,0.7839499998372048,1,48
48ne807kl3uo97vu0imier5e.,23,7,10,0,60,52,8,1,0.7756300000473857,1,67
48ne807kl3uo97vu0imier5e.,23,8,10,0,60,52,8,1,0.7678700000979006,1,52
48ne807kl3uo97vu0imier5e.,23,9,10,0,60,52,8,0,0.6880050001200289,0,50
48ne807kl3uo97vu0imier5e.,23,10,10,0,60,52,8,0,0.567890000063926,0,52
48ne807kl3uo97vu0imier5e.,24,1,5,0,60,80,-20,1,0.702894999878481,0,59
48ne807kl3uo97vu0imier5e.,24,2,5,0,60,80,-20,0,0.727930000051856,1,87
48ne807kl3uo97vu0imier5e.,24,3,5,0,60,80,-20,1,0.5918250000104308,0,68
48ne807kl3uo97vu0imier5e.,24,4,5,0,60,80,-20,0,0.6880749999545515,1,86
48ne807kl3uo97vu0imier5e.,24,5,5,0,60,80,-20,1,1.3038300001062453,0,54
48ne807kl3uo97vu0imier5e.,25,1,5,1,40,32,8,1,0.8865900000091642,1,48
48ne807kl3uo97vu0imier5e.,25,2,5,1,40,32,8,1,0.7116450001485646,1,38
48ne807kl3uo97vu0imier5e.,25,3,5,1,40,32,8,1,0.583684999961406,1,29
48ne807kl3uo97vu0imier5e.,25,4,5,1,40,32,8,0,0.7119350000284612,0,35
48ne807kl3uo97vu0imier5e.,25,5,5,1,40,32,8,0,0.7921449998393655,0,35
48ne807kl3uo97vu0imier5e.,26,1,10,0,40,36,4,1,0.6459399999585003,1,35
48ne807kl3uo97vu0imier5e.,26,2,10,0,40,36,4,0,0.8800500000361353,0,28
48ne807kl3uo97vu0imier5e.,26,3,10,0,40,36,4,0,0.8878750000149012,0,35
48ne807kl3uo97vu0imier5e.,26,4,10,0,40,36,4,1,0.695754999993369,1,41
48ne807kl3uo97vu0imier5e.,26,5,10,0,40,36,4,1,1.7841399998869747,1,32
48ne807kl3uo97vu0imier5e.,26,6,10,0,40,36,4,1,0.5197149999439716,1,42
48ne807kl3uo97vu0imier5e.,26,7,10,0,40,36,4,1,0.44026999990455806,1,36
48ne807kl3uo97vu0imier5e.,26,8,10,0,40,36,4,1,0.503664999967441,1,44
48ne807kl3uo97vu0imier5e.,26,9,10,0,40,36,4,0,0.45585999987088144,0,39
48ne807kl3uo97vu0imier5e.,26,10,10,0,40,36,4,0,0.5039900001138449,0,30
48ne807kl3uo97vu0imier5e.,27,1,10,-1,40,36,4,0,1.0696000000461936,0,34
48ne807kl3uo97vu0imier5e.,27,2,10,-1,40,36,4,1,0.7438949998468161,1,49
48ne807kl3uo97vu0imier5e.,27,3,10,-1,40,36,4,0,0.6078349999152124,0,30
48ne807kl3uo97vu0imier5e.,27,4,10,-1,40,36,4,0,0.8238699999637902,0,26
48ne807kl3uo97vu0imier5e.,27,5,10,-1,40,36,4,1,1.3361699997913092,1,36
48ne807kl3uo97vu0imier5e.,27,6,10,-1,40,36,4,1,0.8638500000815839,1,52
48ne807kl3uo97vu0imier5e.,27,7,10,-1,40,36,4,1,0.5208449999336153,1,49
48ne807kl3uo97vu0imier5e.,27,8,10,-1,40,36,4,0,0.5684700000565499,0,27
48ne807kl3uo97vu0imier5e.,27,9,10,-1,40,36,4,0,0.6708249999210238,0,32
48ne807kl3uo97vu0imier5e.,27,10,10,-1,40,36,4,1,0.5034449999220669,1,48
48ne807kl3uo97vu0imier5e.,28,1,5,1,40,28,12,1,0.5826749999541789,1,33
48ne807kl3uo97vu0imier5e.,28,2,5,1,40,28,12,1,0.5197499999776483,1,51
48ne807kl3uo97vu0imier5e.,28,3,5,1,40,28,12,0,0.6958949998952448,0,27
48ne807kl3uo97vu0imier5e.,28,4,5,1,40,28,12,1,0.5529650000389665,1,35
48ne807kl3uo97vu0imier5e.,28,5,5,1,40,28,12,0,1.246925000101328,0,18
48ne807kl3uo97vu0imier5e.,29,1,10,0,40,20,20,0,0.9352249999064952,0,22
48ne807kl3uo97vu0imier5e.,29,2,10,0,40,20,20,0,1.199765000026673,0,20
48ne807kl3uo97vu0imier5e.,29,3,10,0,40,20,20,1,0.7602099999785423,1,39
48ne807kl3uo97vu0imier5e.,29,4,10,0,40,20,20,1,0.7436999999918044,1,33
48ne807kl3uo97vu0imier5e.,29,5,10,0,40,20,20,1,1.7921100000385195,1,34
48ne807kl3uo97vu0imier5e.,29,6,10,0,40,20,20,1,0.5517400000244379,1,29
48ne807kl3uo97vu0imier5e.,29,7,10,0,40,20,20,0,0.9199249998200685,0,26
48ne807kl3uo97vu0imier5e.,29,8,10,0,40,20,20,1,0.9039600000251085,1,44
48ne807kl3uo97vu0imier5e.,29,9,10,0,40,20,20,1,0.5759349998552352,1,41
48ne807kl3uo97vu0imier5e.,29,10,10,0,40,20,20,1,0.4878650000318885,1,39
48ne807kl3uo97vu0imier5e.,30,1,5,0,40,10,30,1,0.7586900000460446,1,40
48ne807kl3uo97vu0imier5e.,30,2,5,0,40,10,30,1,0.4798949998803437,1,45
48ne807kl3uo97vu0imier5e.,30,3,5,0,40,10,30,0,0.7442000000737607,0,3
48ne807kl3uo97vu0imier5e.,30,4,5,0,40,10,30,0,0.8399400000926107,0,4
48ne807kl3uo97vu0imier5e.,30,5,5,0,40,10,30,1,0.5436549999285489,1,41
48ne807kl3uo97vu0imier5e.,31,1,10,0,40,70,-30,0,0.8912400000263005,1,76
48ne807kl3uo97vu0imier5e.,31,2,10,0,40,70,-30,0,0.9598799999803305,1,80
48ne807kl3uo97vu0imier5e.,31,3,10,0,40,70,-30,1,0.6639449999202043,0,48
48ne807kl3uo97vu0imier5e.,31,4,10,0,40,70,-30,1,0.7679550000466406,0,44
48ne807kl3uo97vu0imier5e.,31,5,10,0,40,70,-30,0,1.3759649998974055,1,60
48ne807kl3uo97vu0imier5e.,31,6,10,0,40,70,-30,0,0.6799599998630583,1,71
48ne807kl3uo97vu0imier5e.,31,7,10,0,40,70,-30,0,0.5199649999849498,1,68
48ne807kl3uo97vu0imier5e.,31,8,10,0,40,70,-30,0,0.4879250000230968,1,78
48ne807kl3uo97vu0imier5e.,31,9,10,0,40,70,-30,1,0.48796499986201525,0,32
48ne807kl3uo97vu0imier5e.,31,10,10,0,40,70,-30,0,0.7359599999617785,1,73
48ne807kl3uo97vu0imier5e.,32,1,5,0,40,60,-20,1,0.9602399999275804,0,26
48ne807kl3uo97vu0imier5e.,32,2,5,0,40,60,-20,0,0.7435500000137836,1,74
48ne807kl3uo97vu0imier5e.,32,3,5,0,40,60,-20,1,0.7199750000145286,0,32
48ne807kl3uo97vu0imier5e.,32,4,5,0,40,60,-20,0,1.1199199999682605,1,81
48ne807kl3uo97vu0imier5e.,32,5,5,0,40,60,-20,0,0.8321149998810142,1,70
48ne807kl3uo97vu0imier5e.,33,1,5,0,60,68,-8,0,0.8003249999601394,1,57
48ne807kl3uo97vu0imier5e.,33,2,5,0,60,68,-8,1,0.7119750001002103,0,49
48ne807kl3uo97vu0imier5e.,33,3,5,0,60,68,-8,0,0.767920000012964,1,70
48ne807kl3uo97vu0imier5e.,33,4,5,0,60,68,-8,1,0.9919700000900775,0,55
48ne807kl3uo97vu0imier5e.,33,5,5,0,60,68,-8,0,0.6479550001677126,1,55
48ne807kl3uo97vu0imier5e.,34,1,5,1,40,36,4,0,0.7426100000739098,0,27
48ne807kl3uo97vu0imier5e.,34,2,5,1,40,36,4,1,0.5912999999709427,1,42
48ne807kl3uo97vu0imier5e.,34,3,5,1,40,36,4,1,0.9279050000477582,1,35
48ne807kl3uo97vu0imier5e.,34,4,5,1,40,36,4,1,1.2800699998624623,1,35
48ne807kl3uo97vu0imier5e.,34,5,5,1,40,36,4,0,0.9839950001332909,0,37
48ne807kl3uo97vu0imier5e.,35,1,5,1,40,60,-20,1,0.6475749998353422,0,33
48ne807kl3uo97vu0imier5e.,35,2,5,1,40,60,-20,1,0.8726000001188368,0,46
48ne807kl3uo97vu0imier5e.,35,3,5,1,40,60,-20,0,0.7111899999435991,1,69
48ne807kl3uo97vu0imier5e.,35,4,5,1,40,60,-20,1,0.807825000025332,0,57
48ne807kl3uo97vu0imier5e.,35,5,5,1,40,60,-20,0,1.2000100000295788,1,64
48ne807kl3uo97vu0imier5e.,36,1,5,0,60,52,8,0,0.8469950000289828,0,51
48ne807kl3uo97vu0imier5e.,36,2,5,0,60,52,8,1,0.615334999980405,1,57
48ne807kl3uo97vu0imier5e.,36,3,5,0,60,52,8,1,0.7199550000950694,1,71
48ne807kl3uo97vu0imier5e.,36,4,5,0,60,52,8,0,0.67221499979496,0,44
48ne807kl3uo97vu0imier5e.,36,5,5,0,60,52,8,1,0.5276500000618398,1,52
48ne807kl3uo97vu0imier5e.,37,1,5,0,60,52,8,0,0.6377950001042336,0,41
48ne807kl3uo97vu0imier5e.,37,2,5,0,60,52,8,1,1.0639849998988211,1,71
48ne807kl3uo97vu0imier5e.,37,3,5,0,60,52,8,1,0.8639249999541789,1,50
48ne807kl3uo97vu0imier5e.,37,4,5,0,60,52,8,0,1.0079350001178682,0,52
48ne807kl3uo97vu0imier5e.,37,5,5,0,60,52,8,0,2.5289199999533594,0,63
48ne807kl3uo97vu0imier5e.,38,1,5,1,60,64,-4,0,0.6968050000723451,1,70
48ne807kl3uo97vu0imier5e.,38,2,5,1,60,64,-4,1,0.7517399999778718,0,57
48ne807kl3uo97vu0imier5e.,38,3,5,1,60,64,-4,1,0.6716900002211332,0,48
48ne807kl3uo97vu0imier5e.,38,4,5,1,60,64,-4,1,0.7521200000774115,0,68
48ne807kl3uo97vu0imier5e.,38,5,5,1,60,64,-4,1,0.9917800000403076,0,58
48ne807kl3uo97vu0imier5e.,39,1,5,0,60,56,4,1,0.6308999999891967,1,48
48ne807kl3uo97vu0imier5e.,39,2,5,0,60,56,4,0,0.6800649999640882,0,47
48ne807kl3uo97vu0imier5e.,39,3,5,0,60,56,4,1,0.6239700000733137,1,52
48ne807kl3uo97vu0imier5e.,39,4,5,0,60,56,4,0,0.5756549998186529,0,58
48ne807kl3uo97vu0imier5e.,39,5,5,0,60,56,4,1,0.519984999904409,1,64
48ne807kl3uo97vu0imier5e.,40,1,10,0,60,64,-4,0,0.7508499999530613,1,50
48ne807kl3uo97vu0imier5e.,40,2,10,0,60,64,-4,1,0.9515750000718981,0,64
48ne807kl3uo97vu0imier5e.,40,3,10,0,60,64,-4,0,0.5596900000236928,1,59
48ne807kl3uo97vu0imier5e.,40,4,10,0,60,64,-4,1,0.6400650001596659,0,57
48ne807kl3uo97vu0imier5e.,40,5,10,0,60,64,-4,0,1.1677850000560284,1,67
48ne807kl3uo97vu0imier5e.,40,6,10,0,60,64,-4,1,0.5840100001078099,0,60
48ne807kl3uo97vu0imier5e.,40,7,10,0,60,64,-4,0,0.5198949999175966,1,80
48ne807kl3uo97vu0imier5e.,40,8,10,0,60,64,-4,1,0.5039200000464916,0,57
48ne807kl3uo97vu0imier5e.,40,9,10,0,60,64,-4,0,0.49600000004284084,1,61
48ne807kl3uo97vu0imier5e.,40,10,10,0,60,64,-4,1,0.5038449999410659,0,59
48ne807kl3uo97vu0imier5e.,41,1,10,0,60,64,-4,1,1.7727299998514354,0,69
48ne807kl3uo97vu0imier5e.,41,2,10,0,60,64,-4,1,0.7037899999413639,0,60
48ne807kl3uo97vu0imier5e.,41,3,10,0,60,64,-4,0,0.6878800000995398,1,56
48ne807kl3uo97vu0imier5e.,41,4,10,0,60,64,-4,0,0.8239299999549985,1,65
48ne807kl3uo97vu0imier5e.,41,5,10,0,60,64,-4,1,1.3682800000533462,0,45
48ne807kl3uo97vu0imier5e.,41,6,10,0,60,64,-4,1,0.5196650000289083,0,61
48ne807kl3uo97vu0imier5e.,41,7,10,0,60,64,-4,1,0.5361999999731779,0,61
48ne807kl3uo97vu0imier5e.,41,8,10,0,60,64,-4,0,0.5437249999959022,1,67
48ne807kl3uo97vu0imier5e.,41,9,10,0,60,64,-4,0,0.5521799998823553,1,62
48ne807kl3uo97vu0imier5e.,41,10,10,0,60,64,-4,0,0.5916600001510233,1,53
48ne807kl3uo97vu0imier5e.,42,1,5,0,40,32,8,1,0.9427249999716878,1,21
48ne807kl3uo97vu0imier5e.,42,2,5,0,40,32,8,0,0.6078899998683482,0,28
48ne807kl3uo97vu0imier5e.,42,3,5,0,40,32,8,0,0.7280749999918044,0,41
48ne807kl3uo97vu0imier5e.,42,4,5,0,40,32,8,1,0.8639849999453872,1,35
48ne807kl3uo97vu0imier5e.,42,5,5,0,40,32,8,1,1.591834999853745,1,48
48ne807kl3uo97vu0imier5e.,43,1,10,0,40,70,-30,1,0.7822849999647588,0,31
48ne807kl3uo97vu0imier5e.,43,2,10,0,40,70,-30,0,0.7714449998456985,1,89
48ne807kl3uo97vu0imier5e.,43,3,10,0,40,70,-30,1,0.6047700000926852,0,46
48ne807kl3uo97vu0imier5e.,43,4,10,0,40,70,-30,0,0.6718999999575317,1,79
48ne807kl3uo97vu0imier5e.,43,5,10,0,40,70,-30,0,2.94374500005506,1,58
48ne807kl3uo97vu0imier5e.,43,6,10,0,40,70,-30,0,0.5677749998867512,1,63
48ne807kl3uo97vu0imier5e.,43,7,10,0,40,70,-30,1,0.47212000004947186,0,71
48ne807kl3uo97vu0imier5e.,43,8,10,0,40,70,-30,1,1.0557200000621378,0,34
48ne807kl3uo97vu0imier5e.,43,9,10,0,40,70,-30,0,0.5119449999183416,1,63
48ne807kl3uo97vu0imier5e.,43,10,10,0,40,70,-30,0,0.6241800000425428,1,63
48ne807kl3uo97vu0imier5e.,44,1,10,1,40,70,-30,0,1.238175000064075,1,61
48ne807kl3uo97vu0imier5e.,44,2,10,1,40,70,-30,1,0.4883200000040233,0,38
48ne807kl3uo97vu0imier5e.,44,3,10,1,40,70,-30,1,0.9438100000843406,0,35
48ne807kl3uo97vu0imier5e.,44,4,10,1,40,70,-30,1,1.1917399999219924,0,27
48ne807kl3uo97vu0imier5e.,44,5,10,1,40,70,-30,0,1.2241499999072403,1,64
48ne807kl3uo97vu0imier5e.,44,6,10,1,40,70,-30,0,0.8236750001087785,1,70
48ne807kl3uo97vu0imier5e.,44,7,10,1,40,70,-30,0,1.1119900001212955,1,83
48ne807kl3uo97vu0imier5e.,44,8,10,1,40,70,-30,0,0.5037700000684708,1,75
48ne807kl3uo97vu0imier5e.,44,9,10,1,40,70,-30,1,0.5999499999452382,0,49
48ne807kl3uo97vu0imier5e.,44,10,10,1,40,70,-30,0,0.768089999910444,1,70
48ne807kl3uo97vu0imier5e.,45,1,10,-1,60,64,-4,1,0.888329999987036,0,65
48ne807kl3uo97vu0imier5e.,45,2,10,-1,60,64,-4,0,0.9672300000675023,1,62
48ne807kl3uo97vu0imier5e.,45,3,10,-1,60,64,-4,0,0.8557649999856949,1,67
48ne807kl3uo97vu0imier5e.,45,4,10,-1,60,64,-4,0,0.6636449999641627,1,75
48ne807kl3uo97vu0imier5e.,45,5,10,-1,60,64,-4,1,0.6720700000878423,0,71
48ne807kl3uo97vu0imier5e.,45,6,10,-1,60,64,-4,1,2.000419999938458,0,52
48ne807kl3uo97vu0imier5e.,45,7,10,-1,60,64,-4,1,0.7753800000064075,0,63
48ne807kl3uo97vu0imier5e.,45,8,10,-1,60,64,-4,0,0.6158950000535697,1,69
48ne807kl3uo97vu0imier5e.,45,9,10,-1,60,64,-4,0,0.5999449999071658,1,60
48ne807kl3uo97vu0imier5e.,45,10,10,-1,60,64,-4,1,0.8961050000507385,0,51
48ne807kl3uo97vu0imier5e.,46,1,10,0,60,48,12,0,0.7426850001793355,0,42
48ne807kl3uo97vu0imier5e.,46,2,10,0,60,48,12,1,0.5995250002015382,1,42
48ne807kl3uo97vu0imier5e.,46,3,10,0,60,48,12,1,0.7522999998182058,1,55
48ne807kl3uo97vu0imier5e.,46,4,10,0,60,48,12,0,0.5755100001115352,0,53
48ne807kl3uo97vu0imier5e.,46,5,10,0,60,48,12,1,1.5441449999343604,1,63
48ne807kl3uo97vu0imier5e.,46,6,10,0,60,48,12,1,0.8237400001380593,1,61
48ne807kl3uo97vu0imier5e.,46,7,10,0,60,48,12,1,0.656029999954626,1,53
48ne807kl3uo97vu0imier5e.,46,8,10,0,60,48,12,0,0.5360449999570847,0,39
48ne807kl3uo97vu0imier5e.,46,9,10,0,60,48,12,1,0.8960100000258535,1,67
48ne807kl3uo97vu0imier5e.,46,10,10,0,60,48,12,1,0.46386499982327223,1,61
48ne807kl3uo97vu0imier5e.,47,1,5,0,40,36,4,0,0.8152749999426305,0,39
48ne807kl3uo97vu0imier5e.,47,2,5,0,40,36,4,1,0.5678700001444668,1,37
48ne807kl3uo97vu0imier5e.,47,3,5,0,40,36,4,1,0.85575499990955,1,34
48ne807kl3uo97vu0imier5e.,47,4,5,0,40,36,4,0,0.7121399999596179,0,41
48ne807kl3uo97vu0imier5e.,47,5,5,0,40,36,4,1,1.3281799999531358,1,35
48ne807kl3uo97vu0imier5e.,48,1,5,-1,60,64,-4,1,0.9977649999782443,0,56
48ne807kl3uo97vu0imier5e.,48,2,5,-1,60,64,-4,0,0.5680799998808652,1,62
48ne807kl3uo97vu0imier5e.,48,3,5,-1,60,64,-4,0,1.1676350000780076,1,68
48ne807kl3uo97vu0imier5e.,48,4,5,-1,60,64,-4,0,1.000264999922365,1,73
48ne807kl3uo97vu0imier5e.,48,5,5,-1,60,64,-4,0,0.7756850000005215,1,52
48ne807kl3uo97vu0imier5e.,49,1,5,0,40,20,20,1,0.8859349999111146,1,31
48ne807kl3uo97vu0imier5e.,49,2,5,0,40,20,20,0,0.5917249999474734,0,21
48ne807kl3uo97vu0imier5e.,49,3,5,0,40,20,20,0,0.8800299998838454,0,15
48ne807kl3uo97vu0imier5e.,49,4,5,0,40,20,20,1,0.640224999981001,1,33
48ne807kl3uo97vu0imier5e.,49,5,5,0,40,20,20,1,1.399669999955222,1,36
48ne807kl3uo97vu0imier5e.,50,1,10,0,40,70,-30,0,0.790125000057742,1,61
48ne807kl3uo97vu0imier5e.,50,2,10,0,40,70,-30,1,0.5997800000477582,0,45
48ne807kl3uo97vu0imier5e.,50,3,10,0,40,70,-30,0,0.839949999935925,1,63
48ne807kl3uo97vu0imier5e.,50,4,10,0,40,70,-30,1,0.648079999955371,0,51
48ne807kl3uo97vu0imier5e.,50,5,10,0,40,70,-30,0,1.2325950001832098,1,68
48ne807kl3uo97vu0imier5e.,50,6,10,0,40,70,-30,0,1.1513450001366436,1,68
48ne807kl3uo97vu0imier5e.,50,7,10,0,40,70,-30,0,0.4479600000195205,1,85
48ne807kl3uo97vu0imier5e.,50,8,10,0,40,70,-30,0,0.43178500002250075,1,63
48ne807kl3uo97vu0imier5e.,50,9,10,0,40,70,-30,0,0.5838600001297891,1,60
48ne807kl3uo97vu0imier5e.,50,10,10,0,40,70,-30,1,0.48039499996230006,0,36
48ne807kl3uo97vu0imier5e.,51,1,5,0,60,30,30,1,0.7822900000028312,1,59
48ne807kl3uo97vu0imier5e.,51,2,5,0,60,30,30,0,0.5439100000075996,0,43
48ne807kl3uo97vu0imier5e.,51,3,5,0,60,30,30,1,0.7363100000657141,1,56
48ne807kl3uo97vu0imier5e.,51,4,5,0,60,30,30,0,0.6635649998206645,0,31
48ne807kl3uo97vu0imier5e.,51,5,5,0,60,30,30,1,0.5365800000727177,1,77
48ne807kl3uo97vu0imier5e.,52,1,5,0,60,30,30,0,0.8084149998612702,0,27
48ne807kl3uo97vu0imier5e.,52,2,5,0,60,30,30,0,1.055570000084117,0,19
48ne807kl3uo97vu0imier5e.,52,3,5,0,60,30,30,1,0.5597600000910461,1,50
48ne807kl3uo97vu0imier5e.,52,4,5,0,60,30,30,1,0.7282249999698251,1,65
48ne807kl3uo97vu0imier5e.,52,5,5,0,60,30,30,0,0.5435999999754131,0,16
48ne807kl3uo97vu0imier5e.,53,1,5,-1,60,48,12,0,0.6467399999964982,0,41
48ne807kl3uo97vu0imier5e.,53,2,5,-1,60,48,12,0,1.1917600000742823,0,51
48ne807kl3uo97vu0imier5e.,53,3,5,-1,60,48,12,1,0.7518350000027567,1,62
48ne807kl3uo97vu0imier5e.,53,4,5,-1,60,48,12,0,0.9839600000996143,0,49
48ne807kl3uo97vu0imier5e.,53,5,5,-1,60,48,12,0,1.0318549999501556,0,40
48ne807kl3uo97vu0imier5e.,54,1,5,0,40,48,-8,1,1.9027550001628697,0,53
48ne807kl3uo97vu0imier5e.,54,2,5,0,40,48,-8,1,0.6954850000329316,0,41
48ne807kl3uo97vu0imier5e.,54,3,5,0,40,48,-8,0,0.7599400000181049,1,46
48ne807kl3uo97vu0imier5e.,54,4,5,0,40,48,-8,0,0.6479650000110269,1,41
48ne807kl3uo97vu0imier5e.,54,5,5,0,40,48,-8,1,1.9046749998815358,0,34
48ne807kl3uo97vu0imier5e.,55,1,10,0,40,70,-30,0,0.7422199998982251,1,79
48ne807kl3uo97vu0imier5e.,55,2,10,0,40,70,-30,1,0.5431049999315292,0,54
48ne807kl3uo97vu0imier5e.,55,3,10,0,40,70,-30,1,0.7119650000240654,0,42
48ne807kl3uo97vu0imier5e.,55,4,10,0,40,70,-30,0,0.5841550000477582,1,55
48ne807kl3uo97vu0imier5e.,55,5,10,0,40,70,-30,1,1.3915299999061972,0,32
48ne807kl3uo97vu0imier5e.,55,6,10,0,40,70,-30,0,0.9920049998909235,1,79
48ne807kl3uo97vu0imier5e.,55,7,10,0,40,70,-30,0,0.5599549999460578,1,65
48ne807kl3uo97vu0imier5e.,55,8,10,0,40,70,-30,0,0.5119849999900907,1,77
48ne807kl3uo97vu0imier5e.,55,9,10,0,40,70,-30,0,0.5758599999826401,1,64
48ne807kl3uo97vu0imier5e.,55,10,10,0,40,70,-30,0,0.4159300001338124,1,76
48ne807kl3uo97vu0imier5e.,56,1,5,0,60,68,-8,0,0.9108599999453872,1,77
48ne807kl3uo97vu0imier5e.,56,2,5,0,60,68,-8,1,0.5752449999563396,0,63
48ne807kl3uo97vu0imier5e.,56,3,5,0,60,68,-8,0,0.8798199999146163,1,57
48ne807kl3uo97vu0imier5e.,56,4,5,0,60,68,-8,1,0.6559500000439584,0,52
48ne807kl3uo97vu0imier5e.,56,5,5,0,60,68,-8,0,0.7279850000049919,1,65
48ne807kl3uo97vu0imier5e.,57,1,5,0,60,30,30,0,0.7663149998988956,0,32
48ne807kl3uo97vu0imier5e.,57,2,5,0,60,30,30,1,0.9599049999378622,1,61
48ne807kl3uo97vu0imier5e.,57,3,5,0,60,30,30,0,0.7365600001066923,0,13
48ne807kl3uo97vu0imier5e.,57,4,5,0,60,30,30,1,1.1030299998819828,1,48
48ne807kl3uo97vu0imier5e.,57,5,5,0,60,30,30,1,1.0319050000980496,1,55
48ne807kl3uo97vu0imier5e.,58,1,10,-1,60,64,-4,0,0.7350850000511855,1,71
48ne807kl3uo97vu0imier5e.,58,2,10,-1,60,64,-4,0,0.9354799999855459,1,76
48ne807kl3uo97vu0imier5e.,58,3,10,-1,60,64,-4,1,0.6316799998749048,0,44
48ne807kl3uo97vu0imier5e.,58,4,10,-1,60,64,-4,0,0.7920500000473112,1,58
48ne807kl3uo97vu0imier5e.,58,5,10,-1,60,64,-4,0,0.9918599999509752,1,62
48ne807kl3uo97vu0imier5e.,58,6,10,-1,60,64,-4,0,0.4402550000231713,1,70
48ne807kl3uo97vu0imier5e.,58,7,10,-1,60,64,-4,0,0.34361499990336597,1,63
48ne807kl3uo97vu0imier5e.,58,8,10,-1,60,64,-4,0,0.3278500000014901,1,67
48ne807kl3uo97vu0imier5e.,58,9,10,-1,60,64,-4,0,0.38401499995961785,1,73
48ne807kl3uo97vu0imier5e.,58,10,10,-1,60,64,-4,0,0.35196500015445054,1,51
48ne807kl3uo97vu0imier5e.,59,1,5,1,60,80,-20,1,0.8933599998708814,0,52
48ne807kl3uo97vu0imier5e.,59,2,5,1,60,80,-20,1,0.8796900000888854,0,70
48ne807kl3uo97vu0imier5e.,59,3,5,1,60,80,-20,1,0.6560649999883026,0,63
48ne807kl3uo97vu0imier5e.,59,4,5,1,60,80,-20,0,0.952335000038147,1,79
48ne807kl3uo97vu0imier5e.,59,5,5,1,60,80,-20,1,1.0154600001405925,0,56
48ne807kl3uo97vu0imier5e.,60,1,5,-1,60,48,12,0,0.7251549998763949,0,43
48ne807kl3uo97vu0imier5e.,60,2,5,-1,60,48,12,0,0.7118450000416487,0,38
48ne807kl3uo97vu0imier5e.,60,3,5,-1,60,48,12,1,0.7039600000716746,1,49
48ne807kl3uo97vu0imier5e.,60,4,5,-1,60,48,12,0,0.8878949999343604,0,30
48ne807kl3uo97vu0imier5e.,60,5,5,-1,60,48,12,0,0.7439749999903142,0,50
48ne807kl3uo97vu0imier5e.,61,1,5,-1,40,36,4,0,0.7241349997930229,0,49
48ne807kl3uo97vu0imier5e.,61,2,5,-1,40,36,4,0,0.5121049999725074,0,36
48ne807kl3uo97vu0imier5e.,61,3,5,-1,40,36,4,0,0.7519950000569224,0,37
48ne807kl3uo97vu0imier5e.,61,4,5,-1,40,36,4,1,0.7201049998402596,1,33
48ne807kl3uo97vu0imier5e.,61,5,5,-1,40,36,4,0,0.6801749998703599,0,41
48ne807kl3uo97vu0imier5e.,62,1,10,-1,60,68,-8,0,0.7663149998988956,1,60
48ne807kl3uo97vu0imier5e.,62,2,10,-1,60,68,-8,1,0.6722999999765307,0,50
48ne807kl3uo97vu0imier5e.,62,3,10,-1,60,68,-8,0,0.6957249999977648,1,59
48ne807kl3uo97vu0imier5e.,62,4,10,-1,60,68,-8,0,1.6802499999757856,1,64
48ne807kl3uo97vu0imier5e.,62,5,10,-1,60,68,-8,1,1.2070799998473376,0,45
48ne807kl3uo97vu0imier5e.,62,6,10,-1,60,68,-8,0,1.2956650000996888,1,72
48ne807kl3uo97vu0imier5e.,62,7,10,-1,60,68,-8,0,0.5607650000602007,1,72
48ne807kl3uo97vu0imier5e.,62,8,10,-1,60,68,-8,0,0.47989000007510185,1,77
48ne807kl3uo97vu0imier5e.,62,9,10,-1,60,68,-8,0,0.4479600000195205,1,81
48ne807kl3uo97vu0imier5e.,62,10,10,-1,60,68,-8,0,0.5208050000946969,1,53
48ne807kl3uo97vu0imier5e.,63,1,10,1,40,28,12,0,0.6447950000874698,0,35
48ne807kl3uo97vu0imier5e.,63,2,10,1,40,28,12,1,0.616074999794364,1,42
48ne807kl3uo97vu0imier5e.,63,3,10,1,40,28,12,1,1.1675700000487268,1,45
48ne807kl3uo97vu0imier5e.,63,4,10,1,40,28,12,1,0.7039699999149889,1,43
48ne807kl3uo97vu0imier5e.,63,5,10,1,40,28,12,0,1.1920099998824298,0,36
48ne807kl3uo97vu0imier5e.,63,6,10,1,40,28,12,1,1.4718949999660254,1,30
48ne807kl3uo97vu0imier5e.,63,7,10,1,40,28,12,0,1.0238600000739098,0,29
48ne807kl3uo97vu0imier5e.,63,8,10,1,40,28,12,1,0.8238899998832494,1,28
48ne807kl3uo97vu0imier5e.,63,9,10,1,40,28,12,1,0.7120149999391288,1,34
48ne807kl3uo97vu0imier5e.,63,10,10,1,40,28,12,0,0.6244200000073761,0,26
48ne807kl3uo97vu0imier5e.,64,1,10,1,60,80,-20,0,0.8056099999230355,1,88
48ne807kl3uo97vu0imier5e.,64,2,10,1,60,80,-20,1,0.8718950001057237,0,65
48ne807kl3uo97vu0imier5e.,64,3,10,1,60,80,-20,1,0.7998849998693913,0,52
48ne807kl3uo97vu0imier5e.,64,4,10,1,60,80,-20,1,0.6957000000402331,0,77
48ne807kl3uo97vu0imier5e.,64,5,10,1,60,80,-20,0,1.0561049999669194,1,92
48ne807kl3uo97vu0imier5e.,64,6,10,1,60,80,-20,0,0.727930000051856,1,72
48ne807kl3uo97vu0imier5e.,64,7,10,1,60,80,-20,0,0.49578500003553927,1,70
48ne807kl3uo97vu0imier5e.,64,8,10,1,60,80,-20,0,0.3363149999640882,1,91
48ne807kl3uo97vu0imier5e.,64,9,10,1,60,80,-20,0,0.5515900000464171,1,72
48ne807kl3uo97vu0imier5e.,64,10,10,1,60,80,-20,1,1.0559799999464303,0,65
48ne807kl3uo97vu0imier5e.,65,1,10,1,40,36,4,1,0.73221500008367,1,39
48ne807kl3uo97vu0imier5e.,65,2,10,1,40,36,4,1,0.7915900000371039,1,46
48ne807kl3uo97vu0imier5e.,65,3,10,1,40,36,4,0,0.7598900001030415,0,43
48ne807kl3uo97vu0imier5e.,65,4,10,1,40,36,4,1,0.7359449998475611,1,25
48ne807kl3uo97vu0imier5e.,65,5,10,1,40,36,4,0,1.9601000000257045,0,22
48ne807kl3uo97vu0imier5e.,65,6,10,1,40,36,4,1,1.0000200001522899,1,52
48ne807kl3uo97vu0imier5e.,65,7,10,1,40,36,4,1,0.6397449998185039,1,26
48ne807kl3uo97vu0imier5e.,65,8,10,1,40,36,4,1,0.34383499994874,1,34
48ne807kl3uo97vu0imier5e.,65,9,10,1,40,36,4,1,0.5680900001898408,1,27
48ne807kl3uo97vu0imier5e.,65,10,10,1,40,36,4,0,0.5198450000025332,0,44
48ne807kl3uo97vu0imier5e.,66,1,10,0,40,36,4,1,0.9850350001361221,1,56
48ne807kl3uo97vu0imier5e.,66,2,10,0,40,36,4,0,0.7761849998496473,0,40
48ne807kl3uo97vu0imier5e.,66,3,10,0,40,36,4,1,0.7675649998709559,1,35
48ne807kl3uo97vu0imier5e.,66,4,10,0,40,36,4,0,1.1373850000090897,0,37
48ne807kl3uo97vu0imier5e.,66,5,10,0,40,36,4,1,2.9987900000996888,1,31
48ne807kl3uo97vu0imier5e.,66,6,10,0,40,36,4,1,0.7205900000408292,1,39
48ne807kl3uo97vu0imier5e.,66,7,10,0,40,36,4,0,0.7430650000460446,0,44
48ne807kl3uo97vu0imier5e.,66,8,10,0,40,36,4,0,0.5197350000962615,0,36
48ne807kl3uo97vu0imier5e.,66,9,10,0,40,36,4,1,0.7683600001037121,1,35
48ne807kl3uo97vu0imier5e.,66,10,10,0,40,36,4,0,0.48748500016517937,0,29
48ne807kl3uo97vu0imier5e.,67,1,5,0,40,70,-30,0,0.7995349999982864,1,62
48ne807kl3uo97vu0imier5e.,67,2,5,0,40,70,-30,1,0.5033299999777228,0,41
48ne807kl3uo97vu0imier5e.,67,3,5,0,40,70,-30,0,0.5439300001598895,1,70
48ne807kl3uo97vu0imier5e.,67,4,5,0,40,70,-30,1,0.9604249999392778,0,34
48ne807kl3uo97vu0imier5e.,67,5,5,0,40,70,-30,0,0.6312499998603016,1,56
48ne807kl3uo97vu0imier5e.,68,1,5,-1,40,52,-12,1,0.7987899999134243,0,36
48ne807kl3uo97vu0imier5e.,68,2,5,-1,40,52,-12,0,0.5040450000669807,1,59
48ne807kl3uo97vu0imier5e.,68,3,5,-1,40,52,-12,0,0.991924999980256,1,53
48ne807kl3uo97vu0imier5e.,68,4,5,-1,40,52,-12,0,1.0159650000277907,1,40
48ne807kl3uo97vu0imier5e.,68,5,5,-1,40,52,-12,0,0.8719649999402463,1,44
48ne807kl3uo97vu0imier5e.,69,1,10,1,40,20,20,1,0.8468550001271069,1,45
48ne807kl3uo97vu0imier5e.,69,2,10,1,40,20,20,1,1.6314699999056756,1,36
48ne807kl3uo97vu0imier5e.,69,3,10,1,40,20,20,0,0.6959100000094622,0,40
48ne807kl3uo97vu0imier5e.,69,4,10,1,40,20,20,1,0.9679699998814613,1,31
48ne807kl3uo97vu0imier5e.,69,5,10,1,40,20,20,0,1.192320000147447,0,22
48ne807kl3uo97vu0imier5e.,69,6,10,1,40,20,20,1,0.6953900000080466,1,40
48ne807kl3uo97vu0imier5e.,69,7,10,1,40,20,20,1,0.47999999998137355,1,44
48ne807kl3uo97vu0imier5e.,69,8,10,1,40,20,20,1,0.35188500001095235,1,41
48ne807kl3uo97vu0imier5e.,69,9,10,1,40,20,20,1,0.30404999991878867,1,42
48ne807kl3uo97vu0imier5e.,69,10,10,1,40,20,20,0,0.6081250000279397,0,15
48ne807kl3uo97vu0imier5e.,70,1,10,-1,60,72,-12,1,0.8921299998182803,0,62
48ne807kl3uo97vu0imier5e.,70,2,10,-1,60,72,-12,0,0.5836799999233335,1,67
48ne807kl3uo97vu0imier5e.,70,3,10,-1,60,72,-12,0,0.7290600000414997,1,81
48ne807kl3uo97vu0imier5e.,70,4,10,-1,60,72,-12,0,0.719685000134632,1,72
48ne807kl3uo97vu0imier5e.,70,5,10,-1,60,72,-12,0,0.9513399999123067,1,74
48ne807kl3uo97vu0imier5e.,70,6,10,-1,60,72,-12,0,0.45580000011250377,1,62
48ne807kl3uo97vu0imier5e.,70,7,10,-1,60,72,-12,0,0.3519100002013147,1,74
48ne807kl3uo97vu0imier5e.,70,8,10,-1,60,72,-12,0,0.3918800000101328,1,77
48ne807kl3uo97vu0imier5e.,70,9,10,-1,60,72,-12,0,0.4400200000964105,1,64
48ne807kl3uo97vu0imier5e.,70,10,10,-1,60,72,-12,0,0.5277599999681115,1,66
48ne807kl3uo97vu0imier5e.,71,1,5,-1,60,90,-30,0,0.8631800001021475,1,95
48ne807kl3uo97vu0imier5e.,71,2,5,-1,60,90,-30,0,0.5513500000815839,1,88
48ne807kl3uo97vu0imier5e.,71,3,5,-1,60,90,-30,1,0.687889999942854,0,68
48ne807kl3uo97vu0imier5e.,71,4,5,-1,60,90,-30,0,0.7280099999625236,1,96
48ne807kl3uo97vu0imier5e.,71,5,5,-1,60,90,-30,0,0.4722649999894202,1,96
48ne807kl3uo97vu0imier5e.,72,1,5,1,40,52,-12,1,0.8309299999382347,0,42
48ne807kl3uo97vu0imier5e.,72,2,5,1,40,52,-12,1,0.7676750000100583,0,37
48ne807kl3uo97vu0imier5e.,72,3,5,1,40,52,-12,0,0.6730349999852479,1,66
48ne807kl3uo97vu0imier5e.,72,4,5,1,40,52,-12,1,1.1345200000796467,0,44
48ne807kl3uo97vu0imier5e.,72,5,5,1,40,52,-12,0,0.7760449999477714,1,53
48ne807kl3uo97vu0imier5e.,73,1,10,0,60,30,30,0,0.6828649998642504,0,17
48ne807kl3uo97vu0imier5e.,73,2,10,0,60,30,30,0,0.6321549999993294,0,27
48ne807kl3uo97vu0imier5e.,73,3,10,0,60,30,30,1,0.7194199999794364,1,59
48ne807kl3uo97vu0imier5e.,73,4,10,0,60,30,30,1,1.048305000178516,1,59
48ne807kl3uo97vu0imier5e.,73,5,10,0,60,30,30,1,1.4557649998459965,1,56
48ne807kl3uo97vu0imier5e.,73,6,10,0,60,30,30,1,0.47241499996744096,1,66
48ne807kl3uo97vu0imier5e.,73,7,10,0,60,30,30,1,0.43972999998368323,1,58
48ne807kl3uo97vu0imier5e.,73,8,10,0,60,30,30,1,0.5275499999988824,1,64
48ne807kl3uo97vu0imier5e.,73,9,10,0,60,30,30,0,0.5439849998801947,0,35
48ne807kl3uo97vu0imier5e.,73,10,10,0,60,30,30,1,0.46387999993748963,1,67
48ne807kl3uo97vu0imier5e.,74,1,10,1,60,68,-8,0,0.8070999998599291,1,70
48ne807kl3uo97vu0imier5e.,74,2,10,1,60,68,-8,1,0.7434600000269711,0,63
48ne807kl3uo97vu0imier5e.,74,3,10,1,60,68,-8,1,0.7279600000474602,0,50
48ne807kl3uo97vu0imier5e.,74,4,10,1,60,68,-8,1,0.967695000115782,0,64
48ne807kl3uo97vu0imier5e.,74,5,10,1,60,68,-8,1,1.3207799999509007,0,52
48ne807kl3uo97vu0imier5e.,74,6,10,1,60,68,-8,1,0.4395000000949949,0,69
48ne807kl3uo97vu0imier5e.,74,7,10,1,60,68,-8,1,0.4802149999886751,0,53
48ne807kl3uo97vu0imier5e.,74,8,10,1,60,68,-8,1,0.4637349999975413,0,64
48ne807kl3uo97vu0imier5e.,74,9,10,1,60,68,-8,0,0.49606999987736344,1,58
48ne807kl3uo97vu0imier5e.,74,10,10,1,60,68,-8,1,0.5759550000075251,0,59
48ne807kl3uo97vu0imier5e.,75,1,10,1,60,80,-20,1,0.749769999878481,0,52
48ne807kl3uo97vu0imier5e.,75,2,10,1,60,80,-20,1,0.6399300000630319,0,56
48ne807kl3uo97vu0imier5e.,75,3,10,1,60,80,-20,1,0.6718349999282509,0,52
48ne807kl3uo97vu0imier5e.,75,4,10,1,60,80,-20,0,0.880254999967292,1,60
48ne807kl3uo97vu0imier5e.,75,5,10,1,60,80,-20,0,2.127885000081733,1,73
48ne807kl3uo97vu0imier5e.,75,6,10,1,60,80,-20,0,0.5199899999424815,1,77
48ne807kl3uo97vu0imier5e.,75,7,10,1,60,80,-20,0,0.4000250000972301,1,87
48ne807kl3uo97vu0imier5e.,75,8,10,1,60,80,-20,0,0.3597449997905642,1,66
48ne807kl3uo97vu0imier5e.,75,9,10,1,60,80,-20,0,0.4091100001242012,1,86
48ne807kl3uo97vu0imier5e.,75,10,10,1,60,80,-20,1,0.5025850001256913,0,59
48ne807kl3uo97vu0imier5e.,76,1,10,1,60,90,-30,1,0.8062800001353025,0,74
48ne807kl3uo97vu0imier5e.,76,2,10,1,60,90,-30,1,0.6321199999656528,0,66
48ne807kl3uo97vu0imier5e.,76,3,10,1,60,90,-30,0,0.8074799999594688,1,92
48ne807kl3uo97vu0imier5e.,76,4,10,1,60,90,-30,1,1.4640349999535829,0,66
48ne807kl3uo97vu0imier5e.,76,5,10,1,60,90,-30,0,1.1916649998165667,1,81
48ne807kl3uo97vu0imier5e.,76,6,10,1,60,90,-30,0,0.6160099999979138,1,86
48ne807kl3uo97vu0imier5e.,76,7,10,1,60,90,-30,0,0.6078050001524389,1,94
48ne807kl3uo97vu0imier5e.,76,8,10,1,60,90,-30,0,0.5843799998983741,1,79
48ne807kl3uo97vu0imier5e.,76,9,10,1,60,90,-30,0,0.5276999999769032,1,89
48ne807kl3uo97vu0imier5e.,76,10,10,1,60,90,-30,0,0.575745000038296,1,85
48ne807kl3uo97vu0imier5e.,77,1,5,0,40,48,-8,0,0.8619549998547882,1,37
48ne807kl3uo97vu0imier5e.,77,2,5,0,40,48,-8,0,1.0484400000423193,1,55
48ne807kl3uo97vu0imier5e.,77,3,5,0,40,48,-8,1,0.5672550001181662,0,24
48ne807kl3uo97vu0imier5e.,77,4,5,0,40,48,-8,1,2.816344999941066,0,39
48ne807kl3uo97vu0imier5e.,77,5,5,0,40,48,-8,0,1.2233799998648465,1,53
48ne807kl3uo97vu0imier5e.,78,1,10,0,60,68,-8,1,0.7936550001613796,0,46
48ne807kl3uo97vu0imier5e.,78,2,10,0,60,68,-8,1,0.7247000001370907,0,66
48ne807kl3uo97vu0imier5e.,78,3,10,0,60,68,-8,0,0.6957499999552965,1,66
48ne807kl3uo97vu0imier5e.,78,4,10,0,60,68,-8,0,0.6399399999063462,1,70
48ne807kl3uo97vu0imier5e.,78,5,10,0,60,68,-8,0,1.7364550000056624,1,74
48ne807kl3uo97vu0imier5e.,78,6,10,0,60,68,-8,0,0.46356499986723065,1,74
48ne807kl3uo97vu0imier5e.,78,7,10,0,60,68,-8,0,0.4398350000847131,1,72
48ne807kl3uo97vu0imier5e.,78,8,10,0,60,68,-8,0,0.6162199999671429,1,75
48ne807kl3uo97vu0imier5e.,78,9,10,0,60,68,-8,0,0.5118199998978525,1,74
48ne807kl3uo97vu0imier5e.,78,10,10,0,60,68,-8,0,0.40786999999545515,1,64
48ne807kl3uo97vu0imier5e.,79,1,10,-1,60,56,4,0,0.7583249998278916,0,50
48ne807kl3uo97vu0imier5e.,79,2,10,-1,60,56,4,0,1.5671049999073148,0,66
48ne807kl3uo97vu0imier5e.,79,3,10,-1,60,56,4,0,0.864765000063926,0,42
48ne807kl3uo97vu0imier5e.,79,4,10,-1,60,56,4,1,0.8478500000201166,1,61
48ne807kl3uo97vu0imier5e.,79,5,10,-1,60,56,4,1,2.2246349998749793,1,65
48ne807kl3uo97vu0imier5e.,79,6,10,-1,60,56,4,1,0.5595400000456721,1,63
48ne807kl3uo97vu0imier5e.,79,7,10,-1,60,56,4,1,0.5435750000178814,1,72
48ne807kl3uo97vu0imier5e.,79,8,10,-1,60,56,4,1,0.6238500000908971,1,70
48ne807kl3uo97vu0imier5e.,79,9,10,-1,60,56,4,1,0.5118599999696016,1,48
48ne807kl3uo97vu0imier5e.,79,10,10,-1,60,56,4,0,0.9122150000184774,0,62
48ne807kl3uo97vu0imier5e.,80,1,5,-1,40,48,-8,0,1.0646450000349432,1,58
48ne807kl3uo97vu0imier5e.,80,2,5,-1,40,48,-8,0,0.8878399999812245,1,48
48ne807kl3uo97vu0imier5e.,80,3,5,-1,40,48,-8,0,0.7278599999845028,1,51
48ne807kl3uo97vu0imier5e.,80,4,5,-1,40,48,-8,1,0.9361499999649823,0,35
48ne807kl3uo97vu0imier5e.,80,5,5,-1,40,48,-8,0,0.7278849999420345,1,36
7aoyy6q71yj3mu74fqficwof.,1,1,5,-1,40,60,-20,0,3.652754999930039,1,76
7aoyy6q71yj3mu74fqficwof.,1,2,5,-1,40,60,-20,0,2.31917999999132,1,72
7aoyy6q71yj3mu74fqficwof.,1,3,5,-1,40,60,-20,0,2.8407950000837445,1,64
7aoyy6q71yj3mu74fqficwof.,1,4,5,-1,40,60,-20,1,3.334514999995008,0,27
7aoyy6q71yj3mu74fqficwof.,1,5,5,-1,40,60,-20,1,2.079685000004247,0,42
7aoyy6q71yj3mu74fqficwof.,2,1,5,0,40,70,-30,0,2.1717300000600517,1,68
7aoyy6q71yj3mu74fqficwof.,2,2,5,0,40,70,-30,0,1.3875349999871105,1,72
7aoyy6q71yj3mu74fqficwof.,2,3,5,0,40,70,-30,1,3.0463599999202415,0,38
7aoyy6q71yj3mu74fqficwof.,2,4,5,0,40,70,-30,1,1.3787950000260025,0,48
7aoyy6q71yj3mu74fqficwof.,2,5,5,0,40,70,-30,0,3.1787100000074133,1,74
7aoyy6q71yj3mu74fqficwof.,3,1,5,0,60,64,-4,0,1.6350050000473857,1,64
7aoyy6q71yj3mu74fqficwof.,3,2,5,0,60,64,-4,1,2.010965000023134,0,69
7aoyy6q71yj3mu74fqficwof.,3,3,5,0,60,64,-4,0,1.7211799999931827,1,67
7aoyy6q71yj3mu74fqficwof.,3,4,5,0,60,64,-4,1,2.058919999981299,0,66
7aoyy6q71yj3mu74fqficwof.,3,5,5,0,60,64,-4,1,3.520784999942407,0,60
7aoyy6q71yj3mu74fqficwof.,4,1,10,0,60,48,12,1,2.8031600000103936,1,61
7aoyy6q71yj3mu74fqficwof.,4,2,10,0,60,48,12,1,1.9204449999378994,1,64
7aoyy6q71yj3mu74fqficwof.,4,3,10,0,60,48,12,0,2.677750000031665,0,47
7aoyy6q71yj3mu74fqficwof.,4,4,10,0,60,48,12,0,3.362915000063367,0,57
7aoyy6q71yj3mu74fqficwof.,4,5,10,0,60,48,12,1,3.5641949999844655,1,56
7aoyy6q71yj3mu74fqficwof.,4,6,10,0,60,48,12,1,1.8894599999766797,1,55
7aoyy6q71yj3mu74fqficwof.,4,7,10,0,60,48,12,1,1.7043599999742582,1,53
7aoyy6q71yj3mu74fqficwof.,4,8,10,0,60,48,12,1,1.6626999999862164,1,55
7aoyy6q71yj3mu74fqficwof.,4,9,10,0,60,48,12,1,1.000764999887906,1,60
7aoyy6q71yj3mu74fqficwof.,4,10,10,0,60,48,12,1,1.3830399999860674,1,49
7aoyy6q71yj3mu74fqficwof.,5,1,10,-1,60,52,8,0,1.5967849999433383,0,45
7aoyy6q71yj3mu74fqficwof.,5,2,10,-1,60,52,8,0,1.3789300000062212,0,58
7aoyy6q71yj3mu74fqficwof.,5,3,10,-1,60,52,8,0,1.3944399999454618,0,39
7aoyy6q71yj3mu74fqficwof.,5,4,10,-1,60,52,8,1,2.837805000017397,1,58
7aoyy6q71yj3mu74fqficwof.,5,5,10,-1,60,52,8,0,2.6943350000074133,0,56
7aoyy6q71yj3mu74fqficwof.,5,6,10,-1,60,52,8,0,1.4221100000431761,0,42
7aoyy6q71yj3mu74fqficwof.,5,7,10,-1,60,52,8,0,1.421405000030063,0,44
7aoyy6q71yj3mu74fqficwof.,5,8,10,-1,60,52,8,0,1.3461949999909848,0,53
7aoyy6q71yj3mu74fqficwof.,5,9,10,-1,60,52,8,0,1.262114999932237,0,51
7aoyy6q71yj3mu74fqficwof.,5,10,10,-1,60,52,8,0,1.0323899999493733,0,49
7aoyy6q71yj3mu74fqficwof.,6,1,5,-1,40,20,20,0,1.076740000047721,0,21
7aoyy6q71yj3mu74fqficwof.,6,2,5,-1,40,20,20,0,1.5665149999549612,0,12
7aoyy6q71yj3mu74fqficwof.,6,3,5,-1,40,20,20,0,1.3260800000280142,0,35
7aoyy6q71yj3mu74fqficwof.,6,4,5,-1,40,20,20,1,1.7300500000128523,1,29
7aoyy6q71yj3mu74fqficwof.,6,5,5,-1,40,20,20,0,1.762944999965839,0,4
7aoyy6q71yj3mu74fqficwof.,7,1,10,0,60,90,-30,0,1.95503000007011,1,97
7aoyy6q71yj3mu74fqficwof.,7,2,10,0,60,90,-30,1,1.5938549999846146,0,58
7aoyy6q71yj3mu74fqficwof.,7,3,10,0,60,90,-30,1,1.6441800000611693,0,55
7aoyy6q71yj3mu74fqficwof.,7,4,10,0,60,90,-30,0,1.5749350000405684,1,73
7aoyy6q71yj3mu74fqficwof.,7,5,10,0,60,90,-30,0,2.8921649999683723,1,78
7aoyy6q71yj3mu74fqficwof.,7,6,10,0,60,90,-30,0,1.0548800000688061,1,88
7aoyy6q71yj3mu74fqficwof.,7,7,10,0,60,90,-30,0,0.9831150000682101,1,86
7aoyy6q71yj3mu74fqficwof.,7,8,10,0,60,90,-30,0,0.9378400000277907,1,99
7aoyy6q71yj3mu74fqficwof.,7,9,10,0,60,90,-30,0,0.8379799999529496,1,93
7aoyy6q71yj3mu74fqficwof.,7,10,10,0,60,90,-30,0,0.7609699999447912,1,86
7aoyy6q71yj3mu74fqficwof.,8,1,10,-1,60,52,8,0,1.068985000019893,0,47
7aoyy6q71yj3mu74fqficwof.,8,2,10,-1,60,52,8,0,0.8839499999303371,0,49
7aoyy6q71yj3mu74fqficwof.,8,3,10,-1,60,52,8,0,0.9511599999386817,0,48
7aoyy6q71yj3mu74fqficwof.,8,4,10,-1,60,52,8,1,1.344645000062883,1,51
7aoyy6q71yj3mu74fqficwof.,8,5,10,-1,60,52,8,0,1.3432999999495223,0,54
7aoyy6q71yj3mu74fqficwof.,8,6,10,-1,60,52,8,0,1.1389050000580028,0,40
7aoyy6q71yj3mu74fqficwof.,8,7,10,-1,60,52,8,0,1.139930000063032,0,60
7aoyy6q71yj3mu74fqficwof.,8,8,10,-1,60,52,8,0,0.8273899999912828,0,55
7aoyy6q71yj3mu74fqficwof.,8,9,10,-1,60,52,8,0,0.7362849999917671,0,32
7aoyy6q71yj3mu74fqficwof.,8,10,10,-1,60,52,8,0,0.5819650000194088,0,55
7aoyy6q71yj3mu74fqficwof.,9,1,5,-1,40,52,-12,0,0.7162350000580773,1,45
7aoyy6q71yj3mu74fqficwof.,9,2,5,-1,40,52,-12,0,1.3867200000677258,1,54
7aoyy6q71yj3mu74fqficwof.,9,3,5,-1,40,52,-12,0,1.1216749999439344,1,44
7aoyy6q71yj3mu74fqficwof.,9,4,5,-1,40,52,-12,1,1.6459350000368431,0,34
7aoyy6q71yj3mu74fqficwof.,9,5,5,-1,40,52,-12,0,1.580974999931641,1,59
7aoyy6q71yj3mu74fqficwof.,10,1,5,-1,40,20,20,0,0.8298499999800697,0,26
7aoyy6q71yj3mu74fqficwof.,10,2,5,-1,40,20,20,0,0.6958400000585243,0,23
7aoyy6q71yj3mu74fqficwof.,10,3,5,-1,40,20,20,1,2.2153149999212474,1,48
7aoyy6q71yj3mu74fqficwof.,10,4,5,-1,40,20,20,0,2.081540000042878,0,25
7aoyy6q71yj3mu74fqficwof.,10,5,5,-1,40,20,20,0,2.970270000048913,0,22
7aoyy6q71yj3mu74fqficwof.,11,1,10,0,60,30,30,1,1.3103099999716505,1,57
7aoyy6q71yj3mu74fqficwof.,11,2,10,0,60,30,30,0,1.5504499999806285,0,43
7aoyy6q71yj3mu74fqficwof.,11,3,10,0,60,30,30,0,1.3332049999153242,0,35
7aoyy6q71yj3mu74fqficwof.,11,4,10,0,60,30,30,1,1.1522849999601021,1,70
7aoyy6q71yj3mu74fqficwof.,11,5,10,0,60,30,30,1,3.3572249999269843,1,58
7aoyy6q71yj3mu74fqficwof.,11,6,10,0,60,30,30,1,0.881664999993518,1,60
7aoyy6q71yj3mu74fqficwof.,11,7,10,0,60,30,30,1,0.8675049999728799,1,59
7aoyy6q71yj3mu74fqficwof.,11,8,10,0,60,30,30,1,0.7205300000496209,1,58
7aoyy6q71yj3mu74fqficwof.,11,9,10,0,60,30,30,1,0.6035400000400841,1,48
7aoyy6q71yj3mu74fqficwof.,11,10,10,0,60,30,30,1,0.6275849998928607,1,64
7aoyy6q71yj3mu74fqficwof.,12,1,5,1,60,40,20,1,1.1996349999681115,1,64
7aoyy6q71yj3mu74fqficwof.,12,2,5,1,60,40,20,1,1.0273550000274554,1,55
7aoyy6q71yj3mu74fqficwof.,12,3,5,1,60,40,20,0,1.1289900001138449,0,44
7aoyy6q71yj3mu74fqficwof.,12,4,5,1,60,40,20,1,0.8948899999959394,1,56
7aoyy6q71yj3mu74fqficwof.,12,5,5,1,60,40,20,1,1.140430000028573,1,55
7aoyy6q71yj3mu74fqficwof.,13,1,10,-1,40,48,-8,1,1.3198300000512972,0,51
7aoyy6q71yj3mu74fqficwof.,13,2,10,-1,40,48,-8,0,0.9805249999044463,1,51
7aoyy6q71yj3mu74fqficwof.,13,3,10,-1,40,48,-8,0,0.9440750000067055,1,40
7aoyy6q71yj3mu74fqficwof.,13,4,10,-1,40,48,-8,0,1.1996599999256432,1,45
7aoyy6q71yj3mu74fqficwof.,13,5,10,-1,40,48,-8,0,2.3872050000354648,1,59
7aoyy6q71yj3mu74fqficwof.,13,6,10,-1,40,48,-8,0,0.592839999939315,1,51
7aoyy6q71yj3mu74fqficwof.,13,7,10,-1,40,48,-8,0,0.5020500000100583,1,56
7aoyy6q71yj3mu74fqficwof.,13,8,10,-1,40,48,-8,0,0.46510499995201826,1,50
7aoyy6q71yj3mu74fqficwof.,13,9,10,-1,40,48,-8,0,0.5213699999731034,1,36
7aoyy6q71yj3mu74fqficwof.,13,10,10,-1,40,48,-8,0,0.6435700000729412,1,33
7aoyy6q71yj3mu74fqficwof.,14,1,10,0,40,48,-8,0,0.6560649999883026,1,56
7aoyy6q71yj3mu74fqficwof.,14,2,10,0,40,48,-8,1,1.0065000000176951,0,40
7aoyy6q71yj3mu74fqficwof.,14,3,10,0,40,48,-8,0,0.7171799999196082,1,48
7aoyy6q71yj3mu74fqficwof.,14,4,10,0,40,48,-8,1,1.0773699999554083,0,55
7aoyy6q71yj3mu74fqficwof.,14,5,10,0,40,48,-8,0,4.493849999969825,1,47
7aoyy6q71yj3mu74fqficwof.,14,6,10,0,40,48,-8,0,0.6122299999697134,1,51
7aoyy6q71yj3mu74fqficwof.,14,7,10,0,40,48,-8,0,0.4383649999508634,1,42
7aoyy6q71yj3mu74fqficwof.,14,8,10,0,40,48,-8,0,0.41972000000532717,1,42
7aoyy6q71yj3mu74fqficwof.,14,9,10,0,40,48,-8,0,0.41182499995920807,1,49
7aoyy6q71yj3mu74fqficwof.,14,10,10,0,40,48,-8,0,0.43179499998223037,1,49
7aoyy6q71yj3mu74fqficwof.,15,1,5,1,60,90,-30,1,2.0983249999117106,0,65
7aoyy6q71yj3mu74fqficwof.,15,2,5,1,60,90,-30,0,0.908350000041537,1,82
7aoyy6q71yj3mu74fqficwof.,15,3,5,1,60,90,-30,1,0.7739199999487028,0,59
7aoyy6q71yj3mu74fqficwof.,15,4,5,1,60,90,-30,1,1.6806949999881908,0,66
7aoyy6q71yj3mu74fqficwof.,15,5,5,1,60,90,-30,1,1.3670250000432134,0,55
7aoyy6q71yj3mu74fqficwof.,16,1,5,0,40,60,-20,0,1.2125199999427423,1,65
7aoyy6q71yj3mu74fqficwof.,16,2,5,0,40,60,-20,1,0.7949050000170246,0,37
7aoyy6q71yj3mu74fqficwof.,16,3,5,0,40,60,-20,1,0.8182700000470504,0,41
7aoyy6q71yj3mu74fqficwof.,16,4,5,0,40,60,-20,0,0.9341449999483302,1,57
7aoyy6q71yj3mu74fqficwof.,16,5,5,0,40,60,-20,0,2.4564650000538677,1,64
7aoyy6q71yj3mu74fqficwof.,17,1,10,0,60,80,-20,0,0.7695499999681488,1,75
7aoyy6q71yj3mu74fqficwof.,17,2,10,0,60,80,-20,0,0.826230000006035,1,77
7aoyy6q71yj3mu74fqficwof.,17,3,10,0,60,80,-20,1,0.803150000050664,0,66
7aoyy6q71yj3mu74fqficwof.,17,4,10,0,60,80,-20,1,0.7962899999693036,0,49
7aoyy6q71yj3mu74fqficwof.,17,5,10,0,60,80,-20,0,2.0292200000258163,1,74
7aoyy6q71yj3mu74fqficwof.,17,6,10,0,60,80,-20,0,0.5995449998881668,1,83
7aoyy6q71yj3mu74fqficwof.,17,7,10,0,60,80,-20,0,0.46164499991573393,1,82
7aoyy6q71yj3mu74fqficwof.,17,8,10,0,60,80,-20,0,0.4479349999455735,1,74
7aoyy6q71yj3mu74fqficwof.,17,9,10,0,60,80,-20,0,0.4853199999779463,1,94
7aoyy6q71yj3mu74fqficwof.,17,10,10,0,60,80,-20,0,0.52132000005804,1,78
7aoyy6q71yj3mu74fqficwof.,18,1,10,1,40,48,-8,0,0.7424650000175461,1,40
7aoyy6q71yj3mu74fqficwof.,18,2,10,1,40,48,-8,1,0.7612249999074265,0,55
7aoyy6q71yj3mu74fqficwof.,18,3,10,1,40,48,-8,1,0.7860149999614805,0,34
7aoyy6q71yj3mu74fqficwof.,18,4,10,1,40,48,-8,1,0.6096299999626353,0,46
7aoyy6q71yj3mu74fqficwof.,18,5,10,1,40,48,-8,1,1.7763349999440834,0,50
7aoyy6q71yj3mu74fqficwof.,18,6,10,1,40,48,-8,1,0.4540300000226125,0,40
7aoyy6q71yj3mu74fqficwof.,18,7,10,1,40,48,-8,1,0.3535300000803545,0,36
7aoyy6q71yj3mu74fqficwof.,18,8,10,1,40,48,-8,1,0.3013200000859797,0,38
7aoyy6q71yj3mu74fqficwof.,18,9,10,1,40,48,-8,1,0.3585949999978766,0,44
7aoyy6q71yj3mu74fqficwof.,18,10,10,1,40,48,-8,1,1.007344999932684,0,41
7aoyy6q71yj3mu74fqficwof.,19,1,10,-1,60,64,-4,1,1.48347500001546,0,75
7aoyy6q71yj3mu74fqficwof.,19,2,10,-1,60,64,-4,0,1.9052900000242516,1,49
7aoyy6q71yj3mu74fqficwof.,19,3,10,-1,60,64,-4,0,0.8113149999408051,1,56
7aoyy6q71yj3mu74fqficwof.,19,4,10,-1,60,64,-4,0,0.9551849999697879,1,74
7aoyy6q71yj3mu74fqficwof.,19,5,10,-1,60,64,-4,0,1.5861100000329316,1,71
7aoyy6q71yj3mu74fqficwof.,19,6,10,-1,60,64,-4,0,0.5874549999134615,1,62
7aoyy6q71yj3mu74fqficwof.,19,7,10,-1,60,64,-4,0,0.31793000001925975,1,46
7aoyy6q71yj3mu74fqficwof.,19,8,10,-1,60,64,-4,0,0.3174049999797717,1,62
7aoyy6q71yj3mu74fqficwof.,19,9,10,-1,60,64,-4,0,0.32112999993842095,1,54
7aoyy6q71yj3mu74fqficwof.,19,10,10,-1,60,64,-4,0,0.6735099999932572,1,56
7aoyy6q71yj3mu74fqficwof.,20,1,10,0,60,52,8,0,0.8480900001013651,0,46
7aoyy6q71yj3mu74fqficwof.,20,2,10,0,60,52,8,1,0.6288250000216067,1,63
7aoyy6q71yj3mu74fqficwof.,20,3,10,0,60,52,8,1,0.8617450000019744,1,51
7aoyy6q71yj3mu74fqficwof.,20,4,10,0,60,52,8,0,0.793805000022985,0,37
7aoyy6q71yj3mu74fqficwof.,20,5,10,0,60,52,8,1,2.5817700000479817,1,68
7aoyy6q71yj3mu74fqficwof.,20,6,10,0,60,52,8,1,0.6399750000564381,1,61
7aoyy6q71yj3mu74fqficwof.,20,7,10,0,60,52,8,1,0.3697099999990314,1,55
7aoyy6q71yj3mu74fqficwof.,20,8,10,0,60,52,8,1,0.30842500005383044,1,66
7aoyy6q71yj3mu74fqficwof.,20,9,10,0,60,52,8,1,0.31228499999269843,1,57
7aoyy6q71yj3mu74fqficwof.,20,10,10,0,60,52,8,1,0.4312850000569597,1,66
7aoyy6q71yj3mu74fqficwof.,21,1,5,-1,40,28,12,0,0.8076700000092387,0,22
7aoyy6q71yj3mu74fqficwof.,21,2,5,-1,40,28,12,0,0.6151250000111759,0,18
7aoyy6q71yj3mu74fqficwof.,21,3,5,-1,40,28,12,1,1.2589649999281392,1,36
7aoyy6q71yj3mu74fqficwof.,21,4,5,-1,40,28,12,0,0.7204949998995289,0,27
7aoyy6q71yj3mu74fqficwof.,21,5,5,-1,40,28,12,0,2.385509999934584,0,30
7aoyy6q71yj3mu74fqficwof.,22,1,10,0,60,40,20,0,0.7303299999330193,0,33
7aoyy6q71yj3mu74fqficwof.,22,2,10,0,60,40,20,1,2.0273250000318512,1,79
7aoyy6q71yj3mu74fqficwof.,22,3,10,0,60,40,20,1,0.8562500000698492,1,68
7aoyy6q71yj3mu74fqficwof.,22,4,10,0,60,40,20,0,1.534429999999702,0,46
7aoyy6q71yj3mu74fqficwof.,22,5,10,0,60,40,20,1,2.0389699999941513,1,63
7aoyy6q71yj3mu74fqficwof.,22,6,10,0,60,40,20,1,0.4051099999342114,1,47
7aoyy6q71yj3mu74fqficwof.,22,7,10,0,60,40,20,1,0.26607999997213483,1,62
7aoyy6q71yj3mu74fqficwof.,22,8,10,0,60,40,20,1,0.22372000000905246,1,65
7aoyy6q71yj3mu74fqficwof.,22,9,10,0,60,40,20,1,0.35340000002179295,1,62
7aoyy6q71yj3mu74fqficwof.,22,10,10,0,60,40,20,1,0.5497949999989942,1,61
7aoyy6q71yj3mu74fqficwof.,23,1,5,1,40,28,12,1,1.0634050000226125,1,32
7aoyy6q71yj3mu74fqficwof.,23,2,5,1,40,28,12,0,0.6566149999853224,0,27
7aoyy6q71yj3mu74fqficwof.,23,3,5,1,40,28,12,1,0.554270000080578,1,41
7aoyy6q71yj3mu74fqficwof.,23,4,5,1,40,28,12,1,0.8440450000343844,1,51
7aoyy6q71yj3mu74fqficwof.,23,5,5,1,40,28,12,1,1.3789450000040233,1,47
7aoyy6q71yj3mu74fqficwof.,24,1,10,1,40,70,-30,1,1.3360699999611825,0,48
7aoyy6q71yj3mu74fqficwof.,24,2,10,1,40,70,-30,1,1.0533000000286847,0,40
7aoyy6q71yj3mu74fqficwof.,24,3,10,1,40,70,-30,0,0.8749799999641255,1,60
7aoyy6q71yj3mu74fqficwof.,24,4,10,1,40,70,-30,1,0.7326849999371916,0,33
7aoyy6q71yj3mu74fqficwof.,24,5,10,1,40,70,-30,1,1.3966749999672174,0,44
7aoyy6q71yj3mu74fqficwof.,24,6,10,1,40,70,-30,1,0.36501499998848885,0,43
7aoyy6q71yj3mu74fqficwof.,24,7,10,1,40,70,-30,1,0.18764000001829118,0,35
7aoyy6q71yj3mu74fqficwof.,24,8,10,1,40,70,-30,1,0.18341999989934266,0,33
7aoyy6q71yj3mu74fqficwof.,24,9,10,1,40,70,-30,1,0.18397999997250736,0,35
7aoyy6q71yj3mu74fqficwof.,24,10,10,1,40,70,-30,1,1.2235149999614805,0,34
7aoyy6q71yj3mu74fqficwof.,25,1,5,0,60,64,-4,0,1.2460499999579042,1,62
7aoyy6q71yj3mu74fqficwof.,25,2,5,0,60,64,-4,1,0.7727250000461936,0,66
7aoyy6q71yj3mu74fqficwof.,25,3,5,0,60,64,-4,1,0.8941600000252947,0,57
7aoyy6q71yj3mu74fqficwof.,25,4,5,0,60,64,-4,0,0.9241649999748915,1,71
7aoyy6q71yj3mu74fqficwof.,25,5,5,0,60,64,-4,1,0.6534949999768287,0,53
7aoyy6q71yj3mu74fqficwof.,26,1,10,1,40,44,-4,1,1.0579050000524148,0,55
7aoyy6q71yj3mu74fqficwof.,26,2,10,1,40,44,-4,1,0.5459300000220537,0,46
7aoyy6q71yj3mu74fqficwof.,26,3,10,1,40,44,-4,1,0.6100350000197068,0,47
7aoyy6q71yj3mu74fqficwof.,26,4,10,1,40,44,-4,0,0.83300500002224,1,33
7aoyy6q71yj3mu74fqficwof.,26,5,10,1,40,44,-4,1,1.8411100000375882,0,41
7aoyy6q71yj3mu74fqficwof.,26,6,10,1,40,44,-4,1,0.38606499996967614,0,35
7aoyy6q71yj3mu74fqficwof.,26,7,10,1,40,44,-4,1,0.36294500005897135,0,38
7aoyy6q71yj3mu74fqficwof.,26,8,10,1,40,44,-4,1,0.4268900000024587,0,44
7aoyy6q71yj3mu74fqficwof.,26,9,10,1,40,44,-4,1,0.3739100000821054,0,23
7aoyy6q71yj3mu74fqficwof.,26,10,10,1,40,44,-4,1,0.34661000000778586,0,11
7aoyy6q71yj3mu74fqficwof.,27,1,5,0,40,60,-20,0,1.230184999993071,1,59
7aoyy6q71yj3mu74fqficwof.,27,2,5,0,40,60,-20,1,0.816810000105761,0,47
7aoyy6q71yj3mu74fqficwof.,27,3,5,0,40,60,-20,1,0.734639999922365,0,24
7aoyy6q71yj3mu74fqficwof.,27,4,5,0,40,60,-20,0,0.9502199999988079,1,55
7aoyy6q71yj3mu74fqficwof.,27,5,5,0,40,60,-20,0,2.553440000046976,1,58
7aoyy6q71yj3mu74fqficwof.,28,1,10,-1,40,36,4,0,0.6614850000478327,0,31
7aoyy6q71yj3mu74fqficwof.,28,2,10,-1,40,36,4,0,0.8189900000579655,0,42
7aoyy6q71yj3mu74fqficwof.,28,3,10,-1,40,36,4,1,1.2834599999478087,1,35
7aoyy6q71yj3mu74fqficwof.,28,4,10,-1,40,36,4,0,0.7366649999748915,0,27
7aoyy6q71yj3mu74fqficwof.,28,5,10,-1,40,36,4,0,2.8681900000665337,0,34
7aoyy6q71yj3mu74fqficwof.,28,6,10,-1,40,36,4,0,0.4789050000254065,0,27
7aoyy6q71yj3mu74fqficwof.,28,7,10,-1,40,36,4,0,0.17697999998927116,0,37
7aoyy6q71yj3mu74fqficwof.,28,8,10,-1,40,36,4,0,0.18840999994426966,0,31
7aoyy6q71yj3mu74fqficwof.,28,9,10,-1,40,36,4,0,0.1950949999736622,0,20
7aoyy6q71yj3mu74fqficwof.,28,10,10,-1,40,36,4,0,0.4570799999637529,0,30
7aoyy6q71yj3mu74fqficwof.,29,1,10,0,60,80,-20,1,1.0206350000808015,0,56
7aoyy6q71yj3mu74fqficwof.,29,2,10,0,60,80,-20,0,0.7973149999743327,1,69
7aoyy6q71yj3mu74fqficwof.,29,3,10,0,60,80,-20,1,0.6338700000196695,0,54
7aoyy6q71yj3mu74fqficwof.,29,4,10,0,60,80,-20,0,0.6591250000055879,1,77
7aoyy6q71yj3mu74fqficwof.,29,5,10,0,60,80,-20,0,2.2408399999840185,1,64
7aoyy6q71yj3mu74fqficwof.,29,6,10,0,60,80,-20,0,0.42659499996807426,1,87
7aoyy6q71yj3mu74fqficwof.,29,7,10,0,60,80,-20,0,0.18585499993059784,1,87
7aoyy6q71yj3mu74fqficwof.,29,8,10,0,60,80,-20,0,0.19194499996956438,1,71
7aoyy6q71yj3mu74fqficwof.,29,9,10,0,60,80,-20,0,0.2687549999682233,1,94
7aoyy6q71yj3mu74fqficwof.,29,10,10,0,60,80,-20,0,0.5175000000745058,1,81
7aoyy6q71yj3mu74fqficwof.,30,1,5,-1,60,64,-4,0,0.6547400000272319,1,74
7aoyy6q71yj3mu74fqficwof.,30,2,5,-1,60,64,-4,0,0.7492400000337511,1,63
7aoyy6q71yj3mu74fqficwof.,30,3,5,-1,60,64,-4,0,0.6886749999830499,1,67
7aoyy6q71yj3mu74fqficwof.,30,4,5,-1,60,64,-4,1,1.2883700000820681,0,56
7aoyy6q71yj3mu74fqficwof.,30,5,5,-1,60,64,-4,0,0.9597399999620393,1,57
7aoyy6q71yj3mu74fqficwof.,31,1,10,0,60,30,30,1,0.978789999964647,1,63
7aoyy6q71yj3mu74fqficwof.,31,2,10,0,60,30,30,1,0.4746450000675395,1,65
7aoyy6q71yj3mu74fqficwof.,31,3,10,0,60,30,30,0,0.6370149999856949,0,30
7aoyy6q71yj3mu74fqficwof.,31,4,10,0,60,30,30,0,0.8727150000631809,0,21
7aoyy6q71yj3mu74fqficwof.,31,5,10,0,60,30,30,1,1.6876700000138953,1,69
7aoyy6q71yj3mu74fqficwof.,31,6,10,0,60,30,30,1,0.24498000007588416,1,66
7aoyy6q71yj3mu74fqficwof.,31,7,10,0,60,30,30,1,0.17862000002060086,1,66
7aoyy6q71yj3mu74fqficwof.,31,8,10,0,60,30,30,1,0.20479500002693385,1,51
7aoyy6q71yj3mu74fqficwof.,31,9,10,0,60,30,30,1,0.2369450000114739,1,67
7aoyy6q71yj3mu74fqficwof.,31,10,10,0,60,30,30,1,0.5571699999272823,1,66
7aoyy6q71yj3mu74fqficwof.,32,1,5,0,60,56,4,1,1.2144049999769777,1,68
7aoyy6q71yj3mu74fqficwof.,32,2,5,0,60,56,4,1,0.6157150000799447,1,67
7aoyy6q71yj3mu74fqficwof.,32,3,5,0,60,56,4,0,0.7329349999781698,0,53
7aoyy6q71yj3mu74fqficwof.,32,4,5,0,60,56,4,0,0.79398499999661,0,50
7aoyy6q71yj3mu74fqficwof.,32,5,5,0,60,56,4,1,2.3137400000123307,1,61
7aoyy6q71yj3mu74fqficwof.,33,1,5,0,60,72,-12,0,0.8121800000080839,1,60
7aoyy6q71yj3mu74fqficwof.,33,2,5,0,60,72,-12,1,0.8085800000699237,0,55
7aoyy6q71yj3mu74fqficwof.,33,3,5,0,60,72,-12,0,0.5398900000145659,1,56
7aoyy6q71yj3mu74fqficwof.,33,4,5,0,60,72,-12,1,0.6049300000304356,0,54
7aoyy6q71yj3mu74fqficwof.,33,5,5,0,60,72,-12,0,2.9445149999810383,1,79
7aoyy6q71yj3mu74fqficwof.,34,1,5,0,40,36,4,1,1.170644999947399,1,40
7aoyy6q71yj3mu74fqficwof.,34,2,5,0,40,36,4,0,0.6538749999599531,0,41
7aoyy6q71yj3mu74fqficwof.,34,3,5,0,40,36,4,1,0.5670999999856576,1,27
7aoyy6q71yj3mu74fqficwof.,34,4,5,0,40,36,4,0,0.7105650000739843,0,51
7aoyy6q71yj3mu74fqficwof.,34,5,5,0,40,36,4,0,1.8661950000096112,0,28
7aoyy6q71yj3mu74fqficwof.,35,1,5,0,60,80,-20,0,0.5943599999882281,1,70
7aoyy6q71yj3mu74fqficwof.,35,2,5,0,60,80,-20,0,0.6029850000049919,1,72
7aoyy6q71yj3mu74fqficwof.,35,3,5,0,60,80,-20,1,0.6237599999876693,0,67
7aoyy6q71yj3mu74fqficwof.,35,4,5,0,60,80,-20,1,0.9887850000523031,0,61
7aoyy6q71yj3mu74fqficwof.,35,5,5,0,60,80,-20,1,1.2468850000295788,0,56
7aoyy6q71yj3mu74fqficwof.,36,1,10,1,40,60,-20,1,0.9217550000175834,0,39
7aoyy6q71yj3mu74fqficwof.,36,2,10,1,40,60,-20,1,0.7239049999043345,0,37
7aoyy6q71yj3mu74fqficwof.,36,3,10,1,40,60,-20,0,0.6248950000153854,1,64
7aoyy6q71yj3mu74fqficwof.,36,4,10,1,40,60,-20,1,0.49944499996490777,0,39
7aoyy6q71yj3mu74fqficwof.,36,5,10,1,40,60,-20,0,2.8158350000157952,1,45
7aoyy6q71yj3mu74fqficwof.,36,6,10,1,40,60,-20,0,0.42137500003445894,1,62
7aoyy6q71yj3mu74fqficwof.,36,7,10,1,40,60,-20,0,0.492545000044629,1,68
7aoyy6q71yj3mu74fqficwof.,36,8,10,1,40,60,-20,0,0.36341500002890825,1,52
7aoyy6q71yj3mu74fqficwof.,36,9,10,1,40,60,-20,0,0.33598500001244247,1,62
7aoyy6q71yj3mu74fqficwof.,36,10,10,1,40,60,-20,0,0.5664399999659508,1,58
7aoyy6q71yj3mu74fqficwof.,37,1,10,0,40,52,-12,0,0.7299750000238419,1,47
7aoyy6q71yj3mu74fqficwof.,37,2,10,0,40,52,-12,1,0.5811700000194833,0,37
7aoyy6q71yj3mu74fqficwof.,37,3,10,0,40,52,-12,1,0.6908949998905882,0,33
7aoyy6q71yj3mu74fqficwof.,37,4,10,0,40,52,-12,0,0.5390350000234321,1,60
7aoyy6q71yj3mu74fqficwof.,37,5,10,0,40,52,-12,0,4.462910000002012,1,42
7aoyy6q71yj3mu74fqficwof.,37,6,10,0,40,52,-12,0,0.43495000002440065,1,40
7aoyy6q71yj3mu74fqficwof.,37,7,10,0,40,52,-12,0,0.1783649999415502,1,67
7aoyy6q71yj3mu74fqficwof.,37,8,10,0,40,52,-12,0,0.18845500005409122,1,60
7aoyy6q71yj3mu74fqficwof.,37,9,10,0,40,52,-12,0,0.18780499999411404,1,45
7aoyy6q71yj3mu74fqficwof.,37,10,10,0,40,52,-12,0,3.3555699998978525,1,46
7aoyy6q71yj3mu74fqficwof.,38,1,10,0,40,20,20,1,1.220629999996163,1,32
7aoyy6q71yj3mu74fqficwof.,38,2,10,0,40,20,20,1,2.9274500000756234,1,33
7aoyy6q71yj3mu74fqficwof.,38,3,10,0,40,20,20,0,0.9322399999946356,0,6
7aoyy6q71yj3mu74fqficwof.,38,4,10,0,40,20,20,0,1.4779599999310449,0,15
7aoyy6q71yj3mu74fqficwof.,38,5,10,0,40,20,20,0,2.502529999939725,0,9
7aoyy6q71yj3mu74fqficwof.,38,6,10,0,40,20,20,1,1.1130050000501797,1,51
7aoyy6q71yj3mu74fqficwof.,38,7,10,0,40,20,20,0,1.9058500000974163,0,27
7aoyy6q71yj3mu74fqficwof.,38,8,10,0,40,20,20,1,0.911835000035353,1,46
7aoyy6q71yj3mu74fqficwof.,38,9,10,0,40,20,20,1,0.7001499999314547,1,39
7aoyy6q71yj3mu74fqficwof.,38,10,10,0,40,20,20,0,1.4411449999315664,0,8
7aoyy6q71yj3mu74fqficwof.,39,1,10,-1,60,30,30,0,1.2012000000104308,0,25
7aoyy6q71yj3mu74fqficwof.,39,2,10,-1,60,30,30,0,1.206705000018701,0,30
7aoyy6q71yj3mu74fqficwof.,39,3,10,-1,60,30,30,0,0.6992799999425188,0,25
7aoyy6q71yj3mu74fqficwof.,39,4,10,-1,60,30,30,1,0.6439199999440461,1,48
7aoyy6q71yj3mu74fqficwof.,39,5,10,-1,60,30,30,0,1.9766099998960271,0,23
7aoyy6q71yj3mu74fqficwof.,39,6,10,-1,60,30,30,0,1.0309849999612197,0,42
7aoyy6q71yj3mu74fqficwof.,39,7,10,-1,60,30,30,1,0.7787649999372661,1,69
7aoyy6q71yj3mu74fqficwof.,39,8,10,-1,60,30,30,1,0.7915149999316782,1,67
7aoyy6q71yj3mu74fqficwof.,39,9,10,-1,60,30,30,1,0.6822999999858439,1,65
7aoyy6q71yj3mu74fqficwof.,39,10,10,-1,60,30,30,1,0.5780350000131875,1,64
7aoyy6q71yj3mu74fqficwof.,40,1,5,1,60,64,-4,1,0.706925000064075,0,56
7aoyy6q71yj3mu74fqficwof.,40,2,5,1,60,64,-4,1,1.1458500000881031,0,55
7aoyy6q71yj3mu74fqficwof.,40,3,5,1,60,64,-4,0,1.3834049999713898,1,61
7aoyy6q71yj3mu74fqficwof.,40,4,5,1,60,64,-4,1,0.9415749999461696,0,69
7aoyy6q71yj3mu74fqficwof.,40,5,5,1,60,64,-4,1,2.0703300000168383,0,53
7aoyy6q71yj3mu74fqficwof.,41,1,5,0,60,30,30,1,4.778775000013411,1,57
7aoyy6q71yj3mu74fqficwof.,41,2,5,0,60,30,30,0,0.9217600000556558,0,25
7aoyy6q71yj3mu74fqficwof.,41,3,5,0,60,30,30,1,0.9981599999591708,1,57
7aoyy6q71yj3mu74fqficwof.,41,4,5,0,60,30,30,0,1.193680000025779,0,14
7aoyy6q71yj3mu74fqficwof.,41,5,5,0,60,30,30,1,1.5123300000559539,1,69
7aoyy6q71yj3mu74fqficwof.,42,1,5,1,60,52,8,1,1.5069350000703707,1,66
7aoyy6q71yj3mu74fqficwof.,42,2,5,1,60,52,8,1,0.5839600000763312,1,73
7aoyy6q71yj3mu74fqficwof.,42,3,5,1,60,52,8,1,0.5476949999574572,1,68
7aoyy6q71yj3mu74fqficwof.,42,4,5,1,60,52,8,0,1.0636249999515712,0,57
7aoyy6q71yj3mu74fqficwof.,42,5,5,1,60,52,8,1,1.2898700000951067,1,49
7aoyy6q71yj3mu74fqficwof.,43,1,5,1,60,68,-8,0,0.9520750000374392,1,56
7aoyy6q71yj3mu74fqficwof.,43,2,5,1,60,68,-8,1,0.7204650000203401,0,59
7aoyy6q71yj3mu74fqficwof.,43,3,5,1,60,68,-8,1,1.0050399999599904,0,67
7aoyy6q71yj3mu74fqficwof.,43,4,5,1,60,68,-8,1,0.8217949999962002,0,63
7aoyy6q71yj3mu74fqficwof.,43,5,5,1,60,68,-8,1,1.1208649999462068,0,60
7aoyy6q71yj3mu74fqficwof.,44,1,10,0,60,80,-20,0,0.9187600000295788,1,75
7aoyy6q71yj3mu74fqficwof.,44,2,10,0,60,80,-20,0,0.7371700000949204,1,87
7aoyy6q71yj3mu74fqficwof.,44,3,10,0,60,80,-20,1,0.632539999904111,0,48
7aoyy6q71yj3mu74fqficwof.,44,4,10,0,60,80,-20,1,1.647785000037402,0,60
7aoyy6q71yj3mu74fqficwof.,44,5,10,0,60,80,-20,0,2.1063699999358505,1,87
7aoyy6q71yj3mu74fqficwof.,44,6,10,0,60,80,-20,1,1.1791649999795482,0,55
7aoyy6q71yj3mu74fqficwof.,44,7,10,0,60,80,-20,0,0.6953000000212342,1,82
7aoyy6q71yj3mu74fqficwof.,44,8,10,0,60,80,-20,0,0.44221999996807426,1,81
7aoyy6q71yj3mu74fqficwof.,44,9,10,0,60,80,-20,0,0.4159300000173971,1,75
7aoyy6q71yj3mu74fqficwof.,44,10,10,0,60,80,-20,0,0.4283999999752268,1,86
7aoyy6q71yj3mu74fqficwof.,45,1,5,1,60,64,-4,0,0.7107799999648705,1,50
7aoyy6q71yj3mu74fqficwof.,45,2,5,1,60,64,-4,1,0.6007449999451637,0,60
7aoyy6q71yj3mu74fqficwof.,45,3,5,1,60,64,-4,1,0.8103200000477955,0,68
7aoyy6q71yj3mu74fqficwof.,45,4,5,1,60,64,-4,1,0.8326400000369176,0,56
7aoyy6q71yj3mu74fqficwof.,45,5,5,1,60,64,-4,1,0.7717150000389665,0,61
7aoyy6q71yj3mu74fqficwof.,46,1,5,0,60,40,20,1,0.7237099999329075,1,63
7aoyy6q71yj3mu74fqficwof.,46,2,5,0,60,40,20,0,1.3969449999276549,0,44
7aoyy6q71yj3mu74fqficwof.,46,3,5,0,60,40,20,1,0.640650000073947,1,67
7aoyy6q71yj3mu74fqficwof.,46,4,5,0,60,40,20,0,1.347675000084564,0,40
7aoyy6q71yj3mu74fqficwof.,46,5,5,0,60,40,20,1,1.1905200000619516,1,59
7aoyy6q71yj3mu74fqficwof.,47,1,10,0,60,40,20,0,0.9354450000682846,0,36
7aoyy6q71yj3mu74fqficwof.,47,2,10,0,60,40,20,0,2.8606500000460073,0,26
7aoyy6q71yj3mu74fqficwof.,47,3,10,0,60,40,20,1,0.7202500000130385,1,60
7aoyy6q71yj3mu74fqficwof.,47,4,10,0,60,40,20,1,1.065995000069961,1,62
7aoyy6q71yj3mu74fqficwof.,47,5,10,0,60,40,20,1,1.5609549999935552,1,59
7aoyy6q71yj3mu74fqficwof.,47,6,10,0,60,40,20,0,0.7336099999956787,0,54
7aoyy6q71yj3mu74fqficwof.,47,7,10,0,60,40,20,0,0.795490000047721,0,32
7aoyy6q71yj3mu74fqficwof.,47,8,10,0,60,40,20,1,1.0772899999283254,1,63
7aoyy6q71yj3mu74fqficwof.,47,9,10,0,60,40,20,1,0.4872149999719113,1,66
7aoyy6q71yj3mu74fqficwof.,47,10,10,0,60,40,20,1,0.4951449999352917,1,58
7aoyy6q71yj3mu74fqficwof.,48,1,10,-1,60,30,30,1,0.6970150000415742,1,57
7aoyy6q71yj3mu74fqficwof.,48,2,10,-1,60,30,30,0,0.6772450000280514,0,46
7aoyy6q71yj3mu74fqficwof.,48,3,10,-1,60,30,30,0,0.8884550000075251,0,29
7aoyy6q71yj3mu74fqficwof.,48,4,10,-1,60,30,30,0,0.7601199999917299,0,21
7aoyy6q71yj3mu74fqficwof.,48,5,10,-1,60,30,30,0,1.890925000072457,0,39
7aoyy6q71yj3mu74fqficwof.,48,6,10,-1,60,30,30,0,0.6001050000777468,0,31
7aoyy6q71yj3mu74fqficwof.,48,7,10,-1,60,30,30,1,0.5478349999757484,1,47
7aoyy6q71yj3mu74fqficwof.,48,8,10,-1,60,30,30,1,0.9813599999761209,1,54
7aoyy6q71yj3mu74fqficwof.,48,9,10,-1,60,30,30,1,0.5198499999241903,1,47
7aoyy6q71yj3mu74fqficwof.,48,10,10,-1,60,30,30,1,0.5387000000337139,1,51
7aoyy6q71yj3mu74fqficwof.,49,1,10,0,60,80,-20,0,0.6242749999510124,1,74
7aoyy6q71yj3mu74fqficwof.,49,2,10,0,60,80,-20,1,0.9150099999969825,0,55
7aoyy6q71yj3mu74fqficwof.,49,3,10,0,60,80,-20,1,1.087679999996908,0,45
7aoyy6q71yj3mu74fqficwof.,49,4,10,0,60,80,-20,0,0.7138349999440834,1,72
7aoyy6q71yj3mu74fqficwof.,49,5,10,0,60,80,-20,0,1.5643700000364333,1,81
7aoyy6q71yj3mu74fqficwof.,49,6,10,0,60,80,-20,0,0.3673899999121204,1,81
7aoyy6q71yj3mu74fqficwof.,49,7,10,0,60,80,-20,1,0.42683500004932284,0,74
7aoyy6q71yj3mu74fqficwof.,49,8,10,0,60,80,-20,0,0.6097300000255927,1,83
7aoyy6q71yj3mu74fqficwof.,49,9,10,0,60,80,-20,1,0.5192249999381602,0,75
7aoyy6q71yj3mu74fqficwof.,49,10,10,0,60,80,-20,0,0.6487150000175461,1,85
7aoyy6q71yj3mu74fqficwof.,50,1,5,0,60,68,-8,0,0.6279449999565259,1,68
7aoyy6q71yj3mu74fqficwof.,50,2,5,0,60,68,-8,0,0.5364050000207499,1,71
7aoyy6q71yj3mu74fqficwof.,50,3,5,0,60,68,-8,1,0.5665850000223145,0,46
7aoyy6q71yj3mu74fqficwof.,50,4,5,0,60,68,-8,1,0.7234150000149384,0,47
7aoyy6q71yj3mu74fqficwof.,50,5,5,0,60,68,-8,0,2.1525799999944866,1,65
7aoyy6q71yj3mu74fqficwof.,51,1,10,0,60,52,8,0,0.703304999973625,0,60
7aoyy6q71yj3mu74fqficwof.,51,2,10,0,60,52,8,0,0.785509999957867,0,54
7aoyy6q71yj3mu74fqficwof.,51,3,10,0,60,52,8,1,0.5986500000581145,1,58
7aoyy6q71yj3mu74fqficwof.,51,4,10,0,60,52,8,1,0.6436400000238791,1,62
7aoyy6q71yj3mu74fqficwof.,51,5,10,0,60,52,8,1,3.2814900000812486,1,58
7aoyy6q71yj3mu74fqficwof.,51,6,10,0,60,52,8,1,0.7824450000189245,1,71
7aoyy6q71yj3mu74fqficwof.,51,7,10,0,60,52,8,0,0.632975000073202,0,55
7aoyy6q71yj3mu74fqficwof.,51,8,10,0,60,52,8,0,0.8186249999562278,0,44
7aoyy6q71yj3mu74fqficwof.,51,9,10,0,60,52,8,1,0.6539099999936298,1,57
7aoyy6q71yj3mu74fqficwof.,51,10,10,0,60,52,8,1,0.5213350000558421,1,53
7aoyy6q71yj3mu74fqficwof.,52,1,5,0,60,64,-4,0,0.5841050000162795,1,67
7aoyy6q71yj3mu74fqficwof.,52,2,5,0,60,64,-4,1,1.7695449999300763,0,59
7aoyy6q71yj3mu74fqficwof.,52,3,5,0,60,64,-4,1,0.6176100000739098,0,53
7aoyy6q71yj3mu74fqficwof.,52,4,5,0,60,64,-4,0,0.5425299999769777,1,64
7aoyy6q71yj3mu74fqficwof.,52,5,5,0,60,64,-4,0,1.9812399999937043,1,58
7aoyy6q71yj3mu74fqficwof.,53,1,10,0,60,72,-12,0,0.7702350000618026,1,80
7aoyy6q71yj3mu74fqficwof.,53,2,10,0,60,72,-12,0,0.5834900001063943,1,74
7aoyy6q71yj3mu74fqficwof.,53,3,10,0,60,72,-12,1,0.4727799999527633,0,59
7aoyy6q71yj3mu74fqficwof.,53,4,10,0,60,72,-12,1,1.0170550000621006,0,67
7aoyy6q71yj3mu74fqficwof.,53,5,10,0,60,72,-12,0,2.1405399999348447,1,92
7aoyy6q71yj3mu74fqficwof.,53,6,10,0,60,72,-12,0,0.46363000001292676,1,70
7aoyy6q71yj3mu74fqficwof.,53,7,10,0,60,72,-12,0,0.4925749999238178,1,80
7aoyy6q71yj3mu74fqficwof.,53,8,10,0,60,72,-12,1,0.551949999993667,0,55
7aoyy6q71yj3mu74fqficwof.,53,9,10,0,60,72,-12,1,0.7910050000064075,0,60
7aoyy6q71yj3mu74fqficwof.,53,10,10,0,60,72,-12,0,0.6098200000124052,1,71
7aoyy6q71yj3mu74fqficwof.,54,1,5,1,40,70,-30,0,0.7134599999990314,1,80
7aoyy6q71yj3mu74fqficwof.,54,2,5,1,40,70,-30,1,0.8711850000545382,0,52
7aoyy6q71yj3mu74fqficwof.,54,3,5,1,40,70,-30,1,0.6316300000762567,0,52
7aoyy6q71yj3mu74fqficwof.,54,4,5,1,40,70,-30,1,0.9399299999931827,0,47
7aoyy6q71yj3mu74fqficwof.,54,5,5,1,40,70,-30,1,1.7175050000660121,0,43
7aoyy6q71yj3mu74fqficwof.,55,1,10,-1,60,72,-12,0,0.7731950000161305,1,77
7aoyy6q71yj3mu74fqficwof.,55,2,10,-1,60,72,-12,0,0.5497099999338388,1,72
7aoyy6q71yj3mu74fqficwof.,55,3,10,-1,60,72,-12,0,0.5834699999541044,1,65
7aoyy6q71yj3mu74fqficwof.,55,4,10,-1,60,72,-12,1,0.7882850000169128,0,57
7aoyy6q71yj3mu74fqficwof.,55,5,10,-1,60,72,-12,0,1.735990000073798,1,57
7aoyy6q71yj3mu74fqficwof.,55,6,10,-1,60,72,-12,0,0.5861250000307336,1,59
7aoyy6q71yj3mu74fqficwof.,55,7,10,-1,60,72,-12,1,0.5721449999837205,0,59
7aoyy6q71yj3mu74fqficwof.,55,8,10,-1,60,72,-12,1,0.5199449999490753,0,60
7aoyy6q71yj3mu74fqficwof.,55,9,10,-1,60,72,-12,0,0.798795000067912,1,63
7aoyy6q71yj3mu74fqficwof.,55,10,10,-1,60,72,-12,0,0.5790299999061972,1,58
7aoyy6q71yj3mu74fqficwof.,56,1,5,0,60,72,-12,1,1.2655449999729171,0,68
7aoyy6q71yj3mu74fqficwof.,56,2,5,0,60,72,-12,0,0.8055150000145659,1,74
7aoyy6q71yj3mu74fqficwof.,56,3,5,0,60,72,-12,1,0.4298799999523908,0,75
7aoyy6q71yj3mu74fqficwof.,56,4,5,0,60,72,-12,0,0.7786100000375882,1,74
7aoyy6q71yj3mu74fqficwof.,56,5,5,0,60,72,-12,0,3.109800000092946,1,65
7aoyy6q71yj3mu74fqficwof.,57,1,10,-1,60,64,-4,1,0.8879999999189749,0,55
7aoyy6q71yj3mu74fqficwof.,57,2,10,-1,60,64,-4,0,0.5537300000432879,1,64
7aoyy6q71yj3mu74fqficwof.,57,3,10,-1,60,64,-4,0,0.6193000000203028,1,67
7aoyy6q71yj3mu74fqficwof.,57,4,10,-1,60,64,-4,0,0.5690099999774247,1,57
7aoyy6q71yj3mu74fqficwof.,57,5,10,-1,60,64,-4,0,2.647690000012517,1,55
7aoyy6q71yj3mu74fqficwof.,57,6,10,-1,60,64,-4,0,0.33797500003129244,1,63
7aoyy6q71yj3mu74fqficwof.,57,7,10,-1,60,64,-4,0,0.34669499995652586,1,61
7aoyy6q71yj3mu74fqficwof.,57,8,10,-1,60,64,-4,1,0.911714999936521,0,63
7aoyy6q71yj3mu74fqficwof.,57,9,10,-1,60,64,-4,1,0.9028300000354648,0,72
7aoyy6q71yj3mu74fqficwof.,57,10,10,-1,60,64,-4,1,0.7707299999892712,0,74
7aoyy6q71yj3mu74fqficwof.,58,1,10,0,60,64,-4,0,0.8352799999993294,1,61
7aoyy6q71yj3mu74fqficwof.,58,2,10,0,60,64,-4,1,0.5147850000066683,0,60
7aoyy6q71yj3mu74fqficwof.,58,3,10,0,60,64,-4,1,0.7261299999663606,0,57
7aoyy6q71yj3mu74fqficwof.,58,4,10,0,60,64,-4,0,0.5710399999516085,1,54
7aoyy6q71yj3mu74fqficwof.,58,5,10,0,60,64,-4,0,3.106774999992922,1,61
7aoyy6q71yj3mu74fqficwof.,58,6,10,0,60,64,-4,0,0.5168500000145286,1,54
7aoyy6q71yj3mu74fqficwof.,58,7,10,0,60,64,-4,0,0.5717849999200553,1,51
7aoyy6q71yj3mu74fqficwof.,58,8,10,0,60,64,-4,1,0.9612500000512227,0,66
7aoyy6q71yj3mu74fqficwof.,58,9,10,0,60,64,-4,1,0.9089549999916926,0,66
7aoyy6q71yj3mu74fqficwof.,58,10,10,0,60,64,-4,1,0.7518350000027567,0,63
7aoyy6q71yj3mu74fqficwof.,59,1,5,-1,40,10,30,0,0.9993950000498444,0,13
7aoyy6q71yj3mu74fqficwof.,59,2,5,-1,40,10,30,0,0.8354650000110269,0,9
7aoyy6q71yj3mu74fqficwof.,59,3,5,-1,40,10,30,1,0.7132050000363961,1,52
7aoyy6q71yj3mu74fqficwof.,59,4,5,-1,40,10,30,0,0.7674900001147762,0,6
7aoyy6q71yj3mu74fqficwof.,59,5,5,-1,40,10,30,1,0.6679849999491125,1,44
7aoyy6q71yj3mu74fqficwof.,60,1,5,1,60,64,-4,0,0.7554000000236556,1,67
7aoyy6q71yj3mu74fqficwof.,60,2,5,1,60,64,-4,1,0.6174049999099225,0,61
7aoyy6q71yj3mu74fqficwof.,60,3,5,1,60,64,-4,1,0.8207750000292435,0,55
7aoyy6q71yj3mu74fqficwof.,60,4,5,1,60,64,-4,1,0.5812999999616295,0,49
7aoyy6q71yj3mu74fqficwof.,60,5,5,1,60,64,-4,1,1.5549900000914931,0,43
7aoyy6q71yj3mu74fqficwof.,61,1,5,1,60,52,8,0,0.7288249999983236,0,69
7aoyy6q71yj3mu74fqficwof.,61,2,5,1,60,52,8,1,0.7819700000109151,1,53
7aoyy6q71yj3mu74fqficwof.,61,3,5,1,60,52,8,1,0.6552900000242516,1,59
7aoyy6q71yj3mu74fqficwof.,61,4,5,1,60,52,8,1,0.561214999994263,1,63
7aoyy6q71yj3mu74fqficwof.,61,5,5,1,60,52,8,1,1.2829950000159442,1,63
7aoyy6q71yj3mu74fqficwof.,62,1,10,-1,60,56,4,0,1.9375749999890104,0,63
7aoyy6q71yj3mu74fqficwof.,62,2,10,-1,60,56,4,1,0.7086750000016764,1,49
7aoyy6q71yj3mu74fqficwof.,62,3,10,-1,60,56,4,0,0.5371350001078099,0,71
7aoyy6q71yj3mu74fqficwof.,62,4,10,-1,60,56,4,0,0.9343299999600276,0,57
7aoyy6q71yj3mu74fqficwof.,62,5,10,-1,60,56,4,0,1.5047100000083447,0,64
7aoyy6q71yj3mu74fqficwof.,62,6,10,-1,60,56,4,0,0.538825000054203,0,48
7aoyy6q71yj3mu74fqficwof.,62,7,10,-1,60,56,4,1,0.5068399999290705,1,46
7aoyy6q71yj3mu74fqficwof.,62,8,10,-1,60,56,4,0,0.5989950000075623,0,54
7aoyy6q71yj3mu74fqficwof.,62,9,10,-1,60,56,4,0,0.5192650000099093,0,66
7aoyy6q71yj3mu74fqficwof.,62,10,10,-1,60,56,4,0,0.44637999997939914,0,49
7aoyy6q71yj3mu74fqficwof.,63,1,5,1,40,32,8,0,0.6960250000702217,0,21
7aoyy6q71yj3mu74fqficwof.,63,2,5,1,40,32,8,1,0.4981400000397116,1,45
7aoyy6q71yj3mu74fqficwof.,63,3,5,1,40,32,8,1,0.6920999999856576,1,47
7aoyy6q71yj3mu74fqficwof.,63,4,5,1,40,32,8,1,0.7574950000271201,1,42
7aoyy6q71yj3mu74fqficwof.,63,5,5,1,40,32,8,1,0.8095249999314547,1,33
7aoyy6q71yj3mu74fqficwof.,64,1,5,1,60,80,-20,0,0.7804350000806153,1,78
7aoyy6q71yj3mu74fqficwof.,64,2,5,1,60,80,-20,1,0.6178950000321493,0,67
7aoyy6q71yj3mu74fqficwof.,64,3,5,1,60,80,-20,1,0.7800949999364093,0,75
7aoyy6q71yj3mu74fqficwof.,64,4,5,1,60,80,-20,1,0.8037949999561533,0,59
7aoyy6q71yj3mu74fqficwof.,64,5,5,1,60,80,-20,1,0.4975649999687448,0,62
7aoyy6q71yj3mu74fqficwof.,65,1,5,0,40,10,30,0,0.7757950000232086,0,18
7aoyy6q71yj3mu74fqficwof.,65,2,5,0,40,10,30,1,0.51147500006482,1,45
7aoyy6q71yj3mu74fqficwof.,65,3,5,0,40,10,30,1,0.5920149999437854,1,46
7aoyy6q71yj3mu74fqficwof.,65,4,5,0,40,10,30,0,1.6074849999276921,0,15
7aoyy6q71yj3mu74fqficwof.,65,5,5,0,40,10,30,1,1.481815000064671,1,34
7aoyy6q71yj3mu74fqficwof.,66,1,10,-1,40,70,-30,0,1.4190999999409541,1,73
7aoyy6q71yj3mu74fqficwof.,66,2,10,-1,40,70,-30,1,0.6011650000000373,0,48
7aoyy6q71yj3mu74fqficwof.,66,3,10,-1,40,70,-30,0,0.391535000060685,1,60
7aoyy6q71yj3mu74fqficwof.,66,4,10,-1,40,70,-30,0,0.6769699999131262,1,70
7aoyy6q71yj3mu74fqficwof.,66,5,10,-1,40,70,-30,0,1.7497349999612197,1,80
7aoyy6q71yj3mu74fqficwof.,66,6,10,-1,40,70,-30,0,0.5327999999281019,1,82
7aoyy6q71yj3mu74fqficwof.,66,7,10,-1,40,70,-30,1,0.4483199999667704,0,45
7aoyy6q71yj3mu74fqficwof.,66,8,10,-1,40,70,-30,0,0.6444449999835342,1,66
7aoyy6q71yj3mu74fqficwof.,66,9,10,-1,40,70,-30,0,0.31041000003460795,1,86
7aoyy6q71yj3mu74fqficwof.,66,10,10,-1,40,70,-30,0,0.33230000000912696,1,80
7aoyy6q71yj3mu74fqficwof.,67,1,10,0,60,72,-12,1,0.931055000051856,0,62
7aoyy6q71yj3mu74fqficwof.,67,2,10,0,60,72,-12,0,0.624320000060834,1,71
7aoyy6q71yj3mu74fqficwof.,67,3,10,0,60,72,-12,1,0.5280849999981001,0,57
7aoyy6q71yj3mu74fqficwof.,67,4,10,0,60,72,-12,0,0.5424949999433011,1,75
7aoyy6q71yj3mu74fqficwof.,67,5,10,0,60,72,-12,0,1.7975350000197068,1,65
7aoyy6q71yj3mu74fqficwof.,67,6,10,0,60,72,-12,0,0.3815399999730289,1,56
7aoyy6q71yj3mu74fqficwof.,67,7,10,0,60,72,-12,1,0.36070999992080033,0,73
7aoyy6q71yj3mu74fqficwof.,67,8,10,0,60,72,-12,1,1.4967699999688193,0,65
7aoyy6q71yj3mu74fqficwof.,67,9,10,0,60,72,-12,0,0.9539850000292063,1,84
7aoyy6q71yj3mu74fqficwof.,67,10,10,0,60,72,-12,0,0.5151949999853969,1,66
7aoyy6q71yj3mu74fqficwof.,68,1,10,-1,40,20,20,0,0.5980699999490753,0,25
7aoyy6q71yj3mu74fqficwof.,68,2,10,-1,40,20,20,0,0.5324849999742582,0,28
7aoyy6q71yj3mu74fqficwof.,68,3,10,-1,40,20,20,1,0.44455499993637204,1,34
7aoyy6q71yj3mu74fqficwof.,68,4,10,-1,40,20,20,0,0.38479499996174127,0,31
7aoyy6q71yj3mu74fqficwof.,68,5,10,-1,40,20,20,0,2.013799999956973,0,15
7aoyy6q71yj3mu74fqficwof.,68,6,10,-1,40,20,20,0,0.26647499995306134,0,6
7aoyy6q71yj3mu74fqficwof.,68,7,10,-1,40,20,20,1,1.0365750000346452,1,39
7aoyy6q71yj3mu74fqficwof.,68,8,10,-1,40,20,20,1,0.5517750000581145,1,37
7aoyy6q71yj3mu74fqficwof.,68,9,10,-1,40,20,20,1,0.7107700000051409,1,40
7aoyy6q71yj3mu74fqficwof.,68,10,10,-1,40,20,20,1,1.478220000048168,1,47
7aoyy6q71yj3mu74fqficwof.,69,1,10,-1,60,80,-20,0,0.746599999954924,1,74
7aoyy6q71yj3mu74fqficwof.,69,2,10,-1,60,80,-20,1,0.5127899999497458,0,67
7aoyy6q71yj3mu74fqficwof.,69,3,10,-1,60,80,-20,0,0.3707299999659881,1,89
7aoyy6q71yj3mu74fqficwof.,69,4,10,-1,60,80,-20,0,0.5622349999612197,1,87
7aoyy6q71yj3mu74fqficwof.,69,5,10,-1,60,80,-20,0,1.28035000001546,1,85
7aoyy6q71yj3mu74fqficwof.,69,6,10,-1,60,80,-20,0,0.38451500004157424,1,77
7aoyy6q71yj3mu74fqficwof.,69,7,10,-1,60,80,-20,1,0.355405000038445,0,54
7aoyy6q71yj3mu74fqficwof.,69,8,10,-1,60,80,-20,0,0.9116399999475107,1,79
7aoyy6q71yj3mu74fqficwof.,69,9,10,-1,60,80,-20,0,0.5977300000376999,1,85
7aoyy6q71yj3mu74fqficwof.,69,10,10,-1,60,80,-20,1,0.4892849999014288,0,57
7aoyy6q71yj3mu74fqficwof.,70,1,10,0,60,90,-30,0,0.5764550000894815,1,91
7aoyy6q71yj3mu74fqficwof.,70,2,10,0,60,90,-30,0,0.49607500003185123,1,97
7aoyy6q71yj3mu74fqficwof.,70,3,10,0,60,90,-30,1,0.44412999995984137,0,69
7aoyy6q71yj3mu74fqficwof.,70,4,10,0,60,90,-30,1,0.808504999964498,0,46
7aoyy6q71yj3mu74fqficwof.,70,5,10,0,60,90,-30,1,1.7443800000473857,0,67
7aoyy6q71yj3mu74fqficwof.,70,6,10,0,60,90,-30,1,0.67484999995213,0,45
7aoyy6q71yj3mu74fqficwof.,70,7,10,0,60,90,-30,0,0.8457600000547245,1,88
7aoyy6q71yj3mu74fqficwof.,70,8,10,0,60,90,-30,0,1.8559449999593198,1,83
7aoyy6q71yj3mu74fqficwof.,70,9,10,0,60,90,-30,0,0.4951650000875816,1,82
7aoyy6q71yj3mu74fqficwof.,70,10,10,0,60,90,-30,0,0.304050000035204,1,95
7aoyy6q71yj3mu74fqficwof.,71,1,5,0,60,64,-4,0,0.7436100000049919,1,73
7aoyy6q71yj3mu74fqficwof.,71,2,5,0,60,64,-4,1,2.0837600000668317,0,61
7aoyy6q71yj3mu74fqficwof.,71,3,5,0,60,64,-4,1,0.7457200000062585,0,61
7aoyy6q71yj3mu74fqficwof.,71,4,5,0,60,64,-4,0,0.8121149999788031,1,52
7aoyy6q71yj3mu74fqficwof.,71,5,5,0,60,64,-4,1,2.552735000033863,0,53
7aoyy6q71yj3mu74fqficwof.,72,1,10,1,40,20,20,1,0.6563399999868125,1,35
7aoyy6q71yj3mu74fqficwof.,72,2,10,1,40,20,20,1,0.9715249999426305,1,35
7aoyy6q71yj3mu74fqficwof.,72,3,10,1,40,20,20,0,0.4886699999915436,0,18
7aoyy6q71yj3mu74fqficwof.,72,4,10,1,40,20,20,1,0.44773500005248934,1,31
7aoyy6q71yj3mu74fqficwof.,72,5,10,1,40,20,20,1,2.001689999946393,1,41
7aoyy6q71yj3mu74fqficwof.,72,6,10,1,40,20,20,0,0.8415950000053272,0,15
7aoyy6q71yj3mu74fqficwof.,72,7,10,1,40,20,20,1,0.6917799999937415,1,39
7aoyy6q71yj3mu74fqficwof.,72,8,10,1,40,20,20,1,0.7606199999572709,1,39
7aoyy6q71yj3mu74fqficwof.,72,9,10,1,40,20,20,1,0.39847500005271286,1,39
7aoyy6q71yj3mu74fqficwof.,72,10,10,1,40,20,20,1,0.4693949999054894,1,57
7aoyy6q71yj3mu74fqficwof.,73,1,5,0,40,36,4,1,0.56050999998115,1,59
7aoyy6q71yj3mu74fqficwof.,73,2,5,0,40,36,4,1,0.6511900000041351,1,48
7aoyy6q71yj3mu74fqficwof.,73,3,5,0,40,36,4,0,0.5664999999571592,0,40
7aoyy6q71yj3mu74fqficwof.,73,4,5,0,40,36,4,0,0.6235299999825656,0,26
7aoyy6q71yj3mu74fqficwof.,73,5,5,0,40,36,4,1,1.8697749999118969,1,54
7aoyy6q71yj3mu74fqficwof.,74,1,5,-1,40,60,-20,1,0.5765599999576807,0,54
7aoyy6q71yj3mu74fqficwof.,74,2,5,-1,40,60,-20,0,0.42660999996587634,1,44
7aoyy6q71yj3mu74fqficwof.,74,3,5,-1,40,60,-20,0,0.6760999999241903,1,59
7aoyy6q71yj3mu74fqficwof.,74,4,5,-1,40,60,-20,0,0.6648849999764934,1,63
7aoyy6q71yj3mu74fqficwof.,74,5,5,-1,40,60,-20,0,2.9271100000478327,1,74
7aoyy6q71yj3mu74fqficwof.,75,1,5,0,40,52,-12,0,0.5659799999557436,1,42
7aoyy6q71yj3mu74fqficwof.,75,2,5,0,40,52,-12,1,0.49159500002861023,0,31
7aoyy6q71yj3mu74fqficwof.,75,3,5,0,40,52,-12,0,0.34583000000566244,1,53
7aoyy6q71yj3mu74fqficwof.,75,4,5,0,40,52,-12,1,0.44797999993897974,0,39
7aoyy6q71yj3mu74fqficwof.,75,5,5,0,40,52,-12,0,2.0906199999153614,1,56
7aoyy6q71yj3mu74fqficwof.,76,1,10,0,40,32,8,0,0.6447600000537932,0,34
7aoyy6q71yj3mu74fqficwof.,76,2,10,0,40,32,8,1,0.5043999999761581,1,30
7aoyy6q71yj3mu74fqficwof.,76,3,10,0,40,32,8,0,0.4217149999458343,0,46
7aoyy6q71yj3mu74fqficwof.,76,4,10,0,40,32,8,1,0.39922999998088926,1,44
7aoyy6q71yj3mu74fqficwof.,76,5,10,0,40,32,8,0,3.2195999999530613,0,26
7aoyy6q71yj3mu74fqficwof.,76,6,10,0,40,32,8,0,0.9516600000206381,0,37
7aoyy6q71yj3mu74fqficwof.,76,7,10,0,40,32,8,1,0.5942400000058115,1,41
7aoyy6q71yj3mu74fqficwof.,76,8,10,0,40,32,8,1,0.8196300000417978,1,30
7aoyy6q71yj3mu74fqficwof.,76,9,10,0,40,32,8,0,2.280064999940805,0,31
7aoyy6q71yj3mu74fqficwof.,76,10,10,0,40,32,8,0,0.901795000070706,0,35
7aoyy6q71yj3mu74fqficwof.,77,1,5,0,40,32,8,0,0.7487699999473989,0,30
7aoyy6q71yj3mu74fqficwof.,77,2,5,0,40,32,8,1,0.5368100000778213,1,38
7aoyy6q71yj3mu74fqficwof.,77,3,5,0,40,32,8,1,1.409114999929443,1,38
7aoyy6q71yj3mu74fqficwof.,77,4,5,0,40,32,8,0,0.47724500007461756,0,41
7aoyy6q71yj3mu74fqficwof.,77,5,5,0,40,32,8,1,3.1949050000403076,1,28
7aoyy6q71yj3mu74fqficwof.,78,1,10,1,40,20,20,1,0.8020300000207499,1,50
7aoyy6q71yj3mu74fqficwof.,78,2,10,1,40,20,20,1,0.5339899999089539,1,44
7aoyy6q71yj3mu74fqficwof.,78,3,10,1,40,20,20,1,0.6105299999471754,1,26
7aoyy6q71yj3mu74fqficwof.,78,4,10,1,40,20,20,0,0.6270650000078604,0,31
7aoyy6q71yj3mu74fqficwof.,78,5,10,1,40,20,20,1,3.0687550000147894,1,39
7aoyy6q71yj3mu74fqficwof.,78,6,10,1,40,20,20,0,1.0313949999399483,0,22
7aoyy6q71yj3mu74fqficwof.,78,7,10,1,40,20,20,1,0.6579149999888614,1,46
7aoyy6q71yj3mu74fqficwof.,78,8,10,1,40,20,20,1,0.4881250000325963,1,25
7aoyy6q71yj3mu74fqficwof.,78,9,10,1,40,20,20,1,0.6105099999113008,1,36
7aoyy6q71yj3mu74fqficwof.,78,10,10,1,40,20,20,1,0.3563600000925362,1,39
7aoyy6q71yj3mu74fqficwof.,79,1,5,0,60,30,30,0,0.6272549999412149,0,27
7aoyy6q71yj3mu74fqficwof.,79,2,5,0,60,30,30,1,0.46008999994955957,1,62
7aoyy6q71yj3mu74fqficwof.,79,3,5,0,60,30,30,1,2.590040000039153,1,64
7aoyy6q71yj3mu74fqficwof.,79,4,5,0,60,30,30,0,0.4732549999607727,0,34
7aoyy6q71yj3mu74fqficwof.,79,5,5,0,60,30,30,1,0.8796149999834597,1,64
7aoyy6q71yj3mu74fqficwof.,80,1,10,-1,60,90,-30,0,0.5672600000398234,1,95
7aoyy6q71yj3mu74fqficwof.,80,2,10,-1,60,90,-30,1,0.4485550000099465,0,54
7aoyy6q71yj3mu74fqficwof.,80,3,10,-1,60,90,-30,0,0.562379999901168,1,96
7aoyy6q71yj3mu74fqficwof.,80,4,10,-1,60,90,-30,0,0.6202549999579787,1,83
7aoyy6q71yj3mu74fqficwof.,80,5,10,-1,60,90,-30,0,1.8907049999106675,1,98
7aoyy6q71yj3mu74fqficwof.,80,6,10,-1,60,90,-30,0,0.47879500000271946,1,93
7aoyy6q71yj3mu74fqficwof.,80,7,10,-1,60,90,-30,0,0.20324499998241663,1,90
7aoyy6q71yj3mu74fqficwof.,80,8,10,-1,60,90,-30,0,0.2089700000360608,1,99
7aoyy6q71yj3mu74fqficwof.,80,9,10,-1,60,90,-30,0,0.24271000002045184,1,87
7aoyy6q71yj3mu74fqficwof.,80,10,10,-1,60,90,-30,0,0.5714800000423566,1,83
7mpqttxqgvu5x3fm5zm0y6lc.,1,1,5,0,40,20,20,0,2.0708200000226498,0,18
7mpqttxqgvu5x3fm5zm0y6lc.,1,2,5,0,40,20,20,1,0.7837499999441206,1,32
7mpqttxqgvu5x3fm5zm0y6lc.,1,3,5,0,40,20,20,1,1.040030000032857,1,46
7mpqttxqgvu5x3fm5zm0y6lc.,1,4,5,0,40,20,20,0,2.3520700000226498,0,26
7mpqttxqgvu5x3fm5zm0y6lc.,1,5,5,0,40,20,20,1,1.5997499999357387,1,40
7mpqttxqgvu5x3fm5zm0y6lc.,2,1,10,0,60,64,-4,1,0.7525999998906627,0,81
7mpqttxqgvu5x3fm5zm0y6lc.,2,2,10,0,60,64,-4,0,0.511960000032559,1,65
7mpqttxqgvu5x3fm5zm0y6lc.,2,3,10,0,60,64,-4,0,0.6239500000374392,1,63
7mpqttxqgvu5x3fm5zm0y6lc.,2,4,10,0,60,64,-4,1,1.1038399999961257,0,61
7mpqttxqgvu5x3fm5zm0y6lc.,2,5,10,0,60,64,-4,1,1.904065000009723,0,66
7mpqttxqgvu5x3fm5zm0y6lc.,2,6,10,0,60,64,-4,1,0.8970149999950081,0,53
7mpqttxqgvu5x3fm5zm0y6lc.,2,7,10,0,60,64,-4,0,0.8788199999835342,1,61
7mpqttxqgvu5x3fm5zm0y6lc.,2,8,10,0,60,64,-4,0,1.6325300000607967,1,58
7mpqttxqgvu5x3fm5zm0y6lc.,2,9,10,0,60,64,-4,1,0.7353499999735504,0,64
7mpqttxqgvu5x3fm5zm0y6lc.,2,10,10,0,60,64,-4,1,0.5438950000097975,0,59
7mpqttxqgvu5x3fm5zm0y6lc.,3,1,5,-1,40,52,-12,1,0.8484100000932813,0,41
7mpqttxqgvu5x3fm5zm0y6lc.,3,2,5,-1,40,52,-12,0,0.8159450000384822,1,70
7mpqttxqgvu5x3fm5zm0y6lc.,3,3,5,-1,40,52,-12,0,0.5121199999703094,1,52
7mpqttxqgvu5x3fm5zm0y6lc.,3,4,5,-1,40,52,-12,0,1.4397099999478087,1,63
7mpqttxqgvu5x3fm5zm0y6lc.,3,5,5,-1,40,52,-12,0,2.575994999962859,1,56
7mpqttxqgvu5x3fm5zm0y6lc.,4,1,10,0,60,80,-20,1,0.7049649999244139,0,63
7mpqttxqgvu5x3fm5zm0y6lc.,4,2,10,0,60,80,-20,0,0.4956200000597164,1,70
7mpqttxqgvu5x3fm5zm0y6lc.,4,3,10,0,60,80,-20,0,0.4639949999982491,1,84
7mpqttxqgvu5x3fm5zm0y6lc.,4,4,10,0,60,80,-20,1,0.8479349999688566,0,54
7mpqttxqgvu5x3fm5zm0y6lc.,4,5,10,0,60,80,-20,0,0.9279300000052899,1,65
7mpqttxqgvu5x3fm5zm0y6lc.,4,6,10,0,60,80,-20,0,0.7038950000423938,1,64
7mpqttxqgvu5x3fm5zm0y6lc.,4,7,10,0,60,80,-20,0,0.46392999996896833,1,98
7mpqttxqgvu5x3fm5zm0y6lc.,4,8,10,0,60,80,-20,0,0.7839799999492243,1,89
7mpqttxqgvu5x3fm5zm0y6lc.,4,9,10,0,60,80,-20,0,0.49591000005602837,1,80
7mpqttxqgvu5x3fm5zm0y6lc.,4,10,10,0,60,80,-20,0,0.46390500001143664,1,99
7mpqttxqgvu5x3fm5zm0y6lc.,5,1,5,0,60,52,8,0,0.6401649999897927,0,57
7mpqttxqgvu5x3fm5zm0y6lc.,5,2,5,0,60,52,8,1,0.4160149999661371,1,83
7mpqttxqgvu5x3fm5zm0y6lc.,5,3,5,0,60,52,8,1,0.5760099999606609,1,57
7mpqttxqgvu5x3fm5zm0y6lc.,5,4,5,0,60,52,8,0,1.344160000095144,0,64
7mpqttxqgvu5x3fm5zm0y6lc.,5,5,5,0,60,52,8,1,2.5757100000046194,1,46
7mpqttxqgvu5x3fm5zm0y6lc.,6,1,5,1,60,72,-12,1,0.5597199999028817,0,58
7mpqttxqgvu5x3fm5zm0y6lc.,6,2,5,1,60,72,-12,0,0.5279050000244752,1,76
7mpqttxqgvu5x3fm5zm0y6lc.,6,3,5,1,60,72,-12,1,0.8798849999438971,0,55
7mpqttxqgvu5x3fm5zm0y6lc.,6,4,5,1,60,72,-12,1,0.7200399999273941,0,42
7mpqttxqgvu5x3fm5zm0y6lc.,6,5,5,1,60,72,-12,0,1.8719549999805167,1,70
7mpqttxqgvu5x3fm5zm0y6lc.,7,1,5,-1,40,36,4,0,0.5295899999327958,0,32
7mpqttxqgvu5x3fm5zm0y6lc.,7,2,5,-1,40,36,4,1,0.4475999999558553,1,38
7mpqttxqgvu5x3fm5zm0y6lc.,7,3,5,-1,40,36,4,0,0.5920600000536069,0,28
7mpqttxqgvu5x3fm5zm0y6lc.,7,4,5,-1,40,36,4,0,0.8319299999857321,0,30
7mpqttxqgvu5x3fm5zm0y6lc.,7,5,5,-1,40,36,4,1,2.239949999959208,1,41
7mpqttxqgvu5x3fm5zm0y6lc.,8,1,10,-1,60,72,-12,0,0.897315000067465,1,61
7mpqttxqgvu5x3fm5zm0y6lc.,8,2,10,-1,60,72,-12,0,0.5117000000318512,1,77
7mpqttxqgvu5x3fm5zm0y6lc.,8,3,10,-1,60,72,-12,1,0.7839600000297651,0,61
7mpqttxqgvu5x3fm5zm0y6lc.,8,4,10,-1,60,72,-12,0,0.5600150000536814,1,61
7mpqttxqgvu5x3fm5zm0y6lc.,8,5,10,-1,60,72,-12,1,2.1922199999680743,0,64
7mpqttxqgvu5x3fm5zm0y6lc.,8,6,10,-1,60,72,-12,1,1.6316949999891222,0,61
7mpqttxqgvu5x3fm5zm0y6lc.,8,7,10,-1,60,72,-12,0,0.4478349999990314,1,74
7mpqttxqgvu5x3fm5zm0y6lc.,8,8,10,-1,60,72,-12,0,0.5280400000046939,1,75
7mpqttxqgvu5x3fm5zm0y6lc.,8,9,10,-1,60,72,-12,0,0.47986500000115484,1,72
7mpqttxqgvu5x3fm5zm0y6lc.,8,10,10,-1,60,72,-12,0,0.41604999999981374,1,72
7mpqttxqgvu5x3fm5zm0y6lc.,9,1,5,0,40,44,-4,1,0.9287649999605492,0,44
7mpqttxqgvu5x3fm5zm0y6lc.,9,2,5,0,40,44,-4,0,0.6718350000446662,1,57
7mpqttxqgvu5x3fm5zm0y6lc.,9,3,5,0,40,44,-4,1,0.6880550000350922,0,41
7mpqttxqgvu5x3fm5zm0y6lc.,9,4,5,0,40,44,-4,0,1.5198899999959394,1,44
7mpqttxqgvu5x3fm5zm0y6lc.,9,5,5,0,40,44,-4,0,1.151949999970384,1,45
7mpqttxqgvu5x3fm5zm0y6lc.,10,1,5,-1,40,32,8,1,0.5764849999686703,1,39
7mpqttxqgvu5x3fm5zm0y6lc.,10,2,5,-1,40,32,8,0,0.4797199999447912,0,36
7mpqttxqgvu5x3fm5zm0y6lc.,10,3,5,-1,40,32,8,0,0.559899999992922,0,33
7mpqttxqgvu5x3fm5zm0y6lc.,10,4,5,-1,40,32,8,0,0.8959950000280514,0,41
7mpqttxqgvu5x3fm5zm0y6lc.,10,5,5,-1,40,32,8,0,2.047885000007227,0,22
7mpqttxqgvu5x3fm5zm0y6lc.,11,1,5,0,60,48,12,0,0.5600850000046194,0,47
7mpqttxqgvu5x3fm5zm0y6lc.,11,2,5,0,60,48,12,0,0.4959399999352172,0,59
7mpqttxqgvu5x3fm5zm0y6lc.,11,3,5,0,60,48,12,1,0.6879600000102073,1,68
7mpqttxqgvu5x3fm5zm0y6lc.,11,4,5,0,60,48,12,1,1.007924999925308,1,57
7mpqttxqgvu5x3fm5zm0y6lc.,11,5,5,0,60,48,12,1,1.5361849999753758,1,61
7mpqttxqgvu5x3fm5zm0y6lc.,12,1,5,-1,60,52,8,0,0.5639499999815598,0,46
7mpqttxqgvu5x3fm5zm0y6lc.,12,2,5,-1,60,52,8,0,0.44743500009644777,0,57
7mpqttxqgvu5x3fm5zm0y6lc.,12,3,5,-1,60,52,8,1,0.5282400000141934,1,52
7mpqttxqgvu5x3fm5zm0y6lc.,12,4,5,-1,60,52,8,0,0.5277299999725074,0,72
7mpqttxqgvu5x3fm5zm0y6lc.,12,5,5,-1,60,52,8,0,1.2323649999452755,0,51
7mpqttxqgvu5x3fm5zm0y6lc.,13,1,5,-1,60,68,-8,0,0.577350000035949,1,53
7mpqttxqgvu5x3fm5zm0y6lc.,13,2,5,-1,60,68,-8,0,0.4476649999851361,1,65
7mpqttxqgvu5x3fm5zm0y6lc.,13,3,5,-1,60,68,-8,1,0.6561450000153854,0,39
7mpqttxqgvu5x3fm5zm0y6lc.,13,4,5,-1,60,68,-8,0,0.5599099999526516,1,76
7mpqttxqgvu5x3fm5zm0y6lc.,13,5,5,-1,60,68,-8,0,1.1997850000625476,1,67
7mpqttxqgvu5x3fm5zm0y6lc.,14,1,5,0,40,20,20,0,0.496820000000298,0,8
7mpqttxqgvu5x3fm5zm0y6lc.,14,2,5,0,40,20,20,0,0.480174999916926,0,25
7mpqttxqgvu5x3fm5zm0y6lc.,14,3,5,0,40,20,20,1,0.719745000009425,1,30
7mpqttxqgvu5x3fm5zm0y6lc.,14,4,5,0,40,20,20,1,0.5920000000623986,1,42
7mpqttxqgvu5x3fm5zm0y6lc.,14,5,5,0,40,20,20,1,1.7918099999660626,1,42
7mpqttxqgvu5x3fm5zm0y6lc.,15,1,5,0,60,52,8,0,0.5765299999620765,0,47
7mpqttxqgvu5x3fm5zm0y6lc.,15,2,5,0,60,52,8,0,0.4480100000509992,0,65
7mpqttxqgvu5x3fm5zm0y6lc.,15,3,5,0,60,52,8,1,0.7680000000400469,1,69
7mpqttxqgvu5x3fm5zm0y6lc.,15,4,5,0,60,52,8,1,0.5119249999988824,1,53
7mpqttxqgvu5x3fm5zm0y6lc.,15,5,5,0,60,52,8,1,3.8402599999681115,1,48
7mpqttxqgvu5x3fm5zm0y6lc.,16,1,5,0,60,56,4,1,0.46476999996230006,1,55
7mpqttxqgvu5x3fm5zm0y6lc.,16,2,5,0,60,56,4,0,0.47995500010438263,0,59
7mpqttxqgvu5x3fm5zm0y6lc.,16,3,5,0,60,56,4,0,0.46386999997776,0,42
7mpqttxqgvu5x3fm5zm0y6lc.,16,4,5,0,60,56,4,1,0.527985000051558,1,66
7mpqttxqgvu5x3fm5zm0y6lc.,16,5,5,0,60,56,4,1,2.112099999911152,1,66
7mpqttxqgvu5x3fm5zm0y6lc.,17,1,5,-1,60,64,-4,0,0.5764150000177324,1,63
7mpqttxqgvu5x3fm5zm0y6lc.,17,2,5,-1,60,64,-4,0,0.4160200000042096,1,64
7mpqttxqgvu5x3fm5zm0y6lc.,17,3,5,-1,60,64,-4,1,0.5919050000375137,0,69
7mpqttxqgvu5x3fm5zm0y6lc.,17,4,5,-1,60,64,-4,0,0.5438850000500679,1,79
7mpqttxqgvu5x3fm5zm0y6lc.,17,5,5,-1,60,64,-4,0,3.6317699999781325,1,71
7mpqttxqgvu5x3fm5zm0y6lc.,18,1,5,0,60,56,4,1,0.528165000025183,1,54
7mpqttxqgvu5x3fm5zm0y6lc.,18,2,5,0,60,56,4,1,0.4634500000393018,1,65
7mpqttxqgvu5x3fm5zm0y6lc.,18,3,5,0,60,56,4,0,0.5758599999826401,0,53
7mpqttxqgvu5x3fm5zm0y6lc.,18,4,5,0,60,56,4,0,0.44830499996896833,0,51
7mpqttxqgvu5x3fm5zm0y6lc.,18,5,5,0,60,56,4,1,1.9678599999751896,1,68
7mpqttxqgvu5x3fm5zm0y6lc.,19,1,5,0,40,48,-8,0,0.9287649999605492,1,43
7mpqttxqgvu5x3fm5zm0y6lc.,19,2,5,0,40,48,-8,0,0.383960000006482,1,63
7mpqttxqgvu5x3fm5zm0y6lc.,19,3,5,0,40,48,-8,1,0.9435250000096858,0,35
7mpqttxqgvu5x3fm5zm0y6lc.,19,4,5,0,40,48,-8,1,0.7845700000179932,0,41
7mpqttxqgvu5x3fm5zm0y6lc.,19,5,5,0,40,48,-8,0,0.7677600000752136,1,49
7mpqttxqgvu5x3fm5zm0y6lc.,20,1,10,-1,60,68,-8,0,0.5443299999460578,1,78
7mpqttxqgvu5x3fm5zm0y6lc.,20,2,10,-1,60,68,-8,0,0.41590999998152256,1,54
7mpqttxqgvu5x3fm5zm0y6lc.,20,3,10,-1,60,68,-8,0,0.4160700000356883,1,68
7mpqttxqgvu5x3fm5zm0y6lc.,20,4,10,-1,60,68,-8,1,0.7359850000357255,0,51
7mpqttxqgvu5x3fm5zm0y6lc.,20,5,10,-1,60,68,-8,0,3.039839999983087,1,49
7mpqttxqgvu5x3fm5zm0y6lc.,20,6,10,-1,60,68,-8,0,0.5118800000054762,1,65
7mpqttxqgvu5x3fm5zm0y6lc.,20,7,10,-1,60,68,-8,0,0.5919599999906495,1,72
7mpqttxqgvu5x3fm5zm0y6lc.,20,8,10,-1,60,68,-8,0,0.46401500003412366,1,76
7mpqttxqgvu5x3fm5zm0y6lc.,20,9,10,-1,60,68,-8,0,0.43189500004518777,1,62
7mpqttxqgvu5x3fm5zm0y6lc.,20,10,10,-1,60,68,-8,0,0.38399500004015863,1,78
7mpqttxqgvu5x3fm5zm0y6lc.,21,1,10,0,40,10,30,0,0.49682999996002764,0,9
7mpqttxqgvu5x3fm5zm0y6lc.,21,2,10,0,40,10,30,1,0.4797349999425933,1,33
7mpqttxqgvu5x3fm5zm0y6lc.,21,3,10,0,40,10,30,0,0.8957749999826774,0,11
7mpqttxqgvu5x3fm5zm0y6lc.,21,4,10,0,40,10,30,1,0.735964999999851,1,17
7mpqttxqgvu5x3fm5zm0y6lc.,21,5,10,0,40,10,30,0,1.8881050000200048,0,9
7mpqttxqgvu5x3fm5zm0y6lc.,21,6,10,0,40,10,30,1,0.4158600000664592,1,30
7mpqttxqgvu5x3fm5zm0y6lc.,21,7,10,0,40,10,30,1,0.38390500005334616,1,45
7mpqttxqgvu5x3fm5zm0y6lc.,21,8,10,0,40,10,30,1,0.2571699999971315,1,36
7mpqttxqgvu5x3fm5zm0y6lc.,21,9,10,0,40,10,30,1,0.3026949999621138,1,32
7mpqttxqgvu5x3fm5zm0y6lc.,21,10,10,0,40,10,30,1,0.2720550000667572,1,39
7mpqttxqgvu5x3fm5zm0y6lc.,22,1,10,0,60,30,30,1,0.7205800000810996,1,67
7mpqttxqgvu5x3fm5zm0y6lc.,22,2,10,0,60,30,30,0,0.4637750000692904,0,17
7mpqttxqgvu5x3fm5zm0y6lc.,22,3,10,0,60,30,30,0,0.544859999907203,0,20
7mpqttxqgvu5x3fm5zm0y6lc.,22,4,10,0,60,30,30,1,0.7191400000592694,1,61
7mpqttxqgvu5x3fm5zm0y6lc.,22,5,10,0,60,30,30,1,1.69625499995891,1,63
7mpqttxqgvu5x3fm5zm0y6lc.,22,6,10,0,60,30,30,1,0.36766999994870275,1,49
7mpqttxqgvu5x3fm5zm0y6lc.,22,7,10,0,60,30,30,1,0.4476049999939278,1,56
7mpqttxqgvu5x3fm5zm0y6lc.,22,8,10,0,60,30,30,1,0.25621500005945563,1,59
7mpqttxqgvu5x3fm5zm0y6lc.,22,9,10,0,60,30,30,1,0.3201099999714643,1,56
7mpqttxqgvu5x3fm5zm0y6lc.,22,10,10,0,60,30,30,1,0.35191000008489937,1,68
7mpqttxqgvu5x3fm5zm0y6lc.,23,1,5,0,40,28,12,1,0.689079999923706,1,23
7mpqttxqgvu5x3fm5zm0y6lc.,23,2,5,0,40,28,12,0,0.367824999964796,0,31
7mpqttxqgvu5x3fm5zm0y6lc.,23,3,5,0,40,28,12,1,0.6719949999824166,1,34
7mpqttxqgvu5x3fm5zm0y6lc.,23,4,5,0,40,28,12,0,0.5280199999688193,0,27
7mpqttxqgvu5x3fm5zm0y6lc.,23,5,5,0,40,28,12,1,4.608159999945201,1,36
7mpqttxqgvu5x3fm5zm0y6lc.,24,1,5,1,60,48,12,1,0.543680000002496,1,66
7mpqttxqgvu5x3fm5zm0y6lc.,24,2,5,1,60,48,12,1,0.47979999997187406,1,50
7mpqttxqgvu5x3fm5zm0y6lc.,24,3,5,1,60,48,12,0,0.7200149999698624,0,54
7mpqttxqgvu5x3fm5zm0y6lc.,24,4,5,1,60,48,12,1,0.8480250000720844,1,45
7mpqttxqgvu5x3fm5zm0y6lc.,24,5,5,1,60,48,12,1,0.9597250000806525,1,61
7mpqttxqgvu5x3fm5zm0y6lc.,25,1,10,0,40,70,-30,0,0.5763949999818578,1,75
7mpqttxqgvu5x3fm5zm0y6lc.,25,2,10,0,40,70,-30,1,0.4478499999968335,0,46
7mpqttxqgvu5x3fm5zm0y6lc.,25,3,10,0,40,70,-30,1,0.4481999999843538,0,45
7mpqttxqgvu5x3fm5zm0y6lc.,25,4,10,0,40,70,-30,0,0.47980999993160367,1,57
7mpqttxqgvu5x3fm5zm0y6lc.,25,5,10,0,40,70,-30,0,2.433034999994561,1,67
7mpqttxqgvu5x3fm5zm0y6lc.,25,6,10,0,40,70,-30,0,0.4148849999764934,1,60
7mpqttxqgvu5x3fm5zm0y6lc.,25,7,10,0,40,70,-30,0,0.20776000001933426,1,62
7mpqttxqgvu5x3fm5zm0y6lc.,25,8,10,0,40,70,-30,0,0.19201500003691763,1,78
7mpqttxqgvu5x3fm5zm0y6lc.,25,9,10,0,40,70,-30,0,0.28806000004988164,1,80
7mpqttxqgvu5x3fm5zm0y6lc.,25,10,10,0,40,70,-30,0,0.31990500004030764,1,62
7mpqttxqgvu5x3fm5zm0y6lc.,26,1,10,0,60,48,12,1,0.6565899999113753,1,78
7mpqttxqgvu5x3fm5zm0y6lc.,26,2,10,0,60,48,12,0,0.46398000000044703,0,57
7mpqttxqgvu5x3fm5zm0y6lc.,26,3,10,0,60,48,12,1,0.5605900000082329,1,48
7mpqttxqgvu5x3fm5zm0y6lc.,26,4,10,0,60,48,12,0,0.4792249999009073,0,55
7mpqttxqgvu5x3fm5zm0y6lc.,26,5,10,0,60,48,12,1,1.3440150000387803,1,55
7mpqttxqgvu5x3fm5zm0y6lc.,26,6,10,0,60,48,12,1,0.864034999976866,1,66
7mpqttxqgvu5x3fm5zm0y6lc.,26,7,10,0,60,48,12,1,0.4159549999749288,1,61
7mpqttxqgvu5x3fm5zm0y6lc.,26,8,10,0,60,48,12,1,0.35188500001095235,1,53
7mpqttxqgvu5x3fm5zm0y6lc.,26,9,10,0,60,48,12,1,0.30397000000812113,1,56
7mpqttxqgvu5x3fm5zm0y6lc.,26,10,10,0,60,48,12,0,2.14413999998942,0,50
7mpqttxqgvu5x3fm5zm0y6lc.,27,1,5,-1,40,20,20,0,0.5765899999532849,0,16
7mpqttxqgvu5x3fm5zm0y6lc.,27,2,5,-1,40,20,20,1,0.41602500004228204,1,23
7mpqttxqgvu5x3fm5zm0y6lc.,27,3,5,-1,40,20,20,0,0.8158899999689311,0,18
7mpqttxqgvu5x3fm5zm0y6lc.,27,4,5,-1,40,20,20,0,1.1358799999579787,0,23
7mpqttxqgvu5x3fm5zm0y6lc.,27,5,5,-1,40,20,20,1,3.167935000034049,1,44
7mpqttxqgvu5x3fm5zm0y6lc.,28,1,10,0,60,64,-4,1,0.7528499999316409,0,64
7mpqttxqgvu5x3fm5zm0y6lc.,28,2,10,0,60,64,-4,0,0.4003149999771267,1,67
7mpqttxqgvu5x3fm5zm0y6lc.,28,3,10,0,60,64,-4,0,0.4315700000151992,1,65
7mpqttxqgvu5x3fm5zm0y6lc.,28,4,10,0,60,64,-4,1,0.4958950000582263,0,67
7mpqttxqgvu5x3fm5zm0y6lc.,28,5,10,0,60,64,-4,1,3.215525000006892,0,44
7mpqttxqgvu5x3fm5zm0y6lc.,28,6,10,0,60,64,-4,0,0.19238000002223998,1,61
7mpqttxqgvu5x3fm5zm0y6lc.,28,7,10,0,60,64,-4,0,0.7519600000232458,1,57
7mpqttxqgvu5x3fm5zm0y6lc.,28,8,10,0,60,64,-4,0,1.1839600000530481,1,72
7mpqttxqgvu5x3fm5zm0y6lc.,28,9,10,0,60,64,-4,0,0.6720049999421462,1,70
7mpqttxqgvu5x3fm5zm0y6lc.,28,10,10,0,60,64,-4,0,0.36781000008340925,1,59
7mpqttxqgvu5x3fm5zm0y6lc.,29,1,10,-1,40,28,12,1,0.6408499999670312,1,36
7mpqttxqgvu5x3fm5zm0y6lc.,29,2,10,-1,40,28,12,0,0.3839250000892207,0,22
7mpqttxqgvu5x3fm5zm0y6lc.,29,3,10,-1,40,28,12,0,0.4482099999440834,0,32
7mpqttxqgvu5x3fm5zm0y6lc.,29,4,10,-1,40,28,12,0,0.8477849999908358,0,23
7mpqttxqgvu5x3fm5zm0y6lc.,29,5,10,-1,40,28,12,1,1.727915000054054,1,45
7mpqttxqgvu5x3fm5zm0y6lc.,29,6,10,-1,40,28,12,0,0.27185000001918525,0,38
7mpqttxqgvu5x3fm5zm0y6lc.,29,7,10,-1,40,28,12,1,0.8799300000537187,1,38
7mpqttxqgvu5x3fm5zm0y6lc.,29,8,10,-1,40,28,12,1,0.27212500001769513,1,49
7mpqttxqgvu5x3fm5zm0y6lc.,29,9,10,-1,40,28,12,1,2.8798850000603124,1,41
7mpqttxqgvu5x3fm5zm0y6lc.,29,10,10,-1,40,28,12,1,0.23976000002585351,1,35
7mpqttxqgvu5x3fm5zm0y6lc.,30,1,10,-1,60,90,-30,1,0.5439699999988079,0,73
7mpqttxqgvu5x3fm5zm0y6lc.,30,2,10,-1,60,90,-30,0,0.2558600000338629,1,97
7mpqttxqgvu5x3fm5zm0y6lc.,30,3,10,-1,60,90,-30,0,0.7362049999646842,1,94
7mpqttxqgvu5x3fm5zm0y6lc.,30,4,10,-1,60,90,-30,0,0.7037150000687689,1,94
7mpqttxqgvu5x3fm5zm0y6lc.,30,5,10,-1,60,90,-30,0,0.9600349999964237,1,93
7mpqttxqgvu5x3fm5zm0y6lc.,30,6,10,-1,60,90,-30,0,0.43193500000052154,1,91
7mpqttxqgvu5x3fm5zm0y6lc.,30,7,10,-1,60,90,-30,0,0.28787999995984137,1,86
7mpqttxqgvu5x3fm5zm0y6lc.,30,8,10,-1,60,90,-30,0,0.17589000007137656,1,95
7mpqttxqgvu5x3fm5zm0y6lc.,30,9,10,-1,60,90,-30,0,0.17611000000033528,1,81
7mpqttxqgvu5x3fm5zm0y6lc.,30,10,10,-1,60,90,-30,0,0.3037849999964237,1,83
7mpqttxqgvu5x3fm5zm0y6lc.,31,1,10,1,40,36,4,1,0.6396350000286475,1,44
7mpqttxqgvu5x3fm5zm0y6lc.,31,2,10,1,40,36,4,0,0.4320499999448657,0,42
7mpqttxqgvu5x3fm5zm0y6lc.,31,3,10,1,40,36,4,1,0.6558449999429286,1,42
7mpqttxqgvu5x3fm5zm0y6lc.,31,4,10,1,40,36,4,1,0.7199900000123307,1,54
7mpqttxqgvu5x3fm5zm0y6lc.,31,5,10,1,40,36,4,1,2.2399799999548122,1,47
7mpqttxqgvu5x3fm5zm0y6lc.,31,6,10,1,40,36,4,0,0.3839000000152737,0,49
