[{"view_history":"[{\"page_index\":0,\"viewing_time\":6114.01000013575}]","rt":6116.650000214577,"trial_type":"instructions","trial_index":0,"time_elapsed":6181,"internal_node_id":"0.0-0.0"},{"item_order":[9,5,12,7,3,2,4,6,1,11,0,8,10],"responses":{"Q10":"0","Q06":"0","Q13":"4","Q08":"2","Q04":"3","Q03":"1","Q05":"1","Q07":"1","Q02":"3","Q12":"0","Q01":"1","Q09":"1","Q11":"3"},"radio_events":[13665.049999952316,16530.689999926835,18046.70499986969,25870.27999991551,29740.969999926165,32815.66999992356,39542.399999918416,45710.07500006817,55270.83499985747,66415.70999985561,70903.59000000171,77719.56499991938,82666.03500000201,87985.10499997064,93552.32000001706],"key_events":[],"mouse_events":[3.289999905973673,13665.049999952316,16530.689999926835,18046.70499986969,25870.27999991551,29740.969999926165,32815.66999992356,39542.399999918416,45710.07500006817,55270.83499985747,66415.70999985561,70903.59000000171,77719.56499991938,82666.03500000201,87985.10499997064,93552.32000001706,99143.97999993525],"rt":99163.1449998822,"survey":"ius12","trial_type":"survey-template","trial_index":1,"time_elapsed":105377,"internal_node_id":"0.0-1.0"},{"item_order":[12,13,11,16,4,7,2,8,14,3,0,9,5,1,10,6,15],"responses":{"Q13":"3","Q14":"2","Q12":"3","Q17":"0","Q05":"2","Q08":"3","Q03":"3","Q09":"1","Q15":"2","Q04":"2","Q01":"1","Q10":"3","Q06":"3","Q02":"0","Q11":"2","Q07":"2","Q16":"3"},"radio_events":[14655.484999995679,19375.400000019,23677.709999959916,30574.99499991536,32618.16000007093,41795.08000006899,50015.30000008643,54151.31999994628,61322.25500000641,66036.7199999746,79451.88000006601,86605.10999988765,91473.96999993362,98156.35999990627,104195.5949999392,110951.46999997087,116110.70000007749,119611.75999999978],"key_events":[],"mouse_events":[14655.484999995679,19375.400000019,23677.709999959916,28970.9950000979,30574.99499991536,32618.16000007093,41795.08000006899,50015.30000008643,54151.31999994628,61322.25500000641,66036.7199999746,79451.88000006601,86605.10999988765,91473.96999993362,98156.35999990627,104195.5949999392,110951.46999997087,116110.70000007749,119611.75999999978,123931.8599998951],"rt":123948.91000003554,"survey":"pswq","trial_type":"survey-template","trial_index":2,"time_elapsed":229378,"internal_node_id":"0.0-2.0"},{"view_history":"[{\"page_index\":0,\"viewing_time\":8598.47000008449},{\"page_index\":1,\"viewing_time\":11178.88499982655},{\"page_index\":2,\"viewing_time\":16870.070000179112},{\"page_index\":3,\"viewing_time\":12200.114999897778},{\"page_index\":4,\"viewing_time\":12717.445000074804},{\"page_index\":5,\"viewing_time\":5912.534999893978},{\"page_index\":6,\"viewing_time\":13280.060000019148},{\"page_index\":7,\"viewing_time\":11918.555000098422},{\"page_index\":8,\"viewing_time\":13418.760000029579},{\"page_index\":9,\"viewing_time\":13177.1899999585}]","rt":119275.73999995366,"trial_type":"instructions","trial_index":3,"time_elapsed":348667,"internal_node_id":"0.0-3.0-0.0"},{"response_times":[29760.33499999903,4703.280000016093,4887.289999984205,1367.8049999289215,6326.920000137761],"keys_pressed":["rightarrow","leftarrow","rightarrow","rightarrow","leftarrow"],"horizon":5,"forced_choices":["rightarrow","leftarrow","rightarrow","rightarrow"],"right_color":"lightblue","left_color":"orange","left_mu":40,"right_mu":20,"left_numbers":[40,35,41,29,22],"right_numbers":[18,26,39,25,17],"points_earned":139,"trial_type":"horizons-task","trial_index":4,"time_elapsed":400420,"internal_node_id":"0.0-3.0-1.0"},{"response_times":[4744.789999909699,4313.425000058487,2093.614999903366,1880.2249999716878,5511.614999966696,5016.339999856427,8263.82500003092,5674.020000034943,4734.720000065863,1967.5999998580664],"keys_pressed":["leftarrow","leftarrow","rightarrow","rightarrow","leftarrow","rightarrow","leftarrow","leftarrow","rightarrow","leftarrow"],"horizon":10,"forced_choices":["leftarrow","leftarrow","rightarrow","rightarrow"],"right_color":"orange","left_color":"lightblue","left_mu":60,"right_mu":70,"left_numbers":[58,47,74,60,60,56,58,57,73,69],"right_numbers":[75,57,68,65,68,97,75,62,68,69],"points_earned":647,"trial_type":"horizons-task","trial_index":5,"time_elapsed":446140,"internal_node_id":"0.0-3.0-2.0"},{"view_history":"[{\"page_index\":0,\"viewing_time\":7534.899999853224},{\"page_index\":1,\"viewing_time\":4417.665000073612},{\"page_index\":2,\"viewing_time\":7980.105000082403},{\"page_index\":3,\"viewing_time\":6081.250000046566}]","rt":26014.985000016168,"trial_type":"instructions","trial_index":6,"time_elapsed":472158,"internal_node_id":"0.0-3.0-3.0"},{"responses":["true","false","false","true"],"num_errors":0,"rt":25436.625000089407,"trial_type":"horizons-comprehension","trial_index":7,"time_elapsed":497610,"internal_node_id":"0.0-3.0-4.0"},{"view_history":"[{\"page_index\":0,\"viewing_time\":5919.740000041202},{\"page_index\":1,\"viewing_time\":15635.000000009313}]","rt":21555.910000111908,"trial_type":"instructions","trial_index":8,"time_elapsed":519179,"internal_node_id":"0.0-4.0"},{"response_times":[4874.855000060052,5008.579999906942,4617.275000084192,4653.660000069067,8640.570000046864,5758.995000040159,4352.319999830797,5465.180000057444,7211.280000163242,1579.8200001008809],"keys_pressed":["leftarrow","rightarrow","leftarrow","rightarrow","leftarrow","leftarrow","rightarrow","rightarrow","leftarrow","leftarrow"],"horizon":10,"forced_choices":["leftarrow","rightarrow","leftarrow","rightarrow"],"right_color":"lightblue","left_color":"orange","left_mu":40,"right_mu":48,"left_numbers":[57,43,32,38,32,42,35,48,50,36],"right_numbers":[39,43,51,51,50,60,56,38,43,53],"points_earned":437,"trial_type":"horizons-task","trial_index":9,"time_elapsed":572867,"internal_node_id":"0.0-5.0"},{"response_times":[5484.895000001416,5458.705000113696,4117.459999863058,4595.8700000774115,5380.929999984801,8968.074999982491,5033.779999939725,6124.855000060052,4359.560000011697,4208.980000112206],"keys_pressed":["leftarrow","leftarrow","rightarrow","rightarrow","leftarrow","rightarrow","leftarrow","rightarrow","rightarrow","leftarrow"],"horizon":10,"forced_choices":["leftarrow","leftarrow","rightarrow","rightarrow"],"right_color":"orange","left_color":"lightblue","left_mu":40,"right_mu":32,"left_numbers":[29,39,41,29,38,42,26,40,38,24],"right_numbers":[36,21,25,28,23,35,33,23,24,33],"points_earned":291,"trial_type":"horizons-task","trial_index":10,"time_elapsed":628107,"internal_node_id":"0.0-6.0"},{"response_times":[4776.659999974072,3819.9450001120567,1778.0999999959022,4645.964999916032,6128.984999842942,5079.635000089183,4086.729999864474,6264.719999860972,5503.560000099242,4619.524999987334],"keys_pressed":["rightarrow","leftarrow","rightarrow","leftarrow","rightarrow","rightarrow","leftarrow","rightarrow","leftarrow","leftarrow"],"horizon":10,"forced_choices":["rightarrow","leftarrow","rightarrow","leftarrow"],"right_color":"orange","left_color":"lightblue","left_mu":40,"right_mu":32,"left_numbers":[41,40,40,35,38,56,44,38,18,20],"right_numbers":[9,38,35,35,19,29,32,37,26,35],"points_earned":286,"trial_type":"horizons-task","trial_index":11,"time_elapsed":676322,"internal_node_id":"0.0-7.0"},{"response_times":[4385.65000006929,4480.515000177547,4665.745000122115,4413.775000022724,3201.1299999430776],"keys_pressed":["rightarrow","leftarrow","rightarrow","rightarrow","leftarrow"],"horizon":5,"forced_choices":["rightarrow","leftarrow","rightarrow","rightarrow"],"right_color":"orange","left_color":"lightblue","left_mu":40,"right_mu":60,"left_numbers":[37,43,27,42,47],"right_numbers":[75,62,59,65,54],"points_earned":289,"trial_type":"horizons-task","trial_index":12,"time_elapsed":698980,"internal_node_id":"0.0-8.0"},{"response_times":[5579.535000026226,4341.359999962151,4393.189999973401,4895.465000066906,4666.109999874607],"keys_pressed":["leftarrow","rightarrow","leftarrow","leftarrow","rightarrow"],"horizon":5,"forced_choices":["leftarrow","rightarrow","leftarrow","leftarrow"],"right_color":"lightblue","left_color":"orange","left_mu":40,"right_mu":44,"left_numbers":[46,45,23,52,44],"right_numbers":[50,44,46,35,44],"points_earned":209,"trial_type":"horizons-task","trial_index":13,"time_elapsed":724409,"internal_node_id":"0.0-9.0"},{"response_times":[4593.210000079125,4385.474999900907,4342.865000013262,4416.234999895096,6319.115000078455,4611.899999901652,3928.2599999569356,4319.200000027195,4111.764999805018,5403.96499983035],"keys_pressed":["rightarrow","rightarrow","leftarrow","leftarrow","rightarrow","rightarrow","leftarrow","leftarrow","rightarrow","leftarrow"],"horizon":10,"forced_choices":["rightarrow","rightarrow","leftarrow","leftarrow"],"right_color":"lightblue","left_color":"orange","left_mu":60,"right_mu":48,"left_numbers":[51,65,65,57,54,71,41,52,46,70],"right_numbers":[52,51,47,59,42,42,60,54,39,48],"points_earned":511,"trial_type":"horizons-task","trial_index":14,"time_elapsed":772355,"internal_node_id":"0.0-10.0"},{"response_times":[4277.54499996081,4335.800000000745,4247.464999789372,4176.915000192821,5662.454999983311,4433.010000037029,4615.340000018477,5183.884999947622,4184.660000028089,4150.520000141114],"keys_pressed":["leftarrow","leftarrow","leftarrow","rightarrow","rightarrow","leftarrow","rightarrow","leftarrow","leftarrow","rightarrow"],"horizon":10,"forced_choices":["leftarrow","leftarrow","leftarrow","rightarrow"],"right_color":"lightblue","left_color":"orange","left_mu":40,"right_mu":60,"left_numbers":[30,48,41,33,28,47,19,44,44,37],"right_numbers":[66,62,63,79,69,63,61,63,65,76],"points_earned":539,"trial_type":"horizons-task","trial_index":15,"time_elapsed":819131,"internal_node_id":"0.0-11.0"},{"response_times":[4172.345000086352,4159.914999967441,4151.030000066385,4305.944999912754,5640.559999970719,5062.52000015229,3962.3650000430644,4149.555000010878,4282.835000194609,4236.615000059828],"keys_pressed":["leftarrow","rightarrow","leftarrow","leftarrow","rightarrow","rightarrow","leftarrow","leftarrow","leftarrow","rightarrow"],"horizon":10,"forced_choices":["leftarrow","rightarrow","leftarrow","leftarrow"],"right_color":"orange","left_color":"lightblue","left_mu":40,"right_mu":10,"left_numbers":[31,34,42,33,43,42,41,32,46,51],"right_numbers":[20,13,6,16,11,8,14,33,19,8],"points_earned":265,"trial_type":"horizons-task","trial_index":16,"time_elapsed":864768,"internal_node_id":"0.0-12.0"},{"response_times":[4063.2149998564273,4280.379999894649,4264.325000112876,4735.825000097975,4783.975000027567],"keys_pressed":["leftarrow","rightarrow","leftarrow","rightarrow","leftarrow"],"horizon":5,"forced_choices":["leftarrow","rightarrow","leftarrow","rightarrow"],"right_color":"lightblue","left_color":"orange","left_mu":40,"right_mu":36,"left_numbers":[40,48,37,31,44],"right_numbers":[49,37,53,44,38],"points_earned":202,"trial_type":"horizons-task","trial_index":17,"time_elapsed":888420,"internal_node_id":"0.0-13.0"},{"response_times":[4231.209999881685,4440.299999900162,4096.29000001587,5539.954999927431,5458.955000154674],"keys_pressed":["leftarrow","leftarrow","leftarrow","rightarrow","rightarrow"],"horizon":5,"forced_choices":["leftarrow","leftarrow","leftarrow","rightarrow"],"right_color":"orange","left_color":"lightblue","left_mu":60,"right_mu":48,"left_numbers":[72,56,57,55,52],"right_numbers":[36,58,52,53,54],"points_earned":292,"trial_type":"horizons-task","trial_index":18,"time_elapsed":913698,"internal_node_id":"0.0-14.0"},{"response_times":[4894.455000059679,4319.175000069663,4540.425000013784,4351.135000120848,4208.390000043437,4148.904999950901,4026.039999909699,7165.840000147,5417.600000044331,3870.7600000780076],"keys_pressed":["leftarrow","rightarrow","rightarrow","rightarrow","leftarrow","leftarrow","rightarrow","leftarrow","leftarrow","rightarrow"],"horizon":10,"forced_choices":["leftarrow","rightarrow","rightarrow","rightarrow"],"right_color":"orange","left_color":"lightblue","left_mu":60,"right_mu":64,"left_numbers":[58,45,52,57,64,67,65,50,62,75],"right_numbers":[69,67,62,67,73,55,73,66,63,57],"points_earned":627,"trial_type":"horizons-task","trial_index":19,"time_elapsed":962152,"internal_node_id":"0.0-15.0"},{"response_times":[5295.039999997243,4384.275000076741,4544.714999850839,4583.809999981895,4902.264999924228,6524.144999915734,4235.410000197589,4840.5149998143315,3815.7900001388043,3999.6150000952184],"keys_pressed":["leftarrow","rightarrow","rightarrow","rightarrow","leftarrow","leftarrow","rightarrow","rightarrow","leftarrow","leftarrow"],"horizon":10,"forced_choices":["leftarrow","rightarrow","rightarrow","rightarrow"],"right_color":"orange","left_color":"lightblue","left_mu":40,"right_mu":36,"left_numbers":[40,24,38,38,48,36,47,45,51,33],"right_numbers":[45,41,42,28,27,35,33,43,34,51],"points_earned":395,"trial_type":"horizons-task","trial_index":20,"time_elapsed":1010851,"internal_node_id":"0.0-16.0"},{"response_times":[4339.6399999037385,4511.464999988675,4527.694999938831,4367.739999899641,5365.274999989197,4441.469999961555,4200.925000011921,6935.264999978244,2703.8699998520315,4472.75000018999],"keys_pressed":["rightarrow","rightarrow","leftarrow","rightarrow","leftarrow","leftarrow","rightarrow","rightarrow","leftarrow","leftarrow"],"horizon":10,"forced_choices":["rightarrow","rightarrow","leftarrow","rightarrow"],"right_color":"orange","left_color":"lightblue","left_mu":60,"right_mu":72,"left_numbers":[47,54,52,65,63,54,71,61,44,61],"right_numbers":[76,79,79,65,77,98,70,73,72,73],"points_earned":637,"trial_type":"horizons-task","trial_index":21,"time_elapsed":1058229,"internal_node_id":"0.0-17.0"},{"response_times":[4198.194999946281,4610.074999975041,4001.390000106767,4281.320000067353,5391.579999821261],"keys_pressed":["leftarrow","rightarrow","leftarrow","rightarrow","leftarrow"],"horizon":5,"forced_choices":["leftarrow","rightarrow","leftarrow","rightarrow"],"right_color":"lightblue","left_color":"orange","left_mu":40,"right_mu":28,"left_numbers":[33,37,55,36,57],"right_numbers":[33,39,34,26,21],"points_earned":210,"trial_type":"horizons-task","trial_index":22,"time_elapsed":1082224,"internal_node_id":"0.0-18.0"},{"response_times":[4268.69500009343,4468.494999920949,4200.144999893382,4239.9399999994785,4375.699999975041],"keys_pressed":["leftarrow","leftarrow","leftarrow","rightarrow","rightarrow"],"horizon":5,"forced_choices":["leftarrow","leftarrow","leftarrow","rightarrow"],"right_color":"orange","left_color":"lightblue","left_mu":40,"right_mu":60,"left_numbers":[41,37,47,52,44],"right_numbers":[70,56,58,67,61],"points_earned":253,"trial_type":"horizons-task","trial_index":23,"time_elapsed":1105299,"internal_node_id":"0.0-19.0"},{"response_times":[4653.394999913871,4208.155000116676,4135.095000034198,4488.6549999937415,6368.544999975711,4272.5499998778105,4061.655000085011,3984.90499984473,4272.139999782667,4039.789999835193],"keys_pressed":["rightarrow","rightarrow","leftarrow","rightarrow","leftarrow","leftarrow","rightarrow","leftarrow","leftarrow","rightarrow"],"horizon":10,"forced_choices":["rightarrow","rightarrow","leftarrow","rightarrow"],"right_color":"lightblue","left_color":"orange","left_mu":60,"right_mu":56,"left_numbers":[62,50,61,71,36,48,44,55,48,61],"right_numbers":[54,57,60,44,53,43,64,49,60,49],"points_earned":516,"trial_type":"horizons-task","trial_index":24,"time_elapsed":1151292,"internal_node_id":"0.0-20.0"},{"response_times":[6033.220000099391,1833.020000020042,8974.404999986291,3312.290000030771,4839.254999998957,1263.245000038296,5849.165000021458,1256.4250000286847,3966.370000038296,639.7800000850111],"keys_pressed":["rightarrow","leftarrow","rightarrow","leftarrow","rightarrow","leftarrow","leftarrow","rightarrow","leftarrow","rightarrow"],"horizon":10,"forced_choices":["rightarrow","leftarrow","rightarrow","leftarrow"],"right_color":"orange","left_color":"lightblue","left_mu":40,"right_mu":36,"left_numbers":[38,52,38,37,35,33,48,42,39,51],"right_numbers":[32,43,36,31,42,38,39,51,27,34],"points_earned":404,"trial_type":"horizons-task","trial_index":25,"time_elapsed":1190770,"internal_node_id":"0.0-21.0"},{"response_times":[717.3200000543147,791.8750001117587,808.1050000619143,776.3499999418855,1959.3650000169873,1015.940000070259,695.9349999669939,2344.170000171289,791.6749999858439,879.9250000156462],"keys_pressed":["rightarrow","leftarrow","leftarrow","rightarrow","leftarrow","leftarrow","rightarrow","leftarrow","rightarrow","rightarrow"],"horizon":10,"forced_choices":["rightarrow","leftarrow","leftarrow","rightarrow"],"right_color":"orange","left_color":"lightblue","left_mu":40,"right_mu":70,"left_numbers":[36,29,38,20,40,33,58,49,31,36],"right_numbers":[62,64,76,74,82,75,76,84,78,68],"points_earned":547,"trial_type":"horizons-task","trial_index":26,"time_elapsed":1203058,"internal_node_id":"0.0-22.0"},{"response_times":[726.6400000080466,776.3000000268221,711.6249999962747,696.0499999113381,1976.024999981746,1735.8000001404434,927.9300000052899,679.8299998044968,688.1999999750406,623.7449999898672],"keys_pressed":["rightarrow","leftarrow","rightarrow","leftarrow","rightarrow","rightarrow","rightarrow","leftarrow","leftarrow","leftarrow"],"horizon":10,"forced_choices":["rightarrow","leftarrow","rightarrow","leftarrow"],"right_color":"lightblue","left_color":"orange","left_mu":40,"right_mu":10,"left_numbers":[42,19,43,39,54,45,28,50,40,60],"right_numbers":[8,12,31,0,0,22,31,9,9,19],"points_earned":300,"trial_type":"horizons-task","trial_index":27,"time_elapsed":1214106,"internal_node_id":"0.0-23.0"},{"response_times":[702.7950000483543,775.6600000429899,631.9250001106411,944.2050000652671,1247.2749999724329],"keys_pressed":["leftarrow","leftarrow","leftarrow","rightarrow","rightarrow"],"horizon":5,"forced_choices":["leftarrow","leftarrow","leftarrow","rightarrow"],"right_color":"orange","left_color":"lightblue","left_mu":60,"right_mu":40,"left_numbers":[56,59,70,64,64],"right_numbers":[30,38,37,35,41],"points_earned":261,"trial_type":"horizons-task","trial_index":28,"time_elapsed":1219914,"internal_node_id":"0.0-24.0"},{"response_times":[798.8799999002367,535.9950000420213,848.1699998956174,807.8499999828637,1551.7649999819696],"keys_pressed":["leftarrow","leftarrow","rightarrow","rightarrow","leftarrow"],"horizon":5,"forced_choices":["leftarrow","leftarrow","rightarrow","rightarrow"],"right_color":"lightblue","left_color":"orange","left_mu":40,"right_mu":36,"left_numbers":[38,43,47,52,41],"right_numbers":[29,41,32,37,30],"points_earned":191,"trial_type":"horizons-task","trial_index":29,"time_elapsed":1225963,"internal_node_id":"0.0-25.0"},{"response_times":[822.0399999991059,791.5999998804182,695.9800000768155,823.934999993071,1071.9200000166893],"keys_pressed":["rightarrow","rightarrow","rightarrow","leftarrow","leftarrow"],"horizon":5,"forced_choices":["rightarrow","rightarrow","rightarrow","leftarrow"],"right_color":"lightblue","left_color":"orange","left_mu":60,"right_mu":72,"left_numbers":[67,67,49,55,54],"right_numbers":[70,69,67,72,68],"points_earned":315,"trial_type":"horizons-task","trial_index":30,"time_elapsed":1231674,"internal_node_id":"0.0-26.0"},{"response_times":[886.9500001892447,735.6450001243502,792.284999974072,703.609999967739,1928.2299999613315,783.9499998372048,775.6300000473857,767.8700000979006,688.0050001200289,567.890000063926],"keys_pressed":["leftarrow","rightarrow","rightarrow","leftarrow","leftarrow","leftarrow","leftarrow","leftarrow","rightarrow","rightarrow"],"horizon":10,"forced_choices":["leftarrow","rightarrow","rightarrow","leftarrow"],"right_color":"lightblue","left_color":"orange","left_mu":60,"right_mu":52,"left_numbers":[60,50,58,72,53,48,67,52,42,79],"right_numbers":[50,50,48,48,53,60,56,49,50,52],"points_earned":552,"trial_type":"horizons-task","trial_index":31,"time_elapsed":1241810,"internal_node_id":"0.0-27.0"},{"response_times":[702.894999878481,727.930000051856,591.8250000104308,688.0749999545515,1303.8300001062453],"keys_pressed":["leftarrow","rightarrow","leftarrow","rightarrow","leftarrow"],"horizon":5,"forced_choices":["leftarrow","rightarrow","leftarrow","rightarrow"],"right_color":"lightblue","left_color":"orange","left_mu":60,"right_mu":80,"left_numbers":[59,68,68,59,54],"right_numbers":[75,87,77,86,80],"points_earned":354,"trial_type":"horizons-task","trial_index":32,"time_elapsed":1247330,"internal_node_id":"0.0-28.0"},{"response_times":[886.5900000091642,711.6450001485646,583.684999961406,711.9350000284612,792.1449998393655],"keys_pressed":["leftarrow","leftarrow","leftarrow","rightarrow","rightarrow"],"horizon":5,"forced_choices":["leftarrow","leftarrow","leftarrow","rightarrow"],"right_color":"orange","left_color":"lightblue","left_mu":40,"right_mu":32,"left_numbers":[48,38,29,52,33],"right_numbers":[31,36,39,35,35],"points_earned":185,"trial_type":"horizons-task","trial_index":33,"time_elapsed":1252523,"internal_node_id":"0.0-29.0"},{"response_times":[645.9399999585003,880.0500000361353,887.8750000149012,695.754999993369,1784.1399998869747,519.7149999439716,440.26999990455806,503.66499996744096,455.85999987088144,503.99000011384487],"keys_pressed":["leftarrow","rightarrow","rightarrow","leftarrow","leftarrow","leftarrow","leftarrow","leftarrow","rightarrow","rightarrow"],"horizon":10,"forced_choices":["leftarrow","rightarrow","rightarrow","leftarrow"],"right_color":"orange","left_color":"lightblue","left_mu":40,"right_mu":36,"left_numbers":[35,42,49,41,32,42,36,44,42,40],"right_numbers":[46,28,35,29,40,40,19,34,39,30],"points_earned":362,"trial_type":"horizons-task","trial_index":34,"time_elapsed":1261347,"internal_node_id":"0.0-30.0"},{"response_times":[1069.6000000461936,743.8949998468161,607.8349999152124,823.8699999637902,1336.1699997913092,863.8500000815839,520.8449999336153,568.4700000565499,670.8249999210238,503.4449999220669],"keys_pressed":["rightarrow","leftarrow","rightarrow","rightarrow","leftarrow","leftarrow","leftarrow","rightarrow","rightarrow","leftarrow"],"horizon":10,"forced_choices":["rightarrow","leftarrow","rightarrow","rightarrow"],"right_color":"orange","left_color":"lightblue","left_mu":40,"right_mu":36,"left_numbers":[44,49,38,38,36,52,49,58,44,48],"right_numbers":[34,22,30,26,41,40,31,27,32,52],"points_earned":383,"trial_type":"horizons-task","trial_index":35,"time_elapsed":1270563,"internal_node_id":"0.0-31.0"},{"response_times":[582.6749999541789,519.7499999776483,695.8949998952448,552.9650000389665,1246.925000101328],"keys_pressed":["leftarrow","leftarrow","rightarrow","leftarrow","rightarrow"],"horizon":5,"forced_choices":["leftarrow","leftarrow","rightarrow","leftarrow"],"right_color":"orange","left_color":"lightblue","left_mu":40,"right_mu":28,"left_numbers":[33,51,32,35,56],"right_numbers":[36,30,27,38,18],"points_earned":164,"trial_type":"horizons-task","trial_index":36,"time_elapsed":1275666,"internal_node_id":"0.0-32.0"},{"response_times":[935.2249999064952,1199.765000026673,760.2099999785423,743.6999999918044,1792.1100000385195,551.7400000244379,919.9249998200685,903.9600000251085,575.9349998552352,487.8650000318885],"keys_pressed":["rightarrow","rightarrow","leftarrow","leftarrow","leftarrow","leftarrow","rightarrow","leftarrow","leftarrow","leftarrow"],"horizon":10,"forced_choices":["rightarrow","rightarrow","leftarrow","leftarrow"],"right_color":"orange","left_color":"lightblue","left_mu":40,"right_mu":20,"left_numbers":[33,36,39,33,34,29,38,44,41,39],"right_numbers":[22,20,8,10,5,33,26,15,39,22],"points_earned":327,"trial_type":"horizons-task","trial_index":37,"time_elapsed":1286042,"internal_node_id":"0.0-33.0"},{"response_times":[758.6900000460446,479.8949998803437,744.2000000737607,839.9400000926107,543.6549999285489],"keys_pressed":["leftarrow","leftarrow","rightarrow","rightarrow","leftarrow"],"horizon":5,"forced_choices":["leftarrow","leftarrow","rightarrow","rightarrow"],"right_color":"lightblue","left_color":"orange","left_mu":40,"right_mu":10,"left_numbers":[40,45,31,56,41],"right_numbers":[16,9,3,4,7],"points_earned":133,"trial_type":"horizons-task","trial_index":38,"time_elapsed":1290915,"internal_node_id":"0.0-34.0"},{"response_times":[891.2400000263005,959.8799999803305,663.9449999202043,767.9550000466406,1375.9649998974055,679.9599998630583,519.9649999849498,487.9250000230968,487.96499986201525,735.9599999617785],"keys_pressed":["rightarrow","rightarrow","leftarrow","leftarrow","rightarrow","rightarrow","rightarrow","rightarrow","leftarrow","rightarrow"],"horizon":10,"forced_choices":["rightarrow","rightarrow","leftarrow","leftarrow"],"right_color":"lightblue","left_color":"orange","left_mu":40,"right_mu":70,"left_numbers":[39,54,48,44,32,45,42,37,32,39],"right_numbers":[76,80,48,81,60,71,68,78,63,73],"points_earned":630,"trial_type":"horizons-task","trial_index":39,"time_elapsed":1300025,"internal_node_id":"0.0-35.0"},{"response_times":[960.2399999275804,743.5500000137836,719.9750000145286,1119.9199999682605,832.1149998810142],"keys_pressed":["leftarrow","rightarrow","leftarrow","rightarrow","rightarrow"],"horizon":5,"forced_choices":["leftarrow","rightarrow","leftarrow","rightarrow"],"right_color":"orange","left_color":"lightblue","left_mu":40,"right_mu":60,"left_numbers":[26,37,32,39,40],"right_numbers":[47,74,61,81,70],"points_earned":283,"trial_type":"horizons-task","trial_index":40,"time_elapsed":1305905,"internal_node_id":"0.0-36.0"},{"response_times":[800.3249999601394,711.9750001002103,767.920000012964,991.9700000900775,647.9550001677126],"keys_pressed":["rightarrow","leftarrow","rightarrow","leftarrow","rightarrow"],"horizon":5,"forced_choices":["rightarrow","leftarrow","rightarrow","leftarrow"],"right_color":"orange","left_color":"lightblue","left_mu":60,"right_mu":68,"left_numbers":[72,49,52,55,63],"right_numbers":[57,68,70,68,55],"points_earned":286,"trial_type":"horizons-task","trial_index":41,"time_elapsed":1311330,"internal_node_id":"0.0-37.0"},{"response_times":[742.6100000739098,591.2999999709427,927.9050000477582,1280.0699998624623,983.9950001332909],"keys_pressed":["rightarrow","leftarrow","leftarrow","leftarrow","rightarrow"],"horizon":5,"forced_choices":["rightarrow","leftarrow","leftarrow","leftarrow"],"right_color":"orange","left_color":"lightblue","left_mu":40,"right_mu":36,"left_numbers":[39,42,35,35,46],"right_numbers":[27,34,36,33,37],"points_earned":176,"trial_type":"horizons-task","trial_index":42,"time_elapsed":1317362,"internal_node_id":"0.0-38.0"},{"response_times":[647.5749998353422,872.6000001188368,711.1899999435991,807.825000025332,1200.0100000295788],"keys_pressed":["leftarrow","leftarrow","rightarrow","leftarrow","rightarrow"],"horizon":5,"forced_choices":["leftarrow","leftarrow","rightarrow","leftarrow"],"right_color":"orange","left_color":"lightblue","left_mu":40,"right_mu":60,"left_numbers":[33,46,42,57,34],"right_numbers":[50,49,69,60,64],"points_earned":269,"trial_type":"horizons-task","trial_index":43,"time_elapsed":1323106,"internal_node_id":"0.0-39.0"},{"response_times":[846.9950000289828,615.334999980405,719.9550000950694,672.21499979496,527.6500000618398],"keys_pressed":["rightarrow","leftarrow","leftarrow","rightarrow","leftarrow"],"horizon":5,"forced_choices":["rightarrow","leftarrow","leftarrow","rightarrow"],"right_color":"lightblue","left_color":"orange","left_mu":60,"right_mu":52,"left_numbers":[53,57,71,41,52],"right_numbers":[51,44,52,44,45],"points_earned":275,"trial_type":"horizons-task","trial_index":44,"time_elapsed":1327994,"internal_node_id":"0.0-40.0"},{"response_times":[637.7950001042336,1063.9849998988211,863.9249999541789,1007.9350001178682,2528.9199999533594],"keys_pressed":["rightarrow","leftarrow","leftarrow","rightarrow","rightarrow"],"horizon":5,"forced_choices":["rightarrow","leftarrow","leftarrow","rightarrow"],"right_color":"lightblue","left_color":"orange","left_mu":60,"right_mu":52,"left_numbers":[64,71,50,62,59],"right_numbers":[41,49,56,52,63],"points_earned":277,"trial_type":"horizons-task","trial_index":45,"time_elapsed":1335602,"internal_node_id":"0.0-41.0"},{"response_times":[696.8050000723451,751.7399999778718,671.6900002211332,752.1200000774115,991.7800000403076],"keys_pressed":["rightarrow","leftarrow","leftarrow","leftarrow","leftarrow"],"horizon":5,"forced_choices":["rightarrow","leftarrow","leftarrow","leftarrow"],"right_color":"lightblue","left_color":"orange","left_mu":60,"right_mu":64,"left_numbers":[53,57,48,68,58],"right_numbers":[70,58,51,54,67],"points_earned":301,"trial_type":"horizons-task","trial_index":46,"time_elapsed":1340994,"internal_node_id":"0.0-42.0"},{"response_times":[630.8999999891967,680.0649999640882,623.9700000733137,575.6549998186529,519.984999904409],"keys_pressed":["leftarrow","rightarrow","leftarrow","rightarrow","leftarrow"],"horizon":5,"forced_choices":["leftarrow","rightarrow","leftarrow","rightarrow"],"right_color":"orange","left_color":"lightblue","left_mu":60,"right_mu":56,"left_numbers":[48,50,52,66,64],"right_numbers":[63,47,66,58,53],"points_earned":269,"trial_type":"horizons-task","trial_index":47,"time_elapsed":1345530,"internal_node_id":"0.0-43.0"},{"response_times":[750.8499999530613,951.5750000718981,559.6900000236928,640.0650001596659,1167.7850000560284,584.0100001078099,519.8949999175966,503.9200000464916,496.00000004284084,503.8449999410659],"keys_pressed":["rightarrow","leftarrow","rightarrow","leftarrow","rightarrow","leftarrow","rightarrow","leftarrow","rightarrow","leftarrow"],"horizon":10,"forced_choices":["rightarrow","leftarrow","rightarrow","leftarrow"],"right_color":"lightblue","left_color":"orange","left_mu":60,"right_mu":64,"left_numbers":[51,64,60,57,51,60,66,57,66,59],"right_numbers":[50,68,59,67,67,66,80,61,61,57],"points_earned":614,"trial_type":"horizons-task","trial_index":48,"time_elapsed":1353714,"internal_node_id":"0.0-44.0"},{"view_history":"[{\"page_index\":0,\"viewing_time\":15053.264999995008},{\"page_index\":1,\"viewing_time\":2411.185000091791}]","rt":17465.705000096932,"trial_type":"instructions","trial_index":49,"time_elapsed":1371183,"internal_node_id":"0.0-45.0"},{"response_times":[1772.7299998514354,703.7899999413639,687.8800000995398,823.9299999549985,1368.2800000533462,519.6650000289083,536.1999999731779,543.7249999959022,552.1799998823553,591.6600001510233],"keys_pressed":["leftarrow","leftarrow","rightarrow","rightarrow","leftarrow","leftarrow","leftarrow","rightarrow","rightarrow","rightarrow"],"horizon":10,"forced_choices":["leftarrow","leftarrow","rightarrow","rightarrow"],"right_color":"orange","left_color":"lightblue","left_mu":60,"right_mu":64,"left_numbers":[69,60,70,53,45,61,61,44,66,53],"right_numbers":[70,61,56,65,55,79,71,67,62,53],"points_earned":599,"trial_type":"horizons-task","trial_index":50,"time_elapsed":1380810,"internal_node_id":"0.0-46.0"},{"response_times":[942.7249999716878,607.8899998683482,728.0749999918044,863.9849999453872,1591.834999853745],"keys_pressed":["leftarrow","rightarrow","rightarrow","leftarrow","leftarrow"],"horizon":5,"forced_choices":["leftarrow","rightarrow","rightarrow","leftarrow"],"right_color":"lightblue","left_color":"orange","left_mu":40,"right_mu":32,"left_numbers":[21,45,48,35,48],"right_numbers":[32,28,41,32,23],"points_earned":173,"trial_type":"horizons-task","trial_index":51,"time_elapsed":1387050,"internal_node_id":"0.0-47.0"},{"response_times":[782.2849999647588,771.4449998456985,604.7700000926852,671.8999999575317,2943.74500005506,567.7749998867512,472.12000004947186,1055.7200000621378,511.94499991834164,624.1800000425428],"keys_pressed":["leftarrow","rightarrow","leftarrow","rightarrow","rightarrow","rightarrow","leftarrow","leftarrow","rightarrow","rightarrow"],"horizon":10,"forced_choices":["leftarrow","rightarrow","leftarrow","rightarrow"],"right_color":"orange","left_color":"lightblue","left_mu":40,"right_mu":70,"left_numbers":[31,45,46,50,38,35,71,34,44,53],"right_numbers":[80,89,94,79,58,63,56,59,63,63],"points_earned":597,"trial_type":"horizons-task","trial_index":52,"time_elapsed":1397562,"internal_node_id":"0.0-48.0"},{"response_times":[1238.175000064075,488.3200000040233,943.8100000843406,1191.7399999219924,1224.1499999072403,823.6750001087785,1111.9900001212955,503.77000006847084,599.9499999452382,768.089999910444],"keys_pressed":["rightarrow","leftarrow","leftarrow","leftarrow","rightarrow","rightarrow","rightarrow","rightarrow","leftarrow","rightarrow"],"horizon":10,"forced_choices":["rightarrow","leftarrow","leftarrow","leftarrow"],"right_color":"lightblue","left_color":"orange","left_mu":40,"right_mu":70,"left_numbers":[49,38,35,27,34,32,23,44,49,50],"right_numbers":[61,62,67,77,64,70,83,75,63,70],"points_earned":572,"trial_type":"horizons-task","trial_index":53,"time_elapsed":1407962,"internal_node_id":"0.0-49.0"},{"response_times":[888.329999987036,967.2300000675023,855.7649999856949,663.6449999641627,672.0700000878423,2000.4199999384582,775.3800000064075,615.8950000535697,599.9449999071658,896.1050000507385],"keys_pressed":["leftarrow","rightarrow","rightarrow","rightarrow","leftarrow","leftarrow","leftarrow","rightarrow","rightarrow","leftarrow"],"horizon":10,"forced_choices":["leftarrow","rightarrow","rightarrow","rightarrow"],"right_color":"lightblue","left_color":"orange","left_mu":60,"right_mu":64,"left_numbers":[65,75,57,67,71,52,63,54,52,51],"right_numbers":[65,62,67,75,67,58,58,69,60,59],"points_earned":635,"trial_type":"horizons-task","trial_index":54,"time_elapsed":1418426,"internal_node_id":"0.0-50.0"},{"response_times":[742.6850001793355,599.5250002015382,752.2999998182058,575.5100001115352,1544.1449999343604,823.7400001380593,656.029999954626,536.0449999570847,896.0100000258535,463.8649998232722],"keys_pressed":["rightarrow","leftarrow","leftarrow","rightarrow","leftarrow","leftarrow","leftarrow","rightarrow","leftarrow","leftarrow"],"horizon":10,"forced_choices":["rightarrow","leftarrow","leftarrow","rightarrow"],"right_color":"lightblue","left_color":"orange","left_mu":60,"right_mu":48,"left_numbers":[67,42,55,60,63,61,53,55,67,61],"right_numbers":[42,45,45,53,52,61,50,39,52,41],"points_earned":536,"trial_type":"horizons-task","trial_index":55,"time_elapsed":1427522,"internal_node_id":"0.0-51.0"},{"response_times":[815.2749999426305,567.8700001444668,855.75499990955,712.1399999596179,1328.1799999531358],"keys_pressed":["rightarrow","leftarrow","leftarrow","rightarrow","leftarrow"],"horizon":5,"forced_choices":["rightarrow","leftarrow","leftarrow","rightarrow"],"right_color":"orange","left_color":"lightblue","left_mu":40,"right_mu":36,"left_numbers":[31,37,34,41,35],"right_numbers":[39,37,30,41,22],"points_earned":186,"trial_type":"horizons-task","trial_index":56,"time_elapsed":1433307,"internal_node_id":"0.0-52.0"},{"response_times":[997.7649999782443,568.0799998808652,1167.6350000780076,1000.264999922365,775.6850000005215],"keys_pressed":["leftarrow","rightarrow","rightarrow","rightarrow","rightarrow"],"horizon":5,"forced_choices":["leftarrow","rightarrow","rightarrow","rightarrow"],"right_color":"orange","left_color":"lightblue","left_mu":60,"right_mu":64,"left_numbers":[56,63,60,78,56],"right_numbers":[58,62,68,73,52],"points_earned":311,"trial_type":"horizons-task","trial_index":57,"time_elapsed":1439323,"internal_node_id":"0.0-53.0"},{"response_times":[885.9349999111146,591.7249999474734,880.0299998838454,640.224999981001,1399.669999955222],"keys_pressed":["leftarrow","rightarrow","rightarrow","leftarrow","leftarrow"],"horizon":5,"forced_choices":["leftarrow","rightarrow","rightarrow","leftarrow"],"right_color":"orange","left_color":"lightblue","left_mu":40,"right_mu":20,"left_numbers":[31,40,47,33,36],"right_numbers":[11,21,15,23,20],"points_earned":136,"trial_type":"horizons-task","trial_index":58,"time_elapsed":1445227,"internal_node_id":"0.0-54.0"},{"response_times":[790.125000057742,599.7800000477582,839.949999935925,648.079999955371,1232.5950001832098,1151.3450001366436,447.9600000195205,431.78500002250075,583.8600001297891,480.39499996230006],"keys_pressed":["rightarrow","leftarrow","rightarrow","leftarrow","rightarrow","rightarrow","rightarrow","rightarrow","rightarrow","leftarrow"],"horizon":10,"forced_choices":["rightarrow","leftarrow","rightarrow","leftarrow"],"right_color":"orange","left_color":"lightblue","left_mu":40,"right_mu":70,"left_numbers":[46,45,43,51,31,43,42,37,45,36],"right_numbers":[61,55,63,56,68,68,85,63,60,80],"points_earned":600,"trial_type":"horizons-task","trial_index":59,"time_elapsed":1453939,"internal_node_id":"0.0-55.0"},{"response_times":[782.2900000028312,543.9100000075996,736.3100000657141,663.5649998206645,536.5800000727177],"keys_pressed":["leftarrow","rightarrow","leftarrow","rightarrow","leftarrow"],"horizon":5,"forced_choices":["leftarrow","rightarrow","leftarrow","rightarrow"],"right_color":"orange","left_color":"lightblue","left_mu":60,"right_mu":30,"left_numbers":[59,46,56,46,77],"right_numbers":[33,43,29,31,27],"points_earned":266,"trial_type":"horizons-task","trial_index":60,"time_elapsed":1458707,"internal_node_id":"0.0-56.0"},{"response_times":[808.4149998612702,1055.570000084117,559.7600000910461,728.2249999698251,543.5999999754131],"keys_pressed":["rightarrow","rightarrow","leftarrow","leftarrow","rightarrow"],"horizon":5,"forced_choices":["rightarrow","rightarrow","leftarrow","leftarrow"],"right_color":"lightblue","left_color":"orange","left_mu":60,"right_mu":30,"left_numbers":[62,56,50,65,61],"right_numbers":[27,19,24,35,16],"points_earned":177,"trial_type":"horizons-task","trial_index":61,"time_elapsed":1463931,"internal_node_id":"0.0-57.0"},{"response_times":[646.7399999964982,1191.7600000742823,751.8350000027567,983.9600000996143,1031.8549999501556],"keys_pressed":["rightarrow","rightarrow","leftarrow","rightarrow","rightarrow"],"horizon":5,"forced_choices":["rightarrow","rightarrow","leftarrow","rightarrow"],"right_color":"lightblue","left_color":"orange","left_mu":60,"right_mu":48,"left_numbers":[68,57,62,62,55],"right_numbers":[41,51,58,49,40],"points_earned":243,"trial_type":"horizons-task","trial_index":62,"time_elapsed":1470043,"internal_node_id":"0.0-58.0"},{"response_times":[1902.7550001628697,695.4850000329316,759.9400000181049,647.9650000110269,1904.6749998815358],"keys_pressed":["leftarrow","leftarrow","rightarrow","rightarrow","leftarrow"],"horizon":5,"forced_choices":["leftarrow","leftarrow","rightarrow","rightarrow"],"right_color":"lightblue","left_color":"orange","left_mu":40,"right_mu":48,"left_numbers":[53,41,60,42,34],"right_numbers":[45,48,46,41,56],"points_earned":215,"trial_type":"horizons-task","trial_index":63,"time_elapsed":1477460,"internal_node_id":"0.0-59.0"},{"response_times":[742.2199998982251,543.1049999315292,711.9650000240654,584.1550000477582,1391.5299999061972,992.0049998909235,559.9549999460578,511.9849999900907,575.8599999826401,415.9300001338124],"keys_pressed":["rightarrow","leftarrow","leftarrow","rightarrow","leftarrow","rightarrow","rightarrow","rightarrow","rightarrow","rightarrow"],"horizon":10,"forced_choices":["rightarrow","leftarrow","leftarrow","rightarrow"],"right_color":"lightblue","left_color":"orange","left_mu":40,"right_mu":70,"left_numbers":[35,54,42,34,32,51,31,48,27,39],"right_numbers":[79,66,81,55,63,79,65,77,64,76],"points_earned":623,"trial_type":"horizons-task","trial_index":64,"time_elapsed":1485996,"internal_node_id":"0.0-60.0"},{"response_times":[910.8599999453872,575.2449999563396,879.8199999146163,655.9500000439584,727.9850000049919],"keys_pressed":["rightarrow","leftarrow","rightarrow","leftarrow","rightarrow"],"horizon":5,"forced_choices":["rightarrow","leftarrow","rightarrow","leftarrow"],"right_color":"lightblue","left_color":"orange","left_mu":60,"right_mu":68,"left_numbers":[69,63,74,52,55],"right_numbers":[77,73,57,72,65],"points_earned":314,"trial_type":"horizons-task","trial_index":65,"time_elapsed":1491251,"internal_node_id":"0.0-61.0"},{"response_times":[766.3149998988956,959.9049999378622,736.5600001066923,1103.0299998819828,1031.9050000980496],"keys_pressed":["rightarrow","leftarrow","rightarrow","leftarrow","leftarrow"],"horizon":5,"forced_choices":["rightarrow","leftarrow","rightarrow","leftarrow"],"right_color":"lightblue","left_color":"orange","left_mu":60,"right_mu":30,"left_numbers":[59,61,52,48,55],"right_numbers":[32,38,13,24,30],"points_earned":209,"trial_type":"horizons-task","trial_index":66,"time_elapsed":1497355,"internal_node_id":"0.0-62.0"},{"response_times":[735.0850000511855,935.4799999855459,631.6799998749048,792.0500000473112,991.8599999509752,440.2550000231713,343.61499990336597,327.8500000014901,384.01499995961785,351.96500015445054],"keys_pressed":["rightarrow","rightarrow","leftarrow","rightarrow","rightarrow","rightarrow","rightarrow","rightarrow","rightarrow","rightarrow"],"horizon":10,"forced_choices":["rightarrow","rightarrow","leftarrow","rightarrow"],"right_color":"orange","left_color":"lightblue","left_mu":60,"right_mu":64,"left_numbers":[55,56,44,66,62,61,55,62,67,46],"right_numbers":[71,76,54,58,62,70,63,67,73,51],"points_earned":635,"trial_type":"horizons-task","trial_index":67,"time_elapsed":1504796,"internal_node_id":"0.0-63.0"},{"response_times":[893.3599998708814,879.6900000888854,656.0649999883026,952.335000038147,1015.4600001405925],"keys_pressed":["leftarrow","leftarrow","leftarrow","rightarrow","leftarrow"],"horizon":5,"forced_choices":["leftarrow","leftarrow","leftarrow","rightarrow"],"right_color":"lightblue","left_color":"orange","left_mu":60,"right_mu":80,"left_numbers":[52,70,63,66,56],"right_numbers":[79,68,78,79,74],"points_earned":320,"trial_type":"horizons-task","trial_index":68,"time_elapsed":1510699,"internal_node_id":"0.0-64.0"},{"response_times":[725.1549998763949,711.8450000416487,703.9600000716746,887.8949999343604,743.9749999903142],"keys_pressed":["rightarrow","rightarrow","leftarrow","rightarrow","rightarrow"],"horizon":5,"forced_choices":["rightarrow","rightarrow","leftarrow","rightarrow"],"right_color":"orange","left_color":"lightblue","left_mu":60,"right_mu":48,"left_numbers":[55,60,49,47,57],"right_numbers":[43,38,54,30,50],"points_earned":210,"trial_type":"horizons-task","trial_index":69,"time_elapsed":1515979,"internal_node_id":"0.0-65.0"},{"response_times":[724.1349997930229,512.1049999725074,751.9950000569224,720.1049998402596,680.1749998703599],"keys_pressed":["rightarrow","rightarrow","rightarrow","leftarrow","rightarrow"],"horizon":5,"forced_choices":["rightarrow","rightarrow","rightarrow","leftarrow"],"right_color":"orange","left_color":"lightblue","left_mu":40,"right_mu":36,"left_numbers":[43,44,42,33,44],"right_numbers":[49,36,37,19,41],"points_earned":196,"trial_type":"horizons-task","trial_index":70,"time_elapsed":1520875,"internal_node_id":"0.0-66.0"},{"response_times":[766.3149998988956,672.2999999765307,695.7249999977648,1680.2499999757856,1207.0799998473376,1295.6650000996888,560.7650000602007,479.89000007510185,447.9600000195205,520.8050000946969],"keys_pressed":["rightarrow","leftarrow","rightarrow","rightarrow","leftarrow","rightarrow","rightarrow","rightarrow","rightarrow","rightarrow"],"horizon":10,"forced_choices":["rightarrow","leftarrow","rightarrow","rightarrow"],"right_color":"lightblue","left_color":"orange","left_mu":60,"right_mu":68,"left_numbers":[66,50,62,54,45,51,62,81,59,76],"right_numbers":[60,69,59,64,61,72,72,77,81,53],"points_earned":633,"trial_type":"horizons-task","trial_index":71,"time_elapsed":1530708,"internal_node_id":"0.0-67.0"},{"response_times":[644.7950000874698,616.074999794364,1167.5700000487268,703.9699999149889,1192.0099998824298,1471.8949999660254,1023.8600000739098,823.8899998832494,712.0149999391288,624.4200000073761],"keys_pressed":["rightarrow","leftarrow","leftarrow","leftarrow","rightarrow","leftarrow","rightarrow","leftarrow","leftarrow","rightarrow"],"horizon":10,"forced_choices":["rightarrow","leftarrow","leftarrow","leftarrow"],"right_color":"orange","left_color":"lightblue","left_mu":40,"right_mu":28,"left_numbers":[29,42,45,43,24,30,45,28,34,32],"right_numbers":[35,24,31,37,36,39,29,29,33,26],"points_earned":348,"trial_type":"horizons-task","trial_index":72,"time_elapsed":1541195,"internal_node_id":"0.0-68.0"},{"response_times":[805.6099999230355,871.8950001057237,799.8849998693913,695.7000000402331,1056.1049999669194,727.930000051856,495.78500003553927,336.3149999640882,551.5900000464171,1055.9799999464303],"keys_pressed":["rightarrow","leftarrow","leftarrow","leftarrow","rightarrow","rightarrow","rightarrow","rightarrow","rightarrow","leftarrow"],"horizon":10,"forced_choices":["rightarrow","leftarrow","leftarrow","leftarrow"],"right_color":"orange","left_color":"lightblue","left_mu":60,"right_mu":80,"left_numbers":[60,65,52,77,65,64,60,66,62,65],"right_numbers":[88,92,76,80,92,72,70,91,72,75],"points_earned":744,"trial_type":"horizons-task","trial_index":73,"time_elapsed":1550100,"internal_node_id":"0.0-69.0"},{"response_times":[732.21500008367,791.5900000371039,759.8900001030415,735.9449998475611,1960.1000000257045,1000.0200001522899,639.7449998185039,343.83499994874,568.0900001898408,519.8450000025332],"keys_pressed":["leftarrow","leftarrow","rightarrow","leftarrow","rightarrow","leftarrow","leftarrow","leftarrow","leftarrow","rightarrow"],"horizon":10,"forced_choices":["leftarrow","leftarrow","rightarrow","leftarrow"],"right_color":"lightblue","left_color":"orange","left_mu":40,"right_mu":36,"left_numbers":[39,46,42,25,39,52,26,34,27,21],"right_numbers":[24,38,43,39,22,36,37,40,25,44],"points_earned":358,"trial_type":"horizons-task","trial_index":74,"time_elapsed":1559658,"internal_node_id":"0.0-70.0"},{"response_times":[985.0350001361221,776.1849998496473,767.564999870956,1137.3850000090897,2998.7900000996888,720.5900000408292,743.0650000460446,519.7350000962615,768.3600001037121,487.4850001651794],"keys_pressed":["leftarrow","rightarrow","leftarrow","rightarrow","leftarrow","leftarrow","rightarrow","rightarrow","leftarrow","rightarrow"],"horizon":10,"forced_choices":["leftarrow","rightarrow","leftarrow","rightarrow"],"right_color":"lightblue","left_color":"orange","left_mu":40,"right_mu":36,"left_numbers":[56,46,35,34,31,39,51,46,35,41],"right_numbers":[30,40,33,37,30,32,44,36,23,29],"points_earned":382,"trial_type":"horizons-task","trial_index":75,"time_elapsed":1571090,"internal_node_id":"0.0-71.0"},{"response_times":[799.5349999982864,503.32999997772276,543.9300001598895,960.4249999392778,631.2499998603016],"keys_pressed":["rightarrow","leftarrow","rightarrow","leftarrow","rightarrow"],"horizon":5,"forced_choices":["rightarrow","leftarrow","rightarrow","leftarrow"],"right_color":"orange","left_color":"lightblue","left_mu":40,"right_mu":70,"left_numbers":[40,41,35,34,34],"right_numbers":[62,79,70,70,56],"points_earned":263,"trial_type":"horizons-task","trial_index":76,"time_elapsed":1576034,"internal_node_id":"0.0-72.0"},{"response_times":[798.7899999134243,504.0450000669807,991.924999980256,1015.9650000277907,871.9649999402463],"keys_pressed":["leftarrow","rightarrow","rightarrow","rightarrow","rightarrow"],"horizon":5,"forced_choices":["leftarrow","rightarrow","rightarrow","rightarrow"],"right_color":"lightblue","left_color":"orange","left_mu":40,"right_mu":52,"left_numbers":[36,37,45,41,26],"right_numbers":[50,59,53,40,44],"points_earned":232,"trial_type":"horizons-task","trial_index":77,"time_elapsed":1581723,"internal_node_id":"0.0-73.0"},{"response_times":[846.8550001271069,1631.4699999056756,695.9100000094622,967.9699998814613,1192.320000147447,695.3900000080466,479.99999998137355,351.88500001095235,304.04999991878867,608.1250000279397],"keys_pressed":["leftarrow","leftarrow","rightarrow","leftarrow","rightarrow","leftarrow","leftarrow","leftarrow","leftarrow","rightarrow"],"horizon":10,"forced_choices":["leftarrow","leftarrow","rightarrow","leftarrow"],"right_color":"orange","left_color":"lightblue","left_mu":40,"right_mu":20,"left_numbers":[45,36,26,31,44,40,44,41,42,24],"right_numbers":[29,8,40,12,22,28,19,25,4,15],"points_earned":356,"trial_type":"horizons-task","trial_index":78,"time_elapsed":1591004,"internal_node_id":"0.0-74.0"},{"response_times":[892.1299998182803,583.6799999233335,729.0600000414997,719.685000134632,951.3399999123067,455.80000011250377,351.9100002013147,391.8800000101328,440.0200000964105,527.7599999681115],"keys_pressed":["leftarrow","rightarrow","rightarrow","rightarrow","rightarrow","rightarrow","rightarrow","rightarrow","rightarrow","rightarrow"],"horizon":10,"forced_choices":["leftarrow","rightarrow","rightarrow","rightarrow"],"right_color":"orange","left_color":"lightblue","left_mu":60,"right_mu":72,"left_numbers":[62,61,54,50,48,84,62,62,75,63],"right_numbers":[73,67,81,72,74,62,74,77,64,66],"points_earned":699,"trial_type":"horizons-task","trial_index":79,"time_elapsed":1598554,"internal_node_id":"0.0-75.0"},{"response_times":[863.1800001021475,551.3500000815839,687.889999942854,728.0099999625236,472.2649999894202],"keys_pressed":["rightarrow","rightarrow","leftarrow","rightarrow","rightarrow"],"horizon":5,"forced_choices":["rightarrow","rightarrow","leftarrow","rightarrow"],"right_color":"lightblue","left_color":"orange","left_mu":60,"right_mu":90,"left_numbers":[55,61,68,65,44],"right_numbers":[95,88,91,96,96],"points_earned":443,"trial_type":"horizons-task","trial_index":80,"time_elapsed":1603363,"internal_node_id":"0.0-76.0"},{"response_times":[830.9299999382347,767.6750000100583,673.0349999852479,1134.5200000796467,776.0449999477714],"keys_pressed":["leftarrow","leftarrow","rightarrow","leftarrow","rightarrow"],"horizon":5,"forced_choices":["leftarrow","leftarrow","rightarrow","leftarrow"],"right_color":"lightblue","left_color":"orange","left_mu":40,"right_mu":52,"left_numbers":[42,37,43,44,33],"right_numbers":[44,57,66,57,53],"points_earned":242,"trial_type":"horizons-task","trial_index":81,"time_elapsed":1609051,"internal_node_id":"0.0-77.0"},{"response_times":[682.8649998642504,632.1549999993294,719.4199999794364,1048.305000178516,1455.7649998459965,472.41499996744096,439.72999998368323,527.5499999988824,543.9849998801947,463.87999993748963],"keys_pressed":["rightarrow","rightarrow","leftarrow","leftarrow","leftarrow","leftarrow","leftarrow","leftarrow","rightarrow","leftarrow"],"horizon":10,"forced_choices":["rightarrow","rightarrow","leftarrow","leftarrow"],"right_color":"lightblue","left_color":"orange","left_mu":60,"right_mu":30,"left_numbers":[68,57,59,59,56,66,58,64,62,67],"right_numbers":[17,27,28,31,25,36,33,39,35,26],"points_earned":508,"trial_type":"horizons-task","trial_index":82,"time_elapsed":1617546,"internal_node_id":"0.0-78.0"},{"response_times":[807.0999998599291,743.4600000269711,727.9600000474602,967.695000115782,1320.7799999509007,439.5000000949949,480.2149999886751,463.7349999975413,496.06999987736344,575.9550000075251],"keys_pressed":["rightarrow","leftarrow","leftarrow","leftarrow","leftarrow","leftarrow","leftarrow","leftarrow","rightarrow","leftarrow"],"horizon":10,"forced_choices":["rightarrow","leftarrow","leftarrow","leftarrow"],"right_color":"lightblue","left_color":"orange","left_mu":60,"right_mu":68,"left_numbers":[63,63,50,64,52,69,53,64,45,59],"right_numbers":[70,63,57,70,60,73,71,79,58,63],"points_earned":602,"trial_type":"horizons-task","trial_index":83,"time_elapsed":1626075,"internal_node_id":"0.0-79.0"},{"response_times":[749.769999878481,639.9300000630319,671.8349999282509,880.254999967292,2127.885000081733,519.9899999424815,400.0250000972301,359.7449997905642,409.1100001242012,502.5850001256913],"keys_pressed":["leftarrow","leftarrow","leftarrow","rightarrow","rightarrow","rightarrow","rightarrow","rightarrow","rightarrow","leftarrow"],"horizon":10,"forced_choices":["leftarrow","leftarrow","leftarrow","rightarrow"],"right_color":"orange","left_color":"lightblue","left_mu":60,"right_mu":80,"left_numbers":[52,56,52,63,50,61,52,79,56,59],"right_numbers":[79,65,74,60,73,77,87,66,86,77],"points_earned":668,"trial_type":"horizons-task","trial_index":84,"time_elapsed":1634843,"internal_node_id":"0.0-80.0"},{"response_times":[806.2800001353025,632.1199999656528,807.4799999594688,1464.0349999535829,1191.6649998165667,616.0099999979138,607.8050001524389,584.3799998983741,527.6999999769032,575.745000038296],"keys_pressed":["leftarrow","leftarrow","rightarrow","leftarrow","rightarrow","rightarrow","rightarrow","rightarrow","rightarrow","rightarrow"],"horizon":10,"forced_choices":["leftarrow","leftarrow","rightarrow","leftarrow"],"right_color":"lightblue","left_color":"orange","left_mu":60,"right_mu":90,"left_numbers":[74,66,46,66,52,57,62,65,62,44],"right_numbers":[87,86,92,97,81,86,94,79,89,85],"points_earned":812,"trial_type":"horizons-task","trial_index":85,"time_elapsed":1644163,"internal_node_id":"0.0-81.0"},{"response_times":[861.9549998547882,1048.4400000423193,567.2550001181662,2816.344999941066,1223.3799998648465],"keys_pressed":["rightarrow","rightarrow","leftarrow","leftarrow","rightarrow"],"horizon":5,"forced_choices":["rightarrow","rightarrow","leftarrow","leftarrow"],"right_color":"lightblue","left_color":"orange","left_mu":40,"right_mu":48,"left_numbers":[44,48,24,39,47],"right_numbers":[37,55,40,39,53],"points_earned":208,"trial_type":"horizons-task","trial_index":86,"time_elapsed":1652187,"internal_node_id":"0.0-82.0"},{"response_times":[793.6550001613796,724.7000001370907,695.7499999552965,639.9399999063462,1736.4550000056624,463.56499986723065,439.8350000847131,616.2199999671429,511.81999989785254,407.86999999545515],"keys_pressed":["leftarrow","leftarrow","rightarrow","rightarrow","rightarrow","rightarrow","rightarrow","rightarrow","rightarrow","rightarrow"],"horizon":10,"forced_choices":["leftarrow","leftarrow","rightarrow","rightarrow"],"right_color":"lightblue","left_color":"orange","left_mu":60,"right_mu":68,"left_numbers":[46,66,69,51,69,61,55,57,49,55],"right_numbers":[59,62,66,70,74,74,72,75,74,64],"points_earned":681,"trial_type":"horizons-task","trial_index":87,"time_elapsed":1660723,"internal_node_id":"0.0-83.0"},{"response_times":[758.3249998278916,1567.1049999073148,864.765000063926,847.8500000201166,2224.6349998749793,559.5400000456721,543.5750000178814,623.8500000908971,511.85999996960163,912.2150000184774],"keys_pressed":["rightarrow","rightarrow","rightarrow","leftarrow","leftarrow","leftarrow","leftarrow","leftarrow","leftarrow","rightarrow"],"horizon":10,"forced_choices":["rightarrow","rightarrow","rightarrow","leftarrow"],"right_color":"lightblue","left_color":"orange","left_mu":60,"right_mu":56,"left_numbers":[70,44,35,61,65,63,72,70,48,47],"right_numbers":[50,66,42,57,53,61,42,68,63,62],"points_earned":599,"trial_type":"horizons-task","trial_index":88,"time_elapsed":1671643,"internal_node_id":"0.0-84.0"},{"response_times":[1064.6450000349432,887.8399999812245,727.8599999845028,936.1499999649823,727.8849999420345],"keys_pressed":["rightarrow","rightarrow","rightarrow","leftarrow","rightarrow"],"horizon":5,"forced_choices":["rightarrow","rightarrow","rightarrow","leftarrow"],"right_color":"orange","left_color":"lightblue","left_mu":40,"right_mu":48,"left_numbers":[20,49,49,35,34],"right_numbers":[58,48,51,43,36],"points_earned":228,"trial_type":"horizons-task","trial_index":89,"time_elapsed":1677515,"internal_node_id":"0.0-85.0"},{"rt":28334.86000006087,"responses":{"age":"61","gender-categorical":"Female","gender-free-response":"","ethnicity":"Not Hispanic or Latino","race":["White"],"language":"Yes","fluency":"Very well"},"survey":"demographics","trial_type":"survey-demo","trial_index":90,"time_elapsed":1705862,"internal_node_id":"0.0-86.0"},{"rt":36347.60500001721,"responses":{"difficulty":"5","fun":"5","clarity":"5","strategy":"eventually stayed with the higher starters","feedback":""},"survey":"debrief","trial_type":"survey-debrief","trial_index":91,"time_elapsed":1742226,"internal_node_id":"0.0-87.0","interactions":"[]"}]