[{"view_history":"[{\"page_index\":0,\"viewing_time\":1696.3550000218675}]","rt":1696.739999926649,"trial_type":"instructions","trial_index":0,"time_elapsed":1704,"internal_node_id":"0.0-0.0"},{"item_order":[12,7,1,8,5,2,9,10,11,0,3,6,4],"responses":{"Q13":"4","Q08":"2","Q02":"2","Q09":"2","Q06":"2","Q03":"2","Q10":"1","Q11":"2","Q12":"0","Q01":"2","Q04":"3","Q07":"1","Q05":"1"},"radio_events":[3665.73500004597,8853.490000008605,11151.455000042915,14927.544999984093,17457.210000022314,19901.175000006333,23523.290000041015,26005.265000043437,29860.88000005111,32097.165000042878,35559.04500000179,36615.050000022165,39713.055000058375,42850.940000033006,44584.975000005215],"key_events":[],"mouse_events":[0.08500006515532732,3665.73500004597,8853.490000008605,11151.455000042915,14927.544999984093,17457.210000022314,19901.175000006333,21943.369999993593,22853.17000001669,23523.290000041015,26005.265000043437,29561.214999994263,29860.88000005111,32097.165000042878,35559.04500000179,36615.050000022165,39713.055000058375,42850.940000033006,44584.975000005215,45619.02500002179],"rt":45621.324999956414,"survey":"ius12","trial_type":"survey-template","trial_index":1,"time_elapsed":47331,"internal_node_id":"0.0-1.0"},{"item_order":[13,8,11,9,7,1,0,4,3,12,2,5,15,10,16,14,6],"responses":{"Q14":"1","Q09":"1","Q12":"1","Q10":"4","Q08":"2","Q02":"1","Q01":"3","Q05":"2","Q04":"1","Q13":"2","Q03":"2","Q06":"2","Q16":"2","Q11":"2","Q17":"0","Q15":"2","Q07":"2"},"radio_events":[2563.715000054799,5085.829999996349,6857.795000076294,9393.745000008494,13195.69500000216,15361.665000091307,20179.624999989755,26923.494999995455,27987.510000006296,32459.340000059456,35281.345000024885,37139.43500001915,40607.29000007268,44663.249999983236,46089.26999999676,48263.31000006758,49551.24500009697],"key_events":[],"mouse_events":[2563.715000054799,5085.829999996349,6857.795000076294,9393.745000008494,12507.794999983162,13195.69500000216,15361.665000091307,20179.624999989755,26923.494999995455,27987.510000006296,32459.340000059456,35281.345000024885,37139.43500001915,40607.29000007268,44663.249999983236,46089.26999999676,48263.31000006758,49551.24500009697,50437.29500006884],"rt":50439.725000062026,"survey":"pswq","trial_type":"survey-template","trial_index":2,"time_elapsed":97779,"internal_node_id":"0.0-2.0"},{"view_history":"[{\"page_index\":0,\"viewing_time\":2589.284999994561},{\"page_index\":1,\"viewing_time\":4385.964999906719},{\"page_index\":2,\"viewing_time\":7361.890000058338},{\"page_index\":3,\"viewing_time\":4355.970000033267},{\"page_index\":4,\"viewing_time\":9279.89499992691},{\"page_index\":5,\"viewing_time\":4455.9250000165775},{\"page_index\":6,\"viewing_time\":5876.045000040904},{\"page_index\":7,\"viewing_time\":15039.73999992013},{\"page_index\":8,\"viewing_time\":3685.9950000653043},{\"page_index\":9,\"viewing_time\":6027.905000024475}]","rt":63058.924999902956,"trial_type":"instructions","trial_index":3,"time_elapsed":160841,"internal_node_id":"0.0-3.0-0.0"},{"response_times":[5205.249999999069,1166.120000067167,527.934999903664,1087.9100000020117,2319.8300000512972],"keys_pressed":["rightarrow","leftarrow","rightarrow","rightarrow","leftarrow"],"horizon":5,"forced_choices":["rightarrow","leftarrow","rightarrow","rightarrow"],"right_color":"lightblue","left_color":"orange","left_mu":40,"right_mu":20,"left_numbers":[45,51,41,36,49],"right_numbers":[11,22,20,20,16],"points_earned":151,"trial_type":"horizons-task","trial_index":4,"time_elapsed":172659,"internal_node_id":"0.0-3.0-1.0"},{"response_times":[960.1199999451637,991.5849999524653,655.9549999656156,815.9600000362843,2655.860000057146,751.9300000276417,864.0199999790639,495.9550000494346,415.8450000686571,656.0049999970943],"keys_pressed":["leftarrow","leftarrow","rightarrow","rightarrow","rightarrow","rightarrow","rightarrow","rightarrow","rightarrow","rightarrow"],"horizon":10,"forced_choices":["leftarrow","leftarrow","rightarrow","rightarrow"],"right_color":"orange","left_color":"lightblue","left_mu":60,"right_mu":70,"left_numbers":[65,69,64,52,61,65,63,71,62,54],"right_numbers":[76,84,67,77,77,78,75,77,49,83],"points_earned":717,"trial_type":"horizons-task","trial_index":5,"time_elapsed":183426,"internal_node_id":"0.0-3.0-2.0"},{"view_history":"[{\"page_index\":0,\"viewing_time\":2681.434999918565},{\"page_index\":1,\"viewing_time\":3113.8750000391155},{\"page_index\":2,\"viewing_time\":3367.9100000299513},{\"page_index\":3,\"viewing_time\":2497.9499999899417}]","rt":11661.454999935813,"trial_type":"instructions","trial_index":6,"time_elapsed":195089,"internal_node_id":"0.0-3.0-3.0"},{"responses":["true","false","false","true"],"num_errors":0,"rt":13936.50500010699,"trial_type":"horizons-comprehension","trial_index":7,"time_elapsed":209028,"internal_node_id":"0.0-3.0-4.0"},{"view_history":"[{\"page_index\":0,\"viewing_time\":1210.3099999949336},{\"page_index\":1,\"viewing_time\":2883.9000000152737}]","rt":4094.4799999706447,"trial_type":"instructions","trial_index":8,"time_elapsed":213129,"internal_node_id":"0.0-4.0"},{"response_times":[2070.8200000226498,783.7499999441206,1040.030000032857,2352.0700000226498,1599.7499999357387],"keys_pressed":["rightarrow","leftarrow","leftarrow","rightarrow","leftarrow"],"horizon":5,"forced_choices":["rightarrow","leftarrow","leftarrow","rightarrow"],"right_color":"lightblue","left_color":"orange","left_mu":40,"right_mu":20,"left_numbers":[44,32,46,32,40],"right_numbers":[18,15,18,26,11],"points_earned":162,"trial_type":"horizons-task","trial_index":9,"time_elapsed":222482,"internal_node_id":"0.0-5.0"},{"response_times":[752.5999998906627,511.96000003255904,623.9500000374392,1103.8399999961257,1904.065000009723,897.0149999950081,878.8199999835342,1632.5300000607967,735.3499999735504,543.8950000097975],"keys_pressed":["leftarrow","rightarrow","rightarrow","leftarrow","leftarrow","leftarrow","rightarrow","rightarrow","leftarrow","leftarrow"],"horizon":10,"forced_choices":["leftarrow","rightarrow","rightarrow","leftarrow"],"right_color":"lightblue","left_color":"orange","left_mu":60,"right_mu":64,"left_numbers":[81,77,55,61,66,53,66,66,64,59],"right_numbers":[63,65,63,62,61,46,61,58,54,50],"points_earned":631,"trial_type":"horizons-task","trial_index":10,"time_elapsed":233570,"internal_node_id":"0.0-6.0"},{"response_times":[848.4100000932813,815.9450000384822,512.1199999703094,1439.7099999478087,2575.994999962859],"keys_pressed":["leftarrow","rightarrow","rightarrow","rightarrow","rightarrow"],"horizon":5,"forced_choices":["leftarrow","rightarrow","rightarrow","rightarrow"],"right_color":"orange","left_color":"lightblue","left_mu":40,"right_mu":52,"left_numbers":[41,39,37,44,48],"right_numbers":[53,70,52,63,56],"points_earned":282,"trial_type":"horizons-task","trial_index":11,"time_elapsed":241266,"internal_node_id":"0.0-7.0"},{"response_times":[704.9649999244139,495.6200000597164,463.9949999982491,847.9349999688566,927.9300000052899,703.8950000423938,463.92999996896833,783.9799999492243,495.91000005602837,463.90500001143664],"keys_pressed":["leftarrow","rightarrow","rightarrow","leftarrow","rightarrow","rightarrow","rightarrow","rightarrow","rightarrow","rightarrow"],"horizon":10,"forced_choices":["leftarrow","rightarrow","rightarrow","leftarrow"],"right_color":"lightblue","left_color":"orange","left_mu":60,"right_mu":80,"left_numbers":[63,57,58,54,70,65,77,62,52,61],"right_numbers":[71,70,84,91,65,64,98,89,80,99],"points_earned":766,"trial_type":"horizons-task","trial_index":12,"time_elapsed":249121,"internal_node_id":"0.0-8.0"},{"response_times":[640.1649999897927,416.0149999661371,576.0099999606609,1344.160000095144,2575.7100000046194],"keys_pressed":["rightarrow","leftarrow","leftarrow","rightarrow","leftarrow"],"horizon":5,"forced_choices":["rightarrow","leftarrow","leftarrow","rightarrow"],"right_color":"orange","left_color":"lightblue","left_mu":60,"right_mu":52,"left_numbers":[57,83,57,73,46],"right_numbers":[57,48,52,64,45],"points_earned":307,"trial_type":"horizons-task","trial_index":13,"time_elapsed":256178,"internal_node_id":"0.0-9.0"},{"response_times":[559.7199999028817,527.9050000244752,879.8849999438971,720.0399999273941,1871.9549999805167],"keys_pressed":["leftarrow","rightarrow","leftarrow","leftarrow","rightarrow"],"horizon":5,"forced_choices":["leftarrow","rightarrow","leftarrow","leftarrow"],"right_color":"lightblue","left_color":"orange","left_mu":60,"right_mu":72,"left_numbers":[58,56,55,42,62],"right_numbers":[65,76,71,61,70],"points_earned":301,"trial_type":"horizons-task","trial_index":14,"time_elapsed":262241,"internal_node_id":"0.0-10.0"},{"response_times":[529.5899999327958,447.5999999558553,592.0600000536069,831.9299999857321,2239.949999959208],"keys_pressed":["rightarrow","leftarrow","rightarrow","rightarrow","leftarrow"],"horizon":5,"forced_choices":["rightarrow","leftarrow","rightarrow","rightarrow"],"right_color":"orange","left_color":"lightblue","left_mu":40,"right_mu":36,"left_numbers":[45,38,47,42,41],"right_numbers":[32,44,28,30,42],"points_earned":169,"trial_type":"horizons-task","trial_index":15,"time_elapsed":268400,"internal_node_id":"0.0-11.0"},{"response_times":[897.315000067465,511.70000003185123,783.9600000297651,560.0150000536814,2192.2199999680743,1631.6949999891222,447.8349999990314,528.0400000046939,479.86500000115484,416.04999999981374],"keys_pressed":["rightarrow","rightarrow","leftarrow","rightarrow","leftarrow","leftarrow","rightarrow","rightarrow","rightarrow","rightarrow"],"horizon":10,"forced_choices":["rightarrow","rightarrow","leftarrow","rightarrow"],"right_color":"lightblue","left_color":"orange","left_mu":60,"right_mu":72,"left_numbers":[60,51,61,76,64,61,64,56,60,50],"right_numbers":[61,77,58,61,62,77,74,75,72,72],"points_earned":678,"trial_type":"horizons-task","trial_index":16,"time_elapsed":278353,"internal_node_id":"0.0-12.0"},{"response_times":[928.7649999605492,671.8350000446662,688.0550000350922,1519.8899999959394,1151.949999970384],"keys_pressed":["leftarrow","rightarrow","leftarrow","rightarrow","rightarrow"],"horizon":5,"forced_choices":["leftarrow","rightarrow","leftarrow","rightarrow"],"right_color":"orange","left_color":"lightblue","left_mu":40,"right_mu":44,"left_numbers":[44,35,41,44,42],"right_numbers":[45,57,48,44,45],"points_earned":231,"trial_type":"horizons-task","trial_index":17,"time_elapsed":284817,"internal_node_id":"0.0-13.0"},{"response_times":[576.4849999686703,479.7199999447912,559.899999992922,895.9950000280514,2047.885000007227],"keys_pressed":["leftarrow","rightarrow","rightarrow","rightarrow","rightarrow"],"horizon":5,"forced_choices":["leftarrow","rightarrow","rightarrow","rightarrow"],"right_color":"orange","left_color":"lightblue","left_mu":40,"right_mu":32,"left_numbers":[39,16,50,27,28],"right_numbers":[18,36,33,41,22],"points_earned":171,"trial_type":"horizons-task","trial_index":18,"time_elapsed":290881,"internal_node_id":"0.0-14.0"},{"response_times":[560.0850000046194,495.9399999352172,687.9600000102073,1007.9249999253079,1536.1849999753758],"keys_pressed":["rightarrow","rightarrow","leftarrow","leftarrow","leftarrow"],"horizon":5,"forced_choices":["rightarrow","rightarrow","leftarrow","leftarrow"],"right_color":"lightblue","left_color":"orange","left_mu":60,"right_mu":48,"left_numbers":[73,52,68,57,61],"right_numbers":[47,59,44,33,37],"points_earned":292,"trial_type":"horizons-task","trial_index":19,"time_elapsed":296673,"internal_node_id":"0.0-15.0"},{"response_times":[563.9499999815598,447.43500009644777,528.2400000141934,527.7299999725074,1232.3649999452755],"keys_pressed":["rightarrow","rightarrow","leftarrow","rightarrow","rightarrow"],"horizon":5,"forced_choices":["rightarrow","rightarrow","leftarrow","rightarrow"],"right_color":"orange","left_color":"lightblue","left_mu":60,"right_mu":52,"left_numbers":[50,55,52,78,79],"right_numbers":[46,57,53,72,51],"points_earned":278,"trial_type":"horizons-task","trial_index":20,"time_elapsed":301488,"internal_node_id":"0.0-16.0"},{"response_times":[577.350000035949,447.6649999851361,656.1450000153854,559.9099999526516,1199.7850000625476],"keys_pressed":["rightarrow","rightarrow","leftarrow","rightarrow","rightarrow"],"horizon":5,"forced_choices":["rightarrow","rightarrow","leftarrow","rightarrow"],"right_color":"lightblue","left_color":"orange","left_mu":60,"right_mu":68,"left_numbers":[58,54,39,62,48],"right_numbers":[53,65,53,76,67],"points_earned":300,"trial_type":"horizons-task","trial_index":21,"time_elapsed":306432,"internal_node_id":"0.0-17.0"},{"response_times":[496.820000000298,480.174999916926,719.745000009425,592.0000000623986,1791.8099999660626],"keys_pressed":["rightarrow","rightarrow","leftarrow","leftarrow","leftarrow"],"horizon":5,"forced_choices":["rightarrow","rightarrow","leftarrow","leftarrow"],"right_color":"orange","left_color":"lightblue","left_mu":40,"right_mu":20,"left_numbers":[50,33,30,42,42],"right_numbers":[8,25,30,14,28],"points_earned":147,"trial_type":"horizons-task","trial_index":22,"time_elapsed":312016,"internal_node_id":"0.0-18.0"},{"response_times":[576.5299999620765,448.0100000509992,768.0000000400469,511.9249999988824,3840.2599999681115],"keys_pressed":["rightarrow","rightarrow","leftarrow","leftarrow","leftarrow"],"horizon":5,"forced_choices":["rightarrow","rightarrow","leftarrow","leftarrow"],"right_color":"lightblue","left_color":"orange","left_mu":60,"right_mu":52,"left_numbers":[68,58,69,53,48],"right_numbers":[47,65,51,53,50],"points_earned":282,"trial_type":"horizons-task","trial_index":23,"time_elapsed":319664,"internal_node_id":"0.0-19.0"},{"response_times":[464.76999996230006,479.95500010438263,463.86999997776,527.985000051558,2112.099999911152],"keys_pressed":["leftarrow","rightarrow","rightarrow","leftarrow","leftarrow"],"horizon":5,"forced_choices":["leftarrow","rightarrow","rightarrow","leftarrow"],"right_color":"orange","left_color":"lightblue","left_mu":60,"right_mu":56,"left_numbers":[55,69,55,66,66],"right_numbers":[60,59,42,45,41],"points_earned":288,"trial_type":"horizons-task","trial_index":24,"time_elapsed":325217,"internal_node_id":"0.0-20.0"},{"response_times":[576.4150000177324,416.0200000042096,591.9050000375137,543.8850000500679,3631.7699999781325],"keys_pressed":["rightarrow","rightarrow","leftarrow","rightarrow","rightarrow"],"horizon":5,"forced_choices":["rightarrow","rightarrow","leftarrow","rightarrow"],"right_color":"lightblue","left_color":"orange","left_mu":60,"right_mu":64,"left_numbers":[57,53,69,63,56],"right_numbers":[63,64,61,79,71],"points_earned":346,"trial_type":"horizons-task","trial_index":25,"time_elapsed":332481,"internal_node_id":"0.0-21.0"},{"response_times":[528.165000025183,463.4500000393018,575.8599999826401,448.30499996896833,1967.8599999751896],"keys_pressed":["leftarrow","leftarrow","rightarrow","rightarrow","leftarrow"],"horizon":5,"forced_choices":["leftarrow","leftarrow","rightarrow","rightarrow"],"right_color":"orange","left_color":"lightblue","left_mu":60,"right_mu":56,"left_numbers":[54,65,54,48,68],"right_numbers":[63,52,53,51,53],"points_earned":291,"trial_type":"horizons-task","trial_index":26,"time_elapsed":337968,"internal_node_id":"0.0-22.0"},{"response_times":[928.7649999605492,383.960000006482,943.5250000096858,784.5700000179932,767.7600000752136],"keys_pressed":["rightarrow","rightarrow","leftarrow","leftarrow","rightarrow"],"horizon":5,"forced_choices":["rightarrow","rightarrow","leftarrow","leftarrow"],"right_color":"lightblue","left_color":"orange","left_mu":40,"right_mu":48,"left_numbers":[47,40,35,41,47],"right_numbers":[43,63,53,56,49],"points_earned":231,"trial_type":"horizons-task","trial_index":27,"time_elapsed":343280,"internal_node_id":"0.0-23.0"},{"response_times":[544.3299999460578,415.90999998152256,416.0700000356883,735.9850000357255,3039.839999983087,511.8800000054762,591.9599999906495,464.01500003412366,431.89500004518777,383.99500004015863],"keys_pressed":["rightarrow","rightarrow","rightarrow","leftarrow","rightarrow","rightarrow","rightarrow","rightarrow","rightarrow","rightarrow"],"horizon":10,"forced_choices":["rightarrow","rightarrow","rightarrow","leftarrow"],"right_color":"lightblue","left_color":"orange","left_mu":60,"right_mu":68,"left_numbers":[67,62,56,51,58,64,49,60,53,63],"right_numbers":[78,54,68,79,49,65,72,76,62,78],"points_earned":653,"trial_type":"horizons-task","trial_index":28,"time_elapsed":352320,"internal_node_id":"0.0-24.0"},{"response_times":[496.82999996002764,479.7349999425933,895.7749999826774,735.964999999851,1888.1050000200048,415.8600000664592,383.90500005334616,257.1699999971315,302.6949999621138,272.0550000667572],"keys_pressed":["rightarrow","leftarrow","rightarrow","leftarrow","rightarrow","leftarrow","leftarrow","leftarrow","leftarrow","leftarrow"],"horizon":10,"forced_choices":["rightarrow","leftarrow","rightarrow","leftarrow"],"right_color":"lightblue","left_color":"orange","left_mu":40,"right_mu":10,"left_numbers":[49,33,29,17,34,30,45,36,32,39],"right_numbers":[9,12,11,13,9,0,17,12,4,2],"points_earned":261,"trial_type":"horizons-task","trial_index":29,"time_elapsed":359952,"internal_node_id":"0.0-25.0"},{"response_times":[720.5800000810996,463.7750000692904,544.859999907203,719.1400000592694,1696.25499995891,367.66999994870275,447.6049999939278,256.21500005945563,320.1099999714643,351.91000008489937],"keys_pressed":["leftarrow","rightarrow","rightarrow","leftarrow","leftarrow","leftarrow","leftarrow","leftarrow","leftarrow","leftarrow"],"horizon":10,"forced_choices":["leftarrow","rightarrow","rightarrow","leftarrow"],"right_color":"orange","left_color":"lightblue","left_mu":60,"right_mu":30,"left_numbers":[67,65,66,61,63,49,56,59,56,68],"right_numbers":[21,17,20,23,29,28,32,40,33,35],"points_earned":516,"trial_type":"horizons-task","trial_index":30,"time_elapsed":367344,"internal_node_id":"0.0-26.0"},{"response_times":[689.079999923706,367.824999964796,671.9949999824166,528.0199999688193,4608.159999945201],"keys_pressed":["leftarrow","rightarrow","leftarrow","rightarrow","leftarrow"],"horizon":5,"forced_choices":["leftarrow","rightarrow","leftarrow","rightarrow"],"right_color":"orange","left_color":"lightblue","left_mu":40,"right_mu":28,"left_numbers":[23,35,34,49,36],"right_numbers":[19,31,26,27,13],"points_earned":151,"trial_type":"horizons-task","trial_index":31,"time_elapsed":375712,"internal_node_id":"0.0-27.0"},{"response_times":[543.680000002496,479.79999997187406,720.0149999698624,848.0250000720844,959.7250000806525],"keys_pressed":["leftarrow","leftarrow","rightarrow","leftarrow","leftarrow"],"horizon":5,"forced_choices":["leftarrow","leftarrow","rightarrow","leftarrow"],"right_color":"lightblue","left_color":"orange","left_mu":60,"right_mu":48,"left_numbers":[66,50,56,45,61],"right_numbers":[57,56,54,44,58],"points_earned":276,"trial_type":"horizons-task","trial_index":32,"time_elapsed":380768,"internal_node_id":"0.0-28.0"},{"response_times":[576.3949999818578,447.8499999968335,448.1999999843538,479.80999993160367,2433.034999994561,414.8849999764934,207.76000001933426,192.01500003691763,288.06000004988164,319.90500004030764],"keys_pressed":["rightarrow","leftarrow","leftarrow","rightarrow","rightarrow","rightarrow","rightarrow","rightarrow","rightarrow","rightarrow"],"horizon":10,"forced_choices":["rightarrow","leftarrow","leftarrow","rightarrow"],"right_color":"orange","left_color":"lightblue","left_mu":40,"right_mu":70,"left_numbers":[33,46,45,41,41,35,45,37,35,38],"right_numbers":[75,66,84,57,67,60,62,78,80,62],"points_earned":632,"trial_type":"horizons-task","trial_index":33,"time_elapsed":388080,"internal_node_id":"0.0-29.0"},{"response_times":[656.5899999113753,463.98000000044703,560.5900000082329,479.2249999009073,1344.0150000387803,864.034999976866,415.9549999749288,351.88500001095235,303.97000000812113,2144.13999998942],"keys_pressed":["leftarrow","rightarrow","leftarrow","rightarrow","leftarrow","leftarrow","leftarrow","leftarrow","leftarrow","rightarrow"],"horizon":10,"forced_choices":["leftarrow","rightarrow","leftarrow","rightarrow"],"right_color":"orange","left_color":"lightblue","left_mu":60,"right_mu":48,"left_numbers":[78,58,48,59,55,66,61,53,56,58],"right_numbers":[48,57,47,55,40,30,17,45,50,50],"points_earned":579,"trial_type":"horizons-task","trial_index":34,"time_elapsed":397168,"internal_node_id":"0.0-30.0"},{"response_times":[576.5899999532849,416.02500004228204,815.8899999689311,1135.8799999579787,3167.935000034049],"keys_pressed":["rightarrow","leftarrow","rightarrow","rightarrow","leftarrow"],"horizon":5,"forced_choices":["rightarrow","leftarrow","rightarrow","rightarrow"],"right_color":"orange","left_color":"lightblue","left_mu":40,"right_mu":20,"left_numbers":[43,23,34,48,44],"right_numbers":[16,14,18,23,14],"points_earned":124,"trial_type":"horizons-task","trial_index":35,"time_elapsed":404784,"internal_node_id":"0.0-31.0"},{"response_times":[752.8499999316409,400.3149999771267,431.5700000151992,495.8950000582263,3215.525000006892,192.38000002223998,751.9600000232458,1183.9600000530481,672.0049999421462,367.81000008340925],"keys_pressed":["leftarrow","rightarrow","rightarrow","leftarrow","leftarrow","rightarrow","rightarrow","rightarrow","rightarrow","rightarrow"],"horizon":10,"forced_choices":["leftarrow","rightarrow","rightarrow","leftarrow"],"right_color":"lightblue","left_color":"orange","left_mu":60,"right_mu":64,"left_numbers":[64,57,56,67,44,65,46,44,71,47],"right_numbers":[62,67,65,63,68,61,57,72,70,59],"points_earned":626,"trial_type":"horizons-task","trial_index":36,"time_elapsed":414751,"internal_node_id":"0.0-32.0"},{"response_times":[640.8499999670312,383.9250000892207,448.2099999440834,847.7849999908358,1727.915000054054,271.85000001918525,879.9300000537187,272.12500001769513,2879.8850000603124,239.76000002585351],"keys_pressed":["leftarrow","rightarrow","rightarrow","rightarrow","leftarrow","rightarrow","leftarrow","leftarrow","leftarrow","leftarrow"],"horizon":10,"forced_choices":["leftarrow","rightarrow","rightarrow","rightarrow"],"right_color":"lightblue","left_color":"orange","left_mu":40,"right_mu":28,"left_numbers":[36,27,38,48,45,54,38,49,41,35],"right_numbers":[36,22,32,23,24,38,22,30,32,22],"points_earned":359,"trial_type":"horizons-task","trial_index":37,"time_elapsed":424847,"internal_node_id":"0.0-33.0"},{"response_times":[543.9699999988079,255.8600000338629,736.2049999646842,703.7150000687689,960.0349999964237,431.93500000052154,287.87999995984137,175.89000007137656,176.11000000033528,303.7849999964237],"keys_pressed":["leftarrow","rightarrow","rightarrow","rightarrow","rightarrow","rightarrow","rightarrow","rightarrow","rightarrow","rightarrow"],"horizon":10,"forced_choices":["leftarrow","rightarrow","rightarrow","rightarrow"],"right_color":"lightblue","left_color":"orange","left_mu":60,"right_mu":90,"left_numbers":[73,57,46,56,45,53,60,50,58,58],"right_numbers":[100,97,94,94,93,91,86,95,81,83],"points_earned":887,"trial_type":"horizons-task","trial_index":38,"time_elapsed":430928,"internal_node_id":"0.0-34.0"},{"response_times":[639.6350000286475,432.0499999448657,655.8449999429286,719.9900000123307,2239.9799999548122,383.9000000152737,1008.3700000541285,223.49999996367842,1024.0400000475347,159.78999994695187],"keys_pressed":["leftarrow","rightarrow","leftarrow","leftarrow","leftarrow","rightarrow","rightarrow","leftarrow","leftarrow","rightarrow"],"horizon":10,"forced_choices":["leftarrow","rightarrow","leftarrow","leftarrow"],"right_color":"orange","left_color":"lightblue","left_mu":40,"right_mu":36,"left_numbers":[44,45,42,54,47,40,39,35,39,29],"right_numbers":[37,42,33,31,38,49,38,30,29,48],"points_earned":438,"trial_type":"horizons-task","trial_index":39,"time_elapsed":439919,"internal_node_id":"0.0-35.0"},{"response_times":[735.5499999830499,367.7550000138581,543.9200000837445,735.5699999025092,1088.2350000320002],"keys_pressed":["leftarrow","rightarrow","rightarrow","rightarrow","rightarrow"],"horizon":5,"forced_choices":["leftarrow","rightarrow","rightarrow","rightarrow"],"right_color":"lightblue","left_color":"orange","left_mu":60,"right_mu":90,"left_numbers":[68,49,70,75,60],"right_numbers":[99,85,92,91,94],"points_earned":430,"trial_type":"horizons-task","trial_index":40,"time_elapsed":444895,"internal_node_id":"0.0-36.0"},{"response_times":[800.3849999513477,447.8649999946356,736.049999948591,752.2400000598282,863.5800000047311,224.07999995630234,159.97499995864928,159.83500005677342,191.9299999717623,447.9900000151247],"keys_pressed":["rightarrow","rightarrow","leftarrow","rightarrow","rightarrow","rightarrow","rightarrow","rightarrow","rightarrow","rightarrow"],"horizon":10,"forced_choices":["rightarrow","rightarrow","leftarrow","rightarrow"],"right_color":"orange","left_color":"lightblue","left_mu":60,"right_mu":90,"left_numbers":[61,59,55,76,81,62,68,55,58,63],"right_numbers":[88,94,86,87,95,91,83,111,81,89],"points_earned":874,"trial_type":"horizons-task","trial_index":41,"time_elapsed":451183,"internal_node_id":"0.0-37.0"},{"response_times":[544.2449999973178,383.98000004235655,608.2000000169501,639.7799999685958,975.9100000374019],"keys_pressed":["rightarrow","leftarrow","leftarrow","rightarrow","leftarrow"],"horizon":5,"forced_choices":["rightarrow","leftarrow","leftarrow","rightarrow"],"right_color":"orange","left_color":"lightblue","left_mu":60,"right_mu":64,"left_numbers":[73,71,70,66,65],"right_numbers":[67,63,68,63,70],"points_earned":336,"trial_type":"horizons-task","trial_index":42,"time_elapsed":455840,"internal_node_id":"0.0-38.0"},{"response_times":[480.94499995931983,352.0649999845773,1056.040000054054,719.7900000028312,2288.064999971539,529.0299999760464,510.66000002902,288.1000000052154,255.82500000018626,223.92999997828156],"keys_pressed":["leftarrow","rightarrow","leftarrow","rightarrow","leftarrow","leftarrow","leftarrow","leftarrow","leftarrow","leftarrow"],"horizon":10,"forced_choices":["leftarrow","rightarrow","leftarrow","rightarrow"],"right_color":"lightblue","left_color":"orange","left_mu":60,"right_mu":56,"left_numbers":[60,66,51,66,63,58,56,44,56,57],"right_numbers":[63,46,54,45,53,63,79,50,53,54],"points_earned":536,"trial_type":"horizons-task","trial_index":43,"time_elapsed":464047,"internal_node_id":"0.0-39.0"},{"response_times":[640.7849999377504,433.17500001285225,654.6399999642745,639.8849999532104,1312.0549999875948,784.2250000685453,703.745000064373,1295.854999916628,639.919999986887,559.8549999995157],"keys_pressed":["rightarrow","leftarrow","rightarrow","rightarrow","leftarrow","leftarrow","rightarrow","leftarrow","rightarrow","leftarrow"],"horizon":10,"forced_choices":["rightarrow","leftarrow","rightarrow","rightarrow"],"right_color":"lightblue","left_color":"orange","left_mu":60,"right_mu":48,"left_numbers":[67,74,62,64,49,59,57,57,57,54],"right_numbers":[34,52,43,57,51,45,62,45,47,52],"points_earned":536,"trial_type":"horizons-task","trial_index":44,"time_elapsed":473215,"internal_node_id":"0.0-40.0"},{"response_times":[624.779999954626,399.79000005405396,656.0049999970943,544.0349999116734,1712.9399999976158],"keys_pressed":["rightarrow","leftarrow","leftarrow","leftarrow","rightarrow"],"horizon":5,"forced_choices":["rightarrow","leftarrow","leftarrow","leftarrow"],"right_color":"lightblue","left_color":"orange","left_mu":40,"right_mu":48,"left_numbers":[46,38,44,38,47],"right_numbers":[52,43,30,62,56],"points_earned":228,"trial_type":"horizons-task","trial_index":45,"time_elapsed":478656,"internal_node_id":"0.0-41.0"},{"response_times":[464.3299999879673,447.52500008326024,752.1649999544024,479.86500000115484,911.8500000331551],"keys_pressed":["leftarrow","rightarrow","leftarrow","rightarrow","leftarrow"],"horizon":5,"forced_choices":["leftarrow","rightarrow","leftarrow","rightarrow"],"right_color":"lightblue","left_color":"orange","left_mu":40,"right_mu":10,"left_numbers":[39,35,28,48,43],"right_numbers":[14,8,3,28,10],"points_earned":146,"trial_type":"horizons-task","trial_index":46,"time_elapsed":483215,"internal_node_id":"0.0-42.0"},{"response_times":[560.9049999620765,447.82000000122935,608.0599999986589,768.0549999931827,1295.8349999971688,1199.919999926351,207.95000006910414,192.00999999884516,415.96000001300126,175.84500007797033],"keys_pressed":["rightarrow","leftarrow","rightarrow","leftarrow","leftarrow","leftarrow","leftarrow","leftarrow","leftarrow","leftarrow"],"horizon":10,"forced_choices":["rightarrow","leftarrow","rightarrow","leftarrow"],"right_color":"lightblue","left_color":"orange","left_mu":60,"right_mu":52,"left_numbers":[63,60,69,60,68,59,62,62,65,67],"right_numbers":[46,35,51,56,43,60,34,58,33,44],"points_earned":600,"trial_type":"horizons-task","trial_index":47,"time_elapsed":490591,"internal_node_id":"0.0-43.0"},{"response_times":[529.5449999393895,368.11999999918044,559.8649999592453,495.9700000472367,688.0000000819564,303.91499993856996,335.98500001244247,175.8350000018254,304.0449999971315,175.9350000647828],"keys_pressed":["rightarrow","leftarrow","leftarrow","rightarrow","rightarrow","rightarrow","rightarrow","rightarrow","rightarrow","rightarrow"],"horizon":10,"forced_choices":["rightarrow","leftarrow","leftarrow","rightarrow"],"right_color":"lightblue","left_color":"orange","left_mu":40,"right_mu":70,"left_numbers":[26,43,50,38,31,38,38,43,40,16],"right_numbers":[80,69,63,74,79,66,65,70,59,78],"points_earned":664,"trial_type":"horizons-task","trial_index":48,"time_elapsed":496030,"internal_node_id":"0.0-44.0"},{"view_history":"[{\"page_index\":0,\"viewing_time\":43103.69500005618},{\"page_index\":1,\"viewing_time\":4379.539999994449}]","rt":47483.68499998469,"trial_type":"instructions","trial_index":49,"time_elapsed":543515,"internal_node_id":"0.0-45.0"},{"response_times":[1807.6599999330938,543.7950000632554,607.8899999847636,624.0100000286475,767.9350000107661],"keys_pressed":["rightarrow","leftarrow","leftarrow","rightarrow","rightarrow"],"horizon":5,"forced_choices":["rightarrow","leftarrow","leftarrow","rightarrow"],"right_color":"orange","left_color":"lightblue","left_mu":60,"right_mu":90,"left_numbers":[50,63,58,71,44],"right_numbers":[105,90,79,87,91],"points_earned":404,"trial_type":"horizons-task","trial_index":50,"time_elapsed":549374,"internal_node_id":"0.0-46.0"},{"response_times":[432.62000009417534,415.68000009283423,464.0049999579787,687.8750000614673,864.0250000171363],"keys_pressed":["rightarrow","leftarrow","leftarrow","leftarrow","rightarrow"],"horizon":5,"forced_choices":["rightarrow","leftarrow","leftarrow","leftarrow"],"right_color":"orange","left_color":"lightblue","left_mu":60,"right_mu":90,"left_numbers":[55,51,60,65,58],"right_numbers":[86,95,86,96,98],"points_earned":360,"trial_type":"horizons-task","trial_index":51,"time_elapsed":553742,"internal_node_id":"0.0-47.0"},{"response_times":[528.4799999790266,479.8599999630824,752.0850000437349,1199.8649999732152,1279.9150000791997],"keys_pressed":["leftarrow","rightarrow","leftarrow","rightarrow","rightarrow"],"horizon":5,"forced_choices":["leftarrow","rightarrow","leftarrow","rightarrow"],"right_color":"lightblue","left_color":"orange","left_mu":40,"right_mu":70,"left_numbers":[49,42,45,38,42],"right_numbers":[65,78,65,56,61],"points_earned":289,"trial_type":"horizons-task","trial_index":52,"time_elapsed":559486,"internal_node_id":"0.0-48.0"},{"response_times":[561.0950000118464,319.65499999932945,527.9949998948723,639.8449999978766,704.1349998908117],"keys_pressed":["rightarrow","leftarrow","leftarrow","rightarrow","leftarrow"],"horizon":5,"forced_choices":["rightarrow","leftarrow","leftarrow","rightarrow"],"right_color":"orange","left_color":"lightblue","left_mu":60,"right_mu":30,"left_numbers":[61,50,58,60,65],"right_numbers":[18,33,23,15,32],"points_earned":206,"trial_type":"horizons-task","trial_index":53,"time_elapsed":563742,"internal_node_id":"0.0-49.0"},{"response_times":[496.20000005234033,447.9249999858439,511.94500003475696,560.1150000002235,799.7849999228492],"keys_pressed":["leftarrow","leftarrow","leftarrow","rightarrow","leftarrow"],"horizon":5,"forced_choices":["leftarrow","leftarrow","leftarrow","rightarrow"],"right_color":"orange","left_color":"lightblue","left_mu":40,"right_mu":44,"left_numbers":[52,47,54,36,49],"right_numbers":[56,50,34,38,46],"points_earned":240,"trial_type":"horizons-task","trial_index":54,"time_elapsed":568061,"internal_node_id":"0.0-50.0"},{"response_times":[560.6599999591708,447.6649999851361,480.1049999659881,608.2350000506267,639.6800000220537],"keys_pressed":["rightarrow","rightarrow","leftarrow","rightarrow","leftarrow"],"horizon":5,"forced_choices":["rightarrow","rightarrow","leftarrow","rightarrow"],"right_color":"lightblue","left_color":"orange","left_mu":40,"right_mu":20,"left_numbers":[37,40,42,54,34],"right_numbers":[23,12,31,38,23],"points_earned":149,"trial_type":"horizons-task","trial_index":55,"time_elapsed":572302,"internal_node_id":"0.0-51.0"},{"response_times":[544.0399999497458,431.940000038594,687.9399999743327,527.8999999864027,800.0250000040978,591.8300000485033,208.3499999716878,159.63000000920147,415.9199999412522,224.07000011298805],"keys_pressed":["leftarrow","rightarrow","leftarrow","rightarrow","leftarrow","leftarrow","leftarrow","leftarrow","leftarrow","leftarrow"],"horizon":10,"forced_choices":["leftarrow","rightarrow","leftarrow","rightarrow"],"right_color":"lightblue","left_color":"orange","left_mu":40,"right_mu":20,"left_numbers":[41,37,35,41,31,35,45,39,26,35],"right_numbers":[25,15,10,13,7,28,8,31,18,19],"points_earned":315,"trial_type":"horizons-task","trial_index":56,"time_elapsed":578398,"internal_node_id":"0.0-52.0"},{"response_times":[800.5899999989197,463.92499993089586,544.3700000178069,911.7049999767914,1007.7499999897555,432.0150000276044,607.9499999759719,207.87500008009374,176.54999997466803,399.4599999859929],"keys_pressed":["rightarrow","leftarrow","leftarrow","leftarrow","rightarrow","leftarrow","leftarrow","leftarrow","leftarrow","leftarrow"],"horizon":10,"forced_choices":["rightarrow","leftarrow","leftarrow","leftarrow"],"right_color":"orange","left_color":"lightblue","left_mu":60,"right_mu":56,"left_numbers":[70,63,55,63,46,53,60,58,73,56],"right_numbers":[36,57,65,56,48,44,64,47,52,60],"points_earned":565,"trial_type":"horizons-task","trial_index":57,"time_elapsed":585453,"internal_node_id":"0.0-53.0"},{"response_times":[529.454999952577,399.81499989517033,463.9750000787899,527.9099999461323,2336.079999920912,800.1200000289828,591.6849999921396,1071.9350000144914,495.8900000201538,1168.0449999403208],"keys_pressed":["leftarrow","leftarrow","leftarrow","rightarrow","leftarrow","rightarrow","leftarrow","rightarrow","leftarrow","leftarrow"],"horizon":10,"forced_choices":["leftarrow","leftarrow","leftarrow","rightarrow"],"right_color":"orange","left_color":"lightblue","left_mu":40,"right_mu":48,"left_numbers":[35,40,53,28,48,42,26,38,43,39],"right_numbers":[49,47,56,45,57,44,54,45,33,33],"points_earned":418,"trial_type":"horizons-task","trial_index":58,"time_elapsed":595342,"internal_node_id":"0.0-54.0"},{"response_times":[704.4999999925494,367.99499997869134,511.78500009700656,448.0350000085309,1136.0300000524148,367.8749999962747,207.9900000244379,175.95000006258488,207.90999999735504,191.90000009257346],"keys_pressed":["rightarrow","leftarrow","leftarrow","rightarrow","leftarrow","leftarrow","leftarrow","leftarrow","leftarrow","leftarrow"],"horizon":10,"forced_choices":["rightarrow","leftarrow","leftarrow","rightarrow"],"right_color":"lightblue","left_color":"orange","left_mu":40,"right_mu":28,"left_numbers":[35,39,58,36,56,35,40,41,47,25],"right_numbers":[26,16,32,23,43,26,21,31,26,44],"points_earned":390,"trial_type":"horizons-task","trial_index":59,"time_elapsed":601165,"internal_node_id":"0.0-55.0"},{"response_times":[497.34000000171363,335.7600000454113,735.8000000240281,576.2099999701604,1375.6349999457598,543.9900000346825,192.0049999607727,191.89499993808568,447.9999999748543,639.9650000967085],"keys_pressed":["leftarrow","rightarrow","leftarrow","rightarrow","leftarrow","leftarrow","leftarrow","leftarrow","leftarrow","rightarrow"],"horizon":10,"forced_choices":["leftarrow","rightarrow","leftarrow","rightarrow"],"right_color":"lightblue","left_color":"orange","left_mu":60,"right_mu":48,"left_numbers":[64,52,59,53,53,60,64,56,63,64],"right_numbers":[58,38,50,51,41,56,58,50,34,56],"points_earned":564,"trial_type":"horizons-task","trial_index":60,"time_elapsed":608204,"internal_node_id":"0.0-56.0"},{"response_times":[624.820000026375,383.7849999545142,575.9599999291822,399.9700000276789,1391.9750000350177],"keys_pressed":["rightarrow","leftarrow","rightarrow","leftarrow","rightarrow"],"horizon":5,"forced_choices":["rightarrow","leftarrow","rightarrow","leftarrow"],"right_color":"orange","left_color":"lightblue","left_mu":60,"right_mu":68,"left_numbers":[81,68,47,61,69],"right_numbers":[77,58,79,69,64],"points_earned":349,"trial_type":"horizons-task","trial_index":61,"time_elapsed":613085,"internal_node_id":"0.0-57.0"},{"response_times":[448.7799999769777,463.69500004220754,480.2050000289455,575.539999990724,2032.1100000292063],"keys_pressed":["leftarrow","leftarrow","leftarrow","rightarrow","rightarrow"],"horizon":5,"forced_choices":["leftarrow","leftarrow","leftarrow","rightarrow"],"right_color":"orange","left_color":"lightblue","left_mu":60,"right_mu":90,"left_numbers":[63,63,44,54,49],"right_numbers":[93,100,90,72,78],"points_earned":320,"trial_type":"horizons-task","trial_index":62,"time_elapsed":618589,"internal_node_id":"0.0-58.0"},{"response_times":[576.1800000909716,399.99000006355345,464.29999999236315,527.7199998963624,656.0599999502301,3072.1999999368563,767.61500001885,303.94500005058944,447.9999999748543,783.8900000788271],"keys_pressed":["rightarrow","leftarrow","leftarrow","leftarrow","rightarrow","rightarrow","rightarrow","rightarrow","leftarrow","rightarrow"],"horizon":10,"forced_choices":["rightarrow","leftarrow","leftarrow","leftarrow"],"right_color":"lightblue","left_color":"orange","left_mu":40,"right_mu":52,"left_numbers":[33,41,33,44,42,41,40,41,44,39],"right_numbers":[57,60,43,41,39,42,46,38,63,47],"points_earned":431,"trial_type":"horizons-task","trial_index":63,"time_elapsed":628093,"internal_node_id":"0.0-59.0"},{"response_times":[608.2499999320135,319.87999996636063,480.0950000062585,463.7750000692904,2064.1149999573827],"keys_pressed":["rightarrow","leftarrow","leftarrow","leftarrow","leftarrow"],"horizon":5,"forced_choices":["rightarrow","leftarrow","leftarrow","leftarrow"],"right_color":"lightblue","left_color":"orange","left_mu":60,"right_mu":48,"left_numbers":[66,58,62,50,50],"right_numbers":[29,50,48,55,41],"points_earned":249,"trial_type":"horizons-task","trial_index":64,"time_elapsed":633532,"internal_node_id":"0.0-60.0"},{"response_times":[624.9349999707192,304.29999995976686,431.6700000781566,607.9049999825656,2128.0050000641495,591.8599999276921,623.9749999949709,159.9850000347942,175.87499995715916,159.6650000428781],"keys_pressed":["rightarrow","leftarrow","leftarrow","leftarrow","rightarrow","rightarrow","rightarrow","rightarrow","rightarrow","rightarrow"],"horizon":10,"forced_choices":["rightarrow","leftarrow","leftarrow","leftarrow"],"right_color":"orange","left_color":"lightblue","left_mu":60,"right_mu":80,"left_numbers":[37,70,62,67,68,51,60,62,50,61],"right_numbers":[88,75,81,74,85,79,85,91,80,72],"points_earned":779,"trial_type":"horizons-task","trial_index":65,"time_elapsed":640844,"internal_node_id":"0.0-61.0"},{"response_times":[577.0300000440329,303.9499999722466,480.06500001065433,431.81000009644777,1328.0050000175834,239.8599999723956,560.2700000163168,191.56499998643994,160.77499999664724,159.23499991185963],"keys_pressed":["rightarrow","leftarrow","leftarrow","rightarrow","leftarrow","leftarrow","leftarrow","leftarrow","leftarrow","leftarrow"],"horizon":10,"forced_choices":["rightarrow","leftarrow","leftarrow","rightarrow"],"right_color":"orange","left_color":"lightblue","left_mu":60,"right_mu":40,"left_numbers":[58,63,66,60,65,68,82,53,57,75],"right_numbers":[62,42,48,43,39,43,42,49,26,44],"points_earned":634,"trial_type":"horizons-task","trial_index":66,"time_elapsed":646780,"internal_node_id":"0.0-62.0"},{"response_times":[499.5900000212714,431.95499991998076,527.875000028871,687.9500000504777,1231.9949999218807],"keys_pressed":["rightarrow","rightarrow","leftarrow","leftarrow","leftarrow"],"horizon":5,"forced_choices":["rightarrow","rightarrow","leftarrow","leftarrow"],"right_color":"orange","left_color":"lightblue","left_mu":60,"right_mu":48,"left_numbers":[58,49,59,63,68],"right_numbers":[35,57,51,67,53],"points_earned":282,"trial_type":"horizons-task","trial_index":67,"time_elapsed":651677,"internal_node_id":"0.0-63.0"},{"response_times":[464.29000003263354,447.96999997925013,383.8749999413267,560.0650000851601,1792.299999971874,1103.4699999727309,447.9499999433756,272.72999996785074,191.25500007066876,224.0349999628961],"keys_pressed":["leftarrow","rightarrow","rightarrow","rightarrow","leftarrow","rightarrow","leftarrow","leftarrow","leftarrow","leftarrow"],"horizon":10,"forced_choices":["leftarrow","rightarrow","rightarrow","rightarrow"],"right_color":"lightblue","left_color":"orange","left_mu":60,"right_mu":40,"left_numbers":[70,54,62,62,56,55,66,68,50,64],"right_numbers":[42,45,56,49,26,38,36,31,43,41],"points_earned":562,"trial_type":"horizons-task","trial_index":68,"time_elapsed":659069,"internal_node_id":"0.0-64.0"},{"response_times":[560.1549999555573,367.8999999538064,431.93500000052154,416.1399999866262,3088.1850000005215,591.4699999848381,272.0149999950081,527.9400000581518,528.3200000412762,463.6000000173226],"keys_pressed":["rightarrow","leftarrow","leftarrow","rightarrow","rightarrow","rightarrow","leftarrow","rightarrow","leftarrow","rightarrow"],"horizon":10,"forced_choices":["rightarrow","leftarrow","leftarrow","rightarrow"],"right_color":"orange","left_color":"lightblue","left_mu":40,"right_mu":48,"left_numbers":[26,46,46,34,45,38,43,33,34,43],"right_numbers":[43,45,40,51,31,55,49,42,52,46],"points_earned":437,"trial_type":"horizons-task","trial_index":69,"time_elapsed":667821,"internal_node_id":"0.0-65.0"},{"response_times":[560.6250000419095,495.8699999842793,447.9849999770522,480.23500002454966,1887.7400000346825,223.81999995559454,768.0949999485165,2111.8250000290573,303.87000006157905,224.0849999943748],"keys_pressed":["leftarrow","leftarrow","leftarrow","rightarrow","leftarrow","rightarrow","rightarrow","leftarrow","leftarrow","leftarrow"],"horizon":10,"forced_choices":["leftarrow","leftarrow","leftarrow","rightarrow"],"right_color":"orange","left_color":"lightblue","left_mu":40,"right_mu":32,"left_numbers":[36,49,30,41,31,41,33,38,31,44],"right_numbers":[30,17,26,32,21,39,39,24,21,23],"points_earned":369,"trial_type":"horizons-task","trial_index":70,"time_elapsed":676829,"internal_node_id":"0.0-66.0"},{"response_times":[736.5749999880791,399.62000004015863,495.94499997328967,479.93999999016523,2608.129999949597],"keys_pressed":["leftarrow","rightarrow","rightarrow","leftarrow","leftarrow"],"horizon":5,"forced_choices":["leftarrow","rightarrow","rightarrow","leftarrow"],"right_color":"orange","left_color":"lightblue","left_mu":60,"right_mu":48,"left_numbers":[60,64,64,46,60],"right_numbers":[52,47,52,45,55],"points_earned":265,"trial_type":"horizons-task","trial_index":71,"time_elapsed":683053,"internal_node_id":"0.0-67.0"},{"response_times":[512.0350000215694,367.91999998968095,431.93500000052154,447.965000057593,3376.3050000416115,607.5650000711903,847.9000000515953,560.0550000090152,1151.954999892041,383.87000001966953],"keys_pressed":["leftarrow","rightarrow","rightarrow","rightarrow","rightarrow","leftarrow","leftarrow","rightarrow","rightarrow","rightarrow"],"horizon":10,"forced_choices":["leftarrow","rightarrow","rightarrow","rightarrow"],"right_color":"orange","left_color":"lightblue","left_mu":60,"right_mu":64,"left_numbers":[56,62,66,58,62,66,54,61,62,51],"right_numbers":[60,64,67,61,58,56,68,65,61,70],"points_earned":622,"trial_type":"horizons-task","trial_index":72,"time_elapsed":693244,"internal_node_id":"0.0-68.0"},{"response_times":[848.4150000149384,384.0150000760332,431.86000001151115,1007.990000071004,1391.9000000460073],"keys_pressed":["leftarrow","rightarrow","leftarrow","rightarrow","leftarrow"],"horizon":5,"forced_choices":["leftarrow","rightarrow","leftarrow","rightarrow"],"right_color":"orange","left_color":"lightblue","left_mu":60,"right_mu":30,"left_numbers":[57,42,68,67,50],"right_numbers":[25,28,24,36,42],"points_earned":239,"trial_type":"horizons-task","trial_index":73,"time_elapsed":698813,"internal_node_id":"0.0-69.0"},{"response_times":[608.1949999788776,335.6099999509752,495.920000015758,719.9949999339879,1535.9499999321997,1087.8750000847504,496.02500000037253,335.89500002563,255.95999998040497,240.14000000897795],"keys_pressed":["leftarrow","rightarrow","rightarrow","rightarrow","leftarrow","rightarrow","rightarrow","leftarrow","leftarrow","leftarrow"],"horizon":10,"forced_choices":["leftarrow","rightarrow","rightarrow","rightarrow"],"right_color":"lightblue","left_color":"orange","left_mu":40,"right_mu":36,"left_numbers":[40,54,37,30,36,37,23,36,42,46],"right_numbers":[49,43,32,21,19,35,27,25,41,44],"points_earned":358,"trial_type":"horizons-task","trial_index":74,"time_elapsed":706429,"internal_node_id":"0.0-70.0"},{"response_times":[624.01500006672,335.9399999026209,687.9549999721348,512.0200000237674,2992.1050000702962,207.65499991830438,159.9099999293685,207.8999999212101,192.0149999205023,399.959999951534],"keys_pressed":["leftarrow","rightarrow","leftarrow","rightarrow","leftarrow","leftarrow","leftarrow","leftarrow","leftarrow","leftarrow"],"horizon":10,"forced_choices":["leftarrow","rightarrow","leftarrow","rightarrow"],"right_color":"lightblue","left_color":"orange","left_mu":40,"right_mu":44,"left_numbers":[42,34,38,33,40,33,33,28,43,46],"right_numbers":[51,34,49,40,42,52,41,53,36,33],"points_earned":377,"trial_type":"horizons-task","trial_index":75,"time_elapsed":714252,"internal_node_id":"0.0-71.0"},{"response_times":[528.8299999665469,463.9750000787899,432.03500006347895,527.8300000354648,767.894999939017],"keys_pressed":["rightarrow","rightarrow","leftarrow","leftarrow","rightarrow"],"horizon":5,"forced_choices":["rightarrow","rightarrow","leftarrow","leftarrow"],"right_color":"orange","left_color":"lightblue","left_mu":40,"right_mu":52,"left_numbers":[35,54,40,30,39],"right_numbers":[52,42,48,50,49],"points_earned":213,"trial_type":"horizons-task","trial_index":76,"time_elapsed":718476,"internal_node_id":"0.0-72.0"},{"response_times":[512.9050000105053,415.88499990757555,432.78999999165535,655.0449999049306,1440.415000077337],"keys_pressed":["leftarrow","rightarrow","rightarrow","rightarrow","leftarrow"],"horizon":5,"forced_choices":["leftarrow","rightarrow","rightarrow","rightarrow"],"right_color":"orange","left_color":"lightblue","left_mu":60,"right_mu":52,"left_numbers":[67,55,61,65,59],"right_numbers":[52,43,55,39,49],"points_earned":263,"trial_type":"horizons-task","trial_index":77,"time_elapsed":723437,"internal_node_id":"0.0-73.0"},{"response_times":[655.7899999897927,351.7100000753999,544.1150000551715,735.9149999683723,1775.870000012219],"keys_pressed":["rightarrow","rightarrow","leftarrow","rightarrow","leftarrow"],"horizon":5,"forced_choices":["rightarrow","rightarrow","leftarrow","rightarrow"],"right_color":"orange","left_color":"lightblue","left_mu":60,"right_mu":40,"left_numbers":[67,63,52,63,59],"right_numbers":[48,44,38,41,46],"points_earned":244,"trial_type":"horizons-task","trial_index":78,"time_elapsed":729004,"internal_node_id":"0.0-74.0"},{"response_times":[528.1499999109656,415.9100000979379,576.0049999225885,416.02500004228204,2704.1100000496954,255.7600000873208,159.98999995645136,207.90999999735504,159.86000001430511,175.9949999395758],"keys_pressed":["rightarrow","rightarrow","leftarrow","leftarrow","rightarrow","rightarrow","rightarrow","rightarrow","rightarrow","rightarrow"],"horizon":10,"forced_choices":["rightarrow","rightarrow","leftarrow","leftarrow"],"right_color":"lightblue","left_color":"orange","left_mu":60,"right_mu":72,"left_numbers":[70,57,49,58,62,67,51,57,46,68],"right_numbers":[57,75,80,75,71,73,74,74,81,59],"points_earned":671,"trial_type":"horizons-task","trial_index":79,"time_elapsed":736108,"internal_node_id":"0.0-75.0"},{"response_times":[607.9849998932332,511.9999999878928,447.8899999521673,432.0999999763444,1855.8949999278411,191.9200000120327,207.88500003982335,175.9949999395758,191.97499996516854,351.9800000358373],"keys_pressed":["leftarrow","leftarrow","rightarrow","rightarrow","rightarrow","rightarrow","rightarrow","rightarrow","rightarrow","rightarrow"],"horizon":10,"forced_choices":["leftarrow","leftarrow","rightarrow","rightarrow"],"right_color":"lightblue","left_color":"orange","left_mu":40,"right_mu":52,"left_numbers":[54,36,31,49,33,37,35,24,42,41],"right_numbers":[56,58,55,49,49,62,39,56,56,42],"points_earned":498,"trial_type":"horizons-task","trial_index":80,"time_elapsed":742588,"internal_node_id":"0.0-76.0"},{"response_times":[1169.1599999321625,511.73500006552786,1039.989999961108,607.8650000272319,1087.9400001140311,191.96999992709607,159.89000000990927,175.97500002011657,175.9100001072511,160.0600000238046],"keys_pressed":["leftarrow","leftarrow","leftarrow","rightarrow","rightarrow","rightarrow","rightarrow","rightarrow","rightarrow","rightarrow"],"horizon":10,"forced_choices":["leftarrow","leftarrow","leftarrow","rightarrow"],"right_color":"lightblue","left_color":"orange","left_mu":40,"right_mu":44,"left_numbers":[35,38,39,42,41,36,33,54,23,49],"right_numbers":[41,56,44,57,47,32,41,42,48,50],"points_earned":429,"trial_type":"horizons-task","trial_index":81,"time_elapsed":749372,"internal_node_id":"0.0-77.0"},{"response_times":[544.2049999255687,416.0249999258667,431.9300000788644,703.8650000467896,959.9549999693409,175.92000006698072,175.87999999523163,368.1150000775233,175.844999961555,208.0149999819696],"keys_pressed":["leftarrow","rightarrow","rightarrow","rightarrow","leftarrow","leftarrow","leftarrow","leftarrow","leftarrow","leftarrow"],"horizon":10,"forced_choices":["leftarrow","rightarrow","rightarrow","rightarrow"],"right_color":"orange","left_color":"lightblue","left_mu":40,"right_mu":28,"left_numbers":[47,34,41,37,45,43,35,35,36,31],"right_numbers":[28,37,30,18,17,17,33,35,11,16],"points_earned":357,"trial_type":"horizons-task","trial_index":82,"time_elapsed":755036,"internal_node_id":"0.0-78.0"},{"response_times":[464.7399999666959,431.5899999346584,832.0550000062212,992.0200000051409,975.8950000395998],"keys_pressed":["leftarrow","rightarrow","leftarrow","leftarrow","rightarrow"],"horizon":5,"forced_choices":["leftarrow","rightarrow","leftarrow","leftarrow"],"right_color":"orange","left_color":"lightblue","left_mu":40,"right_mu":60,"left_numbers":[28,30,44,54,34],"right_numbers":[59,64,57,60,77],"points_earned":267,"trial_type":"horizons-task","trial_index":83,"time_elapsed":760236,"internal_node_id":"0.0-79.0"},{"response_times":[480.05000001285225,383.9199999347329,463.9449999667704,528.7699999753386,1150.9749999968335,224.12999998778105,175.98000005818903,159.8750000121072,191.9550000457093,175.87000003550202],"keys_pressed":["rightarrow","rightarrow","leftarrow","rightarrow","leftarrow","leftarrow","leftarrow","leftarrow","leftarrow","leftarrow"],"horizon":10,"forced_choices":["rightarrow","rightarrow","leftarrow","rightarrow"],"right_color":"orange","left_color":"lightblue","left_mu":60,"right_mu":56,"left_numbers":[71,74,72,60,65,63,54,54,73,56],"right_numbers":[52,56,54,55,67,57,60,49,53,52],"points_earned":600,"trial_type":"horizons-task","trial_index":84,"time_elapsed":765676,"internal_node_id":"0.0-80.0"},{"response_times":[640.3649999992922,511.6700000362471,495.920000015758,464.02499999385327,1679.880000068806,255.89999998919666,223.89500006102026,208.0400000559166,159.94000004138798,191.99500000104308],"keys_pressed":["rightarrow","leftarrow","rightarrow","leftarrow","rightarrow","rightarrow","rightarrow","rightarrow","rightarrow","rightarrow"],"horizon":10,"forced_choices":["rightarrow","leftarrow","rightarrow","leftarrow"],"right_color":"lightblue","left_color":"orange","left_mu":40,"right_mu":44,"left_numbers":[51,43,50,24,43,30,49,47,50,36],"right_numbers":[42,38,46,42,50,53,43,52,50,47],"points_earned":450,"trial_type":"horizons-task","trial_index":85,"time_elapsed":772011,"internal_node_id":"0.0-81.0"},{"response_times":[560.5300000170246,383.8749999413267,543.9999999944121,687.8199999919161,704.1500000050291],"keys_pressed":["rightarrow","leftarrow","leftarrow","leftarrow","leftarrow"],"horizon":5,"forced_choices":["rightarrow","leftarrow","leftarrow","leftarrow"],"right_color":"orange","left_color":"lightblue","left_mu":40,"right_mu":32,"left_numbers":[42,37,26,50,39],"right_numbers":[27,36,26,37,34],"points_earned":179,"trial_type":"horizons-task","trial_index":86,"time_elapsed":776396,"internal_node_id":"0.0-82.0"},{"response_times":[592.4700000323355,400.4049999639392,559.0000000083819,576.204999932088,1487.764999968931,159.98000011313707,143.8649999909103,175.95499998424202,159.99499999452382,143.92000006046146],"keys_pressed":["rightarrow","leftarrow","rightarrow","leftarrow","rightarrow","rightarrow","rightarrow","rightarrow","rightarrow","rightarrow"],"horizon":10,"forced_choices":["rightarrow","leftarrow","rightarrow","leftarrow"],"right_color":"orange","left_color":"lightblue","left_mu":60,"right_mu":72,"left_numbers":[67,55,54,53,57,54,73,59,68,46],"right_numbers":[66,52,73,76,69,76,65,61,69,70],"points_earned":657,"trial_type":"horizons-task","trial_index":87,"time_elapsed":782299,"internal_node_id":"0.0-83.0"},{"response_times":[528.1999999424443,400.1299999654293,479.79000001214445,671.9749999465421,735.9949999954551,159.8099999828264,224.03500007931143,335.9550000168383,191.78999995347112,176.09999992419034],"keys_pressed":["leftarrow","rightarrow","rightarrow","rightarrow","rightarrow","rightarrow","rightarrow","rightarrow","rightarrow","rightarrow"],"horizon":10,"forced_choices":["leftarrow","rightarrow","rightarrow","rightarrow"],"right_color":"orange","left_color":"lightblue","left_mu":60,"right_mu":80,"left_numbers":[58,68,59,64,51,57,74,70,78,48],"right_numbers":[86,86,78,71,80,80,83,74,100,88],"points_earned":798,"trial_type":"horizons-task","trial_index":88,"time_elapsed":787707,"internal_node_id":"0.0-84.0"},{"response_times":[576.7700000433251,431.5450000576675,448.219999903813,687.8149999538437,623.9000000059605,176.08500004280359,159.88000005017966,175.92499998863786,160.0000000325963,159.92499992717057],"keys_pressed":["leftarrow","leftarrow","rightarrow","leftarrow","leftarrow","leftarrow","leftarrow","leftarrow","leftarrow","leftarrow"],"horizon":10,"forced_choices":["leftarrow","leftarrow","rightarrow","leftarrow"],"right_color":"lightblue","left_color":"orange","left_mu":40,"right_mu":32,"left_numbers":[53,42,47,42,65,47,20,45,30,35],"right_numbers":[15,32,29,20,21,36,29,35,36,24],"points_earned":408,"trial_type":"horizons-task","trial_index":89,"time_elapsed":792811,"internal_node_id":"0.0-85.0"},{"rt":14480.525000020862,"responses":{"age":"27","gender-categorical":"Male","gender-free-response":"","ethnicity":"Not Hispanic or Latino","race":["White"],"language":"Yes","fluency":"Very well"},"survey":"demographics","trial_type":"survey-demo","trial_index":90,"time_elapsed":807296,"internal_node_id":"0.0-86.0"},{"rt":33299.53999991994,"responses":{"difficulty":"5","fun":"4","clarity":"5","strategy":"No.  I'm pretty good at figuring out basic averages in my head so I just did that.","feedback":""},"survey":"debrief","trial_type":"survey-debrief","trial_index":91,"time_elapsed":840601,"internal_node_id":"0.0-87.0","interactions":"[]"}]