[{"view_history":"[{\"page_index\":0,\"viewing_time\":3612}]","rt":3613,"trial_type":"instructions","trial_index":0,"time_elapsed":3616,"internal_node_id":"0.0-0.0"},{"item_order":[8,11,7,9,5,0,6,3,1,2,4,10,12],"responses":{"Q09":"1","Q12":"2","Q08":"3","Q10":"3","Q06":"2","Q01":"2","Q07":"3","Q04":"2","Q02":"3","Q03":"2","Q05":"2","Q11":"2","Q13":"4"},"radio_events":[6450,7884,11251,15694,18936,19918,22561,27126,27510,29070,30074,31667,36516,39999],"key_events":[],"mouse_events":[0,4723,5150,5995,6450,7073,7884,10229,10755,11251,14506,14854,15338,15694,16627,17103,17516,18384,18936,19435,19918,22139,22561,25951,26378,27126,27510,28567,29070,30074,31667,36049,36516,37927,38653,39160,39999,40800,49964],"rt":49965,"survey":"ius12","trial_type":"survey-template","trial_index":1,"time_elapsed":53588,"internal_node_id":"0.0-1.0"},{"item_order":[1,5,6,4,13,3,11,9,2,0,7,14,8,12,10,15,16],"responses":{"Q02":"2","Q06":"2","Q07":"1","Q05":"1","Q14":"1","Q04":"2","Q12":"1","Q10":"2","Q03":"2","Q01":"3","Q08":"2","Q15":"1","Q09":"2","Q13":"2","Q11":"3","Q16":"1","Q17":"0"},"radio_events":[7325,10508,13018,15158,15624,17302,20704,22007,25366,44657,46798,47440,48634,50764,53138,59770,60811,61530,63989,67678],"key_events":[],"mouse_events":[5366,7325,9232,10508,11157,11461,13018,13337,13808,14478,14785,15158,15624,16580,17302,19204,19859,20704,21558,22007,23857,24259,25366,25793,44020,44657,45954,46323,46798,47440,48175,48634,50314,50764,53138,58354,58873,59179,59494,59770,60457,60811,61530,63989,66399,66831,67306,67678,68856],"rt":68856,"survey":"pswq","trial_type":"survey-template","trial_index":2,"time_elapsed":122452,"internal_node_id":"0.0-2.0"},{"view_history":"[{\"page_index\":0,\"viewing_time\":3147},{\"page_index\":1,\"viewing_time\":3682},{\"page_index\":2,\"viewing_time\":5094},{\"page_index\":3,\"viewing_time\":7983},{\"page_index\":4,\"viewing_time\":3846},{\"page_index\":5,\"viewing_time\":2229},{\"page_index\":6,\"viewing_time\":20742},{\"page_index\":7,\"viewing_time\":10875},{\"page_index\":8,\"viewing_time\":4258},{\"page_index\":7,\"viewing_time\":590},{\"page_index\":8,\"viewing_time\":3869},{\"page_index\":9,\"viewing_time\":4423}]","rt":70739,"trial_type":"instructions","trial_index":3,"time_elapsed":193192,"internal_node_id":"0.0-3.0-0.0"},{"response_times":[1510,1345,751,886,5183],"keys_pressed":["rightarrow","leftarrow","rightarrow","rightarrow","leftarrow"],"horizon":5,"forced_choices":["rightarrow","leftarrow","rightarrow","rightarrow"],"right_color":"lightblue","left_color":"orange","left_mu":40,"right_mu":20,"left_numbers":[43,33,32,39,38],"right_numbers":[23,12,29,28,12],"points_earned":151,"trial_type":"horizons-task","trial_index":4,"time_elapsed":204465,"internal_node_id":"0.0-3.0-1.0"},{"response_times":[1993,770,474,517,4492,3244,884,2042,682,378],"keys_pressed":["leftarrow","leftarrow","rightarrow","rightarrow","rightarrow","rightarrow","leftarrow","leftarrow","rightarrow","rightarrow"],"horizon":10,"forced_choices":["leftarrow","leftarrow","rightarrow","rightarrow"],"right_color":"orange","left_color":"lightblue","left_mu":60,"right_mu":70,"left_numbers":[57,50,66,72,59,73,69,56,59,69],"right_numbers":[55,70,73,72,69,57,72,61,74,61],"points_earned":638,"trial_type":"horizons-task","trial_index":5,"time_elapsed":221446,"internal_node_id":"0.0-3.0-2.0"},{"view_history":"[{\"page_index\":0,\"viewing_time\":897},{\"page_index\":1,\"viewing_time\":2344},{\"page_index\":2,\"viewing_time\":2250},{\"page_index\":3,\"viewing_time\":1464}]","rt":6955,"trial_type":"instructions","trial_index":6,"time_elapsed":228402,"internal_node_id":"0.0-3.0-3.0"},{"responses":["true","false","false","true"],"num_errors":0,"rt":11026,"trial_type":"horizons-comprehension","trial_index":7,"time_elapsed":239430,"internal_node_id":"0.0-3.0-4.0"},{"view_history":"[{\"page_index\":0,\"viewing_time\":1236},{\"page_index\":1,\"viewing_time\":3915}]","rt":5151,"trial_type":"instructions","trial_index":8,"time_elapsed":244585,"internal_node_id":"0.0-4.0"},{"response_times":[809,427,446,446,2135],"keys_pressed":["leftarrow","rightarrow","rightarrow","leftarrow","leftarrow"],"horizon":5,"forced_choices":["leftarrow","rightarrow","rightarrow","leftarrow"],"right_color":"lightblue","left_color":"orange","left_mu":60,"right_mu":64,"left_numbers":[60,64,63,53,44],"right_numbers":[67,47,53,68,67],"points_earned":257,"trial_type":"horizons-task","trial_index":9,"time_elapsed":250355,"internal_node_id":"0.0-5.0"},{"response_times":[954,1301,405,562,1188],"keys_pressed":["leftarrow","leftarrow","rightarrow","rightarrow","rightarrow"],"horizon":5,"forced_choices":["leftarrow","leftarrow","rightarrow","rightarrow"],"right_color":"orange","left_color":"lightblue","left_mu":60,"right_mu":90,"left_numbers":[65,51,61,55,65],"right_numbers":[92,95,97,79,88],"points_earned":380,"trial_type":"horizons-task","trial_index":10,"time_elapsed":256268,"internal_node_id":"0.0-6.0"},{"response_times":[709,448,491,473,2039,1603,910,424,449,239],"keys_pressed":["rightarrow","rightarrow","leftarrow","rightarrow","leftarrow","leftarrow","leftarrow","leftarrow","leftarrow","leftarrow"],"horizon":10,"forced_choices":["rightarrow","rightarrow","leftarrow","rightarrow"],"right_color":"orange","left_color":"lightblue","left_mu":40,"right_mu":20,"left_numbers":[28,38,34,39,44,35,40,53,44,48],"right_numbers":[21,23,18,26,20,15,30,25,13,13],"points_earned":368,"trial_type":"horizons-task","trial_index":11,"time_elapsed":265556,"internal_node_id":"0.0-7.0"},{"response_times":[725,516,427,722,475,1368,3777,514,401,540],"keys_pressed":["leftarrow","leftarrow","rightarrow","leftarrow","rightarrow","leftarrow","rightarrow","leftarrow","leftarrow","leftarrow"],"horizon":10,"forced_choices":["leftarrow","leftarrow","rightarrow","leftarrow"],"right_color":"orange","left_color":"lightblue","left_mu":40,"right_mu":10,"left_numbers":[54,33,44,38,34,40,47,40,32,49],"right_numbers":[11,17,7,0,3,10,13,12,25,5],"points_earned":309,"trial_type":"horizons-task","trial_index":12,"time_elapsed":276526,"internal_node_id":"0.0-8.0"},{"response_times":[608,473,447,444,1791],"keys_pressed":["leftarrow","rightarrow","rightarrow","leftarrow","rightarrow"],"horizon":5,"forced_choices":["leftarrow","rightarrow","rightarrow","leftarrow"],"right_color":"orange","left_color":"lightblue","left_mu":40,"right_mu":48,"left_numbers":[28,46,19,33,28],"right_numbers":[48,27,67,40,57],"points_earned":212,"trial_type":"horizons-task","trial_index":13,"time_elapsed":281792,"internal_node_id":"0.0-9.0"},{"response_times":[475,466,382,422,2230,1115,706,767,1073,495],"keys_pressed":["rightarrow","leftarrow","rightarrow","leftarrow","rightarrow","leftarrow","rightarrow","leftarrow","rightarrow","rightarrow"],"horizon":10,"forced_choices":["rightarrow","leftarrow","rightarrow","leftarrow"],"right_color":"lightblue","left_color":"orange","left_mu":60,"right_mu":56,"left_numbers":[67,45,63,61,65,58,62,49,52,46],"right_numbers":[51,70,54,63,63,56,46,48,59,64],"points_earned":550,"trial_type":"horizons-task","trial_index":14,"time_elapsed":291431,"internal_node_id":"0.0-10.0"},{"response_times":[849,771,744,633,750,563,285,332,355,285],"keys_pressed":["rightarrow","rightarrow","leftarrow","leftarrow","rightarrow","rightarrow","rightarrow","rightarrow","rightarrow","rightarrow"],"horizon":10,"forced_choices":["rightarrow","rightarrow","leftarrow","leftarrow"],"right_color":"lightblue","left_color":"orange","left_mu":60,"right_mu":90,"left_numbers":[70,62,66,52,67,71,56,62,54,64],"right_numbers":[98,81,89,98,105,90,72,100,91,87],"points_earned":842,"trial_type":"horizons-task","trial_index":15,"time_elapsed":298501,"internal_node_id":"0.0-11.0"},{"response_times":[503,515,585,680,931,1625,379,309,839,217],"keys_pressed":["rightarrow","rightarrow","leftarrow","rightarrow","leftarrow","leftarrow","leftarrow","leftarrow","leftarrow","leftarrow"],"horizon":10,"forced_choices":["rightarrow","rightarrow","leftarrow","rightarrow"],"right_color":"orange","left_color":"lightblue","left_mu":40,"right_mu":44,"left_numbers":[56,43,52,47,35,38,32,40,43,45],"right_numbers":[27,33,41,23,54,50,37,44,50,36],"points_earned":368,"trial_type":"horizons-task","trial_index":16,"time_elapsed":306586,"internal_node_id":"0.0-12.0"},{"response_times":[56,1559,607,609,1417,286,240,192,449,262],"keys_pressed":["leftarrow","rightarrow","leftarrow","leftarrow","leftarrow","leftarrow","leftarrow","leftarrow","leftarrow","leftarrow"],"horizon":10,"forced_choices":["leftarrow","rightarrow","leftarrow","leftarrow"],"right_color":"orange","left_color":"lightblue","left_mu":40,"right_mu":28,"left_numbers":[51,38,38,43,41,61,35,34,42,36],"right_numbers":[42,13,15,10,39,28,39,32,37,34],"points_earned":394,"trial_type":"horizons-task","trial_index":17,"time_elapsed":313763,"internal_node_id":"0.0-13.0"},{"response_times":[669,771,629,540,910,1120,469,193,170,169],"keys_pressed":["rightarrow","rightarrow","leftarrow","leftarrow","leftarrow","rightarrow","leftarrow","leftarrow","leftarrow","leftarrow"],"horizon":10,"forced_choices":["rightarrow","rightarrow","leftarrow","leftarrow"],"right_color":"orange","left_color":"lightblue","left_mu":60,"right_mu":40,"left_numbers":[49,60,61,75,62,80,62,55,54,49],"right_numbers":[42,55,31,52,44,41,50,38,39,32],"points_earned":556,"trial_type":"horizons-task","trial_index":18,"time_elapsed":320905,"internal_node_id":"0.0-14.0"},{"response_times":[573,376,565,559,541,239,169,170,170,169],"keys_pressed":["rightarrow","leftarrow","rightarrow","leftarrow","leftarrow","leftarrow","leftarrow","leftarrow","leftarrow","leftarrow"],"horizon":10,"forced_choices":["rightarrow","leftarrow","rightarrow","leftarrow"],"right_color":"lightblue","left_color":"orange","left_mu":40,"right_mu":20,"left_numbers":[50,38,36,27,42,52,51,27,33,31],"right_numbers":[10,27,8,29,23,4,35,11,33,17],"points_earned":319,"trial_type":"horizons-task","trial_index":19,"time_elapsed":325940,"internal_node_id":"0.0-15.0"},{"response_times":[545,727,514,473,953,751,1878,216,2021,263],"keys_pressed":["leftarrow","rightarrow","leftarrow","rightarrow","leftarrow","rightarrow","leftarrow","leftarrow","rightarrow","rightarrow"],"horizon":10,"forced_choices":["leftarrow","rightarrow","leftarrow","rightarrow"],"right_color":"lightblue","left_color":"orange","left_mu":60,"right_mu":72,"left_numbers":[63,58,82,62,60,69,60,58,61,66],"right_numbers":[71,71,63,72,74,70,68,70,79,60],"points_earned":675,"trial_type":"horizons-task","trial_index":20,"time_elapsed":335790,"internal_node_id":"0.0-16.0"},{"response_times":[1268,496,540,1118,1811],"keys_pressed":["leftarrow","rightarrow","rightarrow","rightarrow","rightarrow"],"horizon":5,"forced_choices":["leftarrow","rightarrow","rightarrow","rightarrow"],"right_color":"lightblue","left_color":"orange","left_mu":40,"right_mu":32,"left_numbers":[20,24,35,33,47],"right_numbers":[33,40,30,19,21],"points_earned":130,"trial_type":"horizons-task","trial_index":21,"time_elapsed":342526,"internal_node_id":"0.0-17.0"},{"response_times":[501,374,447,382,1577,401,216,263,170,147],"keys_pressed":["rightarrow","leftarrow","leftarrow","rightarrow","leftarrow","leftarrow","leftarrow","leftarrow","leftarrow","leftarrow"],"horizon":10,"forced_choices":["rightarrow","leftarrow","leftarrow","rightarrow"],"right_color":"lightblue","left_color":"orange","left_mu":60,"right_mu":40,"left_numbers":[56,66,58,64,51,52,79,56,68,54],"right_numbers":[33,36,37,30,46,38,30,41,37,39],"points_earned":547,"trial_type":"horizons-task","trial_index":22,"time_elapsed":348507,"internal_node_id":"0.0-18.0"},{"response_times":[596,493,353,405,976],"keys_pressed":["rightarrow","rightarrow","leftarrow","rightarrow","leftarrow"],"horizon":5,"forced_choices":["rightarrow","rightarrow","leftarrow","rightarrow"],"right_color":"lightblue","left_color":"orange","left_mu":60,"right_mu":40,"left_numbers":[62,60,61,67,63],"right_numbers":[35,40,32,29,39],"points_earned":228,"trial_type":"horizons-task","trial_index":23,"time_elapsed":352831,"internal_node_id":"0.0-19.0"},{"response_times":[501,424,352,516,2183,583,610,308,192,170],"keys_pressed":["rightarrow","rightarrow","leftarrow","leftarrow","rightarrow","leftarrow","leftarrow","leftarrow","leftarrow","leftarrow"],"horizon":10,"forced_choices":["rightarrow","rightarrow","leftarrow","leftarrow"],"right_color":"orange","left_color":"lightblue","left_mu":60,"right_mu":56,"left_numbers":[67,70,63,53,65,56,59,44,58,63],"right_numbers":[56,60,55,62,43,65,62,41,42,40],"points_earned":555,"trial_type":"horizons-task","trial_index":24,"time_elapsed":360179,"internal_node_id":"0.0-20.0"},{"response_times":[715,351,381,562,3056,518,355,239,170,169],"keys_pressed":["rightarrow","leftarrow","rightarrow","rightarrow","leftarrow","leftarrow","leftarrow","leftarrow","leftarrow","leftarrow"],"horizon":10,"forced_choices":["rightarrow","leftarrow","rightarrow","rightarrow"],"right_color":"lightblue","left_color":"orange","left_mu":40,"right_mu":52,"left_numbers":[30,47,38,46,54,48,44,46,35,39],"right_numbers":[63,71,49,29,65,54,58,63,54,52],"points_earned":454,"trial_type":"horizons-task","trial_index":25,"time_elapsed":368200,"internal_node_id":"0.0-21.0"},{"response_times":[592,405,352,729,790,170,168,146,147,148],"keys_pressed":["leftarrow","rightarrow","leftarrow","rightarrow","leftarrow","leftarrow","leftarrow","leftarrow","leftarrow","leftarrow"],"horizon":10,"forced_choices":["leftarrow","rightarrow","leftarrow","rightarrow"],"right_color":"lightblue","left_color":"orange","left_mu":40,"right_mu":10,"left_numbers":[39,50,46,43,38,51,42,45,44,33],"right_numbers":[14,11,9,7,5,14,27,8,14,5],"points_earned":356,"trial_type":"horizons-task","trial_index":26,"time_elapsed":373351,"internal_node_id":"0.0-22.0"},{"response_times":[687,380,3242,1051,445],"keys_pressed":["leftarrow","rightarrow","leftarrow","rightarrow","leftarrow"],"horizon":5,"forced_choices":["leftarrow","rightarrow","leftarrow","rightarrow"],"right_color":"orange","left_color":"lightblue","left_mu":40,"right_mu":36,"left_numbers":[46,39,47,35,52],"right_numbers":[38,24,35,39,36],"points_earned":208,"trial_type":"horizons-task","trial_index":27,"time_elapsed":380659,"internal_node_id":"0.0-23.0"},{"response_times":[483,447,539,584,518],"keys_pressed":["rightarrow","rightarrow","rightarrow","leftarrow","rightarrow"],"horizon":5,"forced_choices":["rightarrow","rightarrow","rightarrow","leftarrow"],"right_color":"orange","left_color":"lightblue","left_mu":60,"right_mu":90,"left_numbers":[57,58,53,70,53],"right_numbers":[96,93,78,91,76],"points_earned":413,"trial_type":"horizons-task","trial_index":28,"time_elapsed":384731,"internal_node_id":"0.0-24.0"},{"response_times":[590,398,426,375,452,2271,542,562,472,284],"keys_pressed":["rightarrow","leftarrow","rightarrow","leftarrow","rightarrow","leftarrow","rightarrow","rightarrow","rightarrow","rightarrow"],"horizon":10,"forced_choices":["rightarrow","leftarrow","rightarrow","leftarrow"],"right_color":"lightblue","left_color":"orange","left_mu":40,"right_mu":44,"left_numbers":[41,48,46,33,29,32,38,35,31,38],"right_numbers":[33,44,45,53,49,38,38,45,37,40],"points_earned":400,"trial_type":"horizons-task","trial_index":29,"time_elapsed":392606,"internal_node_id":"0.0-25.0"},{"response_times":[613,471,404,674,567,609,240,169,171,145],"keys_pressed":["leftarrow","leftarrow","rightarrow","leftarrow","rightarrow","rightarrow","rightarrow","rightarrow","rightarrow","rightarrow"],"horizon":10,"forced_choices":["leftarrow","leftarrow","rightarrow","leftarrow"],"right_color":"lightblue","left_color":"orange","left_mu":40,"right_mu":60,"left_numbers":[27,46,45,47,45,36,29,45,41,48],"right_numbers":[66,56,56,53,64,54,68,54,58,53],"points_earned":527,"trial_type":"horizons-task","trial_index":30,"time_elapsed":398174,"internal_node_id":"0.0-26.0"},{"response_times":[735,512,475,2780,492,1857,354,194,170,147],"keys_pressed":["rightarrow","leftarrow","rightarrow","rightarrow","leftarrow","leftarrow","leftarrow","leftarrow","leftarrow","leftarrow"],"horizon":10,"forced_choices":["rightarrow","leftarrow","rightarrow","rightarrow"],"right_color":"orange","left_color":"lightblue","left_mu":60,"right_mu":48,"left_numbers":[54,70,50,62,56,58,68,61,70,49],"right_numbers":[49,36,37,36,54,49,50,55,53,50],"points_earned":554,"trial_type":"horizons-task","trial_index":31,"time_elapsed":407391,"internal_node_id":"0.0-27.0"},{"response_times":[688,381,377,542,977],"keys_pressed":["leftarrow","rightarrow","leftarrow","rightarrow","leftarrow"],"horizon":5,"forced_choices":["leftarrow","rightarrow","leftarrow","rightarrow"],"right_color":"orange","left_color":"lightblue","left_mu":40,"right_mu":10,"left_numbers":[42,44,34,53,50],"right_numbers":[0,22,9,14,7],"points_earned":162,"trial_type":"horizons-task","trial_index":32,"time_elapsed":411857,"internal_node_id":"0.0-28.0"},{"response_times":[829,352,587,492,2255,514,424,146,146,147],"keys_pressed":["rightarrow","leftarrow","leftarrow","leftarrow","rightarrow","leftarrow","leftarrow","leftarrow","leftarrow","leftarrow"],"horizon":10,"forced_choices":["rightarrow","leftarrow","leftarrow","leftarrow"],"right_color":"lightblue","left_color":"orange","left_mu":60,"right_mu":40,"left_numbers":[80,52,62,68,63,56,55,57,56,59],"right_numbers":[46,43,48,38,30,32,55,44,49,39],"points_earned":541,"trial_type":"horizons-task","trial_index":33,"time_elapsed":419251,"internal_node_id":"0.0-29.0"},{"response_times":[619,492,751,956,1858],"keys_pressed":["leftarrow","leftarrow","rightarrow","rightarrow","rightarrow"],"horizon":5,"forced_choices":["leftarrow","leftarrow","rightarrow","rightarrow"],"right_color":"orange","left_color":"lightblue","left_mu":60,"right_mu":68,"left_numbers":[55,71,60,67,52],"right_numbers":[63,59,70,66,68],"points_earned":330,"trial_type":"horizons-task","trial_index":34,"time_elapsed":425428,"internal_node_id":"0.0-30.0"},{"response_times":[549,424,538,519,2366,170,146,147,148,147],"keys_pressed":["rightarrow","rightarrow","leftarrow","rightarrow","rightarrow","rightarrow","rightarrow","rightarrow","rightarrow","rightarrow"],"horizon":10,"forced_choices":["rightarrow","rightarrow","leftarrow","rightarrow"],"right_color":"lightblue","left_color":"orange","left_mu":60,"right_mu":90,"left_numbers":[49,52,48,64,62,68,59,74,69,60],"right_numbers":[108,67,93,102,78,93,88,87,79,91],"points_earned":841,"trial_type":"horizons-task","trial_index":35,"time_elapsed":432084,"internal_node_id":"0.0-31.0"},{"response_times":[752,496,1234,724,1046,493,308,147,146,147],"keys_pressed":["leftarrow","rightarrow","rightarrow","rightarrow","leftarrow","leftarrow","leftarrow","leftarrow","leftarrow","leftarrow"],"horizon":10,"forced_choices":["leftarrow","rightarrow","rightarrow","rightarrow"],"right_color":"lightblue","left_color":"orange","left_mu":40,"right_mu":10,"left_numbers":[26,39,53,39,48,36,39,40,41,38],"right_numbers":[6,15,1,8,0,14,3,20,21,3],"points_earned":292,"trial_type":"horizons-task","trial_index":36,"time_elapsed":439082,"internal_node_id":"0.0-32.0"},{"response_times":[310,607,451,975,774],"keys_pressed":["rightarrow","leftarrow","rightarrow","leftarrow","rightarrow"],"horizon":5,"forced_choices":["rightarrow","leftarrow","rightarrow","leftarrow"],"right_color":"orange","left_color":"lightblue","left_mu":40,"right_mu":48,"left_numbers":[50,43,47,45,32],"right_numbers":[57,50,51,46,47],"points_earned":243,"trial_type":"horizons-task","trial_index":37,"time_elapsed":443701,"internal_node_id":"0.0-33.0"},{"response_times":[972,351,266,445,1005],"keys_pressed":["rightarrow","leftarrow","rightarrow","leftarrow","rightarrow"],"horizon":5,"forced_choices":["rightarrow","leftarrow","rightarrow","leftarrow"],"right_color":"orange","left_color":"lightblue","left_mu":40,"right_mu":52,"left_numbers":[36,41,29,50,46],"right_numbers":[59,67,69,50,49],"points_earned":268,"trial_type":"horizons-task","trial_index":38,"time_elapsed":448242,"internal_node_id":"0.0-34.0"},{"response_times":[458,449,515,427,1905],"keys_pressed":["leftarrow","leftarrow","leftarrow","rightarrow","rightarrow"],"horizon":5,"forced_choices":["leftarrow","leftarrow","leftarrow","rightarrow"],"right_color":"orange","left_color":"lightblue","left_mu":40,"right_mu":36,"left_numbers":[32,32,41,32,45],"right_numbers":[44,37,46,35,33],"points_earned":173,"trial_type":"horizons-task","trial_index":39,"time_elapsed":453503,"internal_node_id":"0.0-35.0"},{"response_times":[530,359,235,427,1235,191,171,147,146,146],"keys_pressed":["leftarrow","rightarrow","leftarrow","rightarrow","rightarrow","rightarrow","rightarrow","rightarrow","rightarrow","rightarrow"],"horizon":10,"forced_choices":["leftarrow","rightarrow","leftarrow","rightarrow"],"right_color":"orange","left_color":"lightblue","left_mu":60,"right_mu":80,"left_numbers":[61,62,68,54,46,65,60,62,61,66],"right_numbers":[76,93,78,69,69,88,78,88,79,74],"points_earned":767,"trial_type":"horizons-task","trial_index":40,"time_elapsed":458593,"internal_node_id":"0.0-36.0"},{"response_times":[655,427,422,563,1234,379,192,147,146,170],"keys_pressed":["leftarrow","rightarrow","leftarrow","leftarrow","rightarrow","rightarrow","rightarrow","rightarrow","rightarrow","rightarrow"],"horizon":10,"forced_choices":["leftarrow","rightarrow","leftarrow","leftarrow"],"right_color":"lightblue","left_color":"orange","left_mu":40,"right_mu":60,"left_numbers":[31,33,34,42,39,51,17,41,47,51],"right_numbers":[62,62,54,70,64,59,71,53,55,55],"points_earned":526,"trial_type":"horizons-task","trial_index":41,"time_elapsed":464431,"internal_node_id":"0.0-37.0"},{"response_times":[637,471,380,424,1326,1093,705,377,216,171],"keys_pressed":["leftarrow","leftarrow","rightarrow","rightarrow","rightarrow","leftarrow","rightarrow","rightarrow","rightarrow","rightarrow"],"horizon":10,"forced_choices":["leftarrow","leftarrow","rightarrow","rightarrow"],"right_color":"orange","left_color":"lightblue","left_mu":60,"right_mu":64,"left_numbers":[58,63,62,52,65,56,59,58,67,42],"right_numbers":[71,62,64,65,56,63,55,59,65,81],"points_earned":622,"trial_type":"horizons-task","trial_index":42,"time_elapsed":471733,"internal_node_id":"0.0-38.0"},{"response_times":[26,885,445,704,538],"keys_pressed":["rightarrow","rightarrow","leftarrow","rightarrow","leftarrow"],"horizon":5,"forced_choices":["rightarrow","rightarrow","leftarrow","rightarrow"],"right_color":"orange","left_color":"lightblue","left_mu":40,"right_mu":28,"left_numbers":[23,38,36,51,36],"right_numbers":[12,22,34,26,26],"points_earned":132,"trial_type":"horizons-task","trial_index":43,"time_elapsed":475833,"internal_node_id":"0.0-39.0"},{"response_times":[452,328,518,585,1141],"keys_pressed":["rightarrow","leftarrow","leftarrow","leftarrow","leftarrow"],"horizon":5,"forced_choices":["rightarrow","leftarrow","leftarrow","leftarrow"],"right_color":"orange","left_color":"lightblue","left_mu":40,"right_mu":52,"left_numbers":[47,48,47,48,29],"right_numbers":[38,58,53,52,51],"points_earned":210,"trial_type":"horizons-task","trial_index":44,"time_elapsed":480359,"internal_node_id":"0.0-40.0"},{"response_times":[542,335,190,543,724],"keys_pressed":["leftarrow","rightarrow","leftarrow","rightarrow","rightarrow"],"horizon":5,"forced_choices":["leftarrow","rightarrow","leftarrow","rightarrow"],"right_color":"lightblue","left_color":"orange","left_mu":60,"right_mu":90,"left_numbers":[59,58,56,56,67],"right_numbers":[98,69,86,85,92],"points_earned":361,"trial_type":"horizons-task","trial_index":45,"time_elapsed":484197,"internal_node_id":"0.0-41.0"},{"response_times":[453,400,700,703,677],"keys_pressed":["rightarrow","rightarrow","leftarrow","rightarrow","leftarrow"],"horizon":5,"forced_choices":["rightarrow","rightarrow","leftarrow","rightarrow"],"right_color":"lightblue","left_color":"orange","left_mu":40,"right_mu":28,"left_numbers":[43,47,42,49,45],"right_numbers":[35,35,23,34,28],"points_earned":191,"trial_type":"horizons-task","trial_index":46,"time_elapsed":488630,"internal_node_id":"0.0-42.0"},{"response_times":[543,448,380,493,1092],"keys_pressed":["leftarrow","leftarrow","rightarrow","rightarrow","leftarrow"],"horizon":5,"forced_choices":["leftarrow","leftarrow","rightarrow","rightarrow"],"right_color":"lightblue","left_color":"orange","left_mu":40,"right_mu":44,"left_numbers":[54,34,42,34,48],"right_numbers":[35,50,58,32,48],"points_earned":226,"trial_type":"horizons-task","trial_index":47,"time_elapsed":493090,"internal_node_id":"0.0-43.0"},{"response_times":[406,352,218,375,2533],"keys_pressed":["rightarrow","leftarrow","rightarrow","leftarrow","rightarrow"],"horizon":5,"forced_choices":["rightarrow","leftarrow","rightarrow","leftarrow"],"right_color":"lightblue","left_color":"orange","left_mu":40,"right_mu":48,"left_numbers":[51,59,31,38,39],"right_numbers":[57,67,50,46,53],"points_earned":257,"trial_type":"horizons-task","trial_index":48,"time_elapsed":498476,"internal_node_id":"0.0-44.0"},{"view_history":"[{\"page_index\":0,\"viewing_time\":2198},{\"page_index\":1,\"viewing_time\":1024}]","rt":3222,"trial_type":"instructions","trial_index":49,"time_elapsed":501698,"internal_node_id":"0.0-45.0"},{"response_times":[530,328,242,595,1393,700,193,170,148,494],"keys_pressed":["rightarrow","leftarrow","rightarrow","rightarrow","leftarrow","leftarrow","leftarrow","leftarrow","leftarrow","leftarrow"],"horizon":10,"forced_choices":["rightarrow","leftarrow","rightarrow","rightarrow"],"right_color":"orange","left_color":"lightblue","left_mu":40,"right_mu":32,"left_numbers":[45,43,20,29,57,45,39,37,38,50],"right_numbers":[24,36,31,40,30,26,53,21,18,31],"points_earned":404,"trial_type":"horizons-task","trial_index":50,"time_elapsed":507996,"internal_node_id":"0.0-46.0"},{"response_times":[173,778,445,613,605,1812,657,169,147,171],"keys_pressed":["rightarrow","rightarrow","leftarrow","rightarrow","leftarrow","leftarrow","rightarrow","rightarrow","rightarrow","rightarrow"],"horizon":10,"forced_choices":["rightarrow","rightarrow","leftarrow","rightarrow"],"right_color":"lightblue","left_color":"orange","left_mu":60,"right_mu":64,"left_numbers":[60,51,57,72,67,45,66,57,56,56],"right_numbers":[70,73,64,56,56,82,83,65,76,54],"points_earned":646,"trial_type":"horizons-task","trial_index":51,"time_elapsed":515069,"internal_node_id":"0.0-47.0"},{"response_times":[674,471,497,721,1652],"keys_pressed":["leftarrow","leftarrow","rightarrow","leftarrow","rightarrow"],"horizon":5,"forced_choices":["leftarrow","leftarrow","rightarrow","leftarrow"],"right_color":"lightblue","left_color":"orange","left_mu":60,"right_mu":72,"left_numbers":[55,68,65,75,47],"right_numbers":[82,74,73,86,73],"points_earned":344,"trial_type":"horizons-task","trial_index":52,"time_elapsed":520587,"internal_node_id":"0.0-48.0"},{"response_times":[631,425,657,653,2183],"keys_pressed":["leftarrow","leftarrow","rightarrow","leftarrow","rightarrow"],"horizon":5,"forced_choices":["leftarrow","leftarrow","rightarrow","leftarrow"],"right_color":"orange","left_color":"lightblue","left_mu":60,"right_mu":52,"left_numbers":[46,60,55,48,63],"right_numbers":[52,57,58,43,79],"points_earned":291,"trial_type":"horizons-task","trial_index":53,"time_elapsed":526640,"internal_node_id":"0.0-49.0"},{"response_times":[638,427,584,381,2408,471,193,172,144,148],"keys_pressed":["leftarrow","rightarrow","leftarrow","rightarrow","leftarrow","leftarrow","leftarrow","leftarrow","leftarrow","leftarrow"],"horizon":10,"forced_choices":["leftarrow","rightarrow","leftarrow","rightarrow"],"right_color":"lightblue","left_color":"orange","left_mu":40,"right_mu":20,"left_numbers":[50,26,39,39,40,45,31,31,39,44],"right_numbers":[20,13,17,30,23,18,22,8,21,27],"points_earned":362,"trial_type":"horizons-task","trial_index":54,"time_elapsed":533707,"internal_node_id":"0.0-50.0"},{"response_times":[499,490,679,816,1260,1602,1257,1373,586,425],"keys_pressed":["rightarrow","leftarrow","leftarrow","leftarrow","rightarrow","rightarrow","rightarrow","rightarrow","rightarrow","rightarrow"],"horizon":10,"forced_choices":["rightarrow","leftarrow","leftarrow","leftarrow"],"right_color":"lightblue","left_color":"orange","left_mu":40,"right_mu":36,"left_numbers":[33,29,39,27,42,33,34,25,42,44],"right_numbers":[41,28,33,37,43,22,34,47,40,32],"points_earned":354,"trial_type":"horizons-task","trial_index":55,"time_elapsed":544196,"internal_node_id":"0.0-51.0"},{"response_times":[503,329,586,496,352,4057,564,1486,215,494],"keys_pressed":["rightarrow","leftarrow","leftarrow","rightarrow","leftarrow","rightarrow","rightarrow","rightarrow","rightarrow","rightarrow"],"horizon":10,"forced_choices":["rightarrow","leftarrow","leftarrow","rightarrow"],"right_color":"lightblue","left_color":"orange","left_mu":40,"right_mu":60,"left_numbers":[27,45,53,40,53,34,34,39,33,45],"right_numbers":[63,53,61,56,68,63,64,44,61,67],"points_earned":569,"trial_type":"horizons-task","trial_index":56,"time_elapsed":554780,"internal_node_id":"0.0-52.0"},{"response_times":[658,447,496,470,2413],"keys_pressed":["leftarrow","leftarrow","rightarrow","rightarrow","rightarrow"],"horizon":5,"forced_choices":["leftarrow","leftarrow","rightarrow","rightarrow"],"right_color":"lightblue","left_color":"orange","left_mu":60,"right_mu":64,"left_numbers":[59,60,60,59,58],"right_numbers":[59,60,59,63,57],"points_earned":298,"trial_type":"horizons-task","trial_index":57,"time_elapsed":560769,"internal_node_id":"0.0-53.0"},{"response_times":[632,492,404,492,1605],"keys_pressed":["leftarrow","leftarrow","rightarrow","leftarrow","rightarrow"],"horizon":5,"forced_choices":["leftarrow","leftarrow","rightarrow","leftarrow"],"right_color":"lightblue","left_color":"orange","left_mu":40,"right_mu":48,"left_numbers":[34,47,37,34,46],"right_numbers":[46,39,48,39,49],"points_earned":212,"trial_type":"horizons-task","trial_index":58,"time_elapsed":565897,"internal_node_id":"0.0-54.0"},{"response_times":[556,375,748,862,1535],"keys_pressed":["rightarrow","leftarrow","leftarrow","leftarrow","leftarrow"],"horizon":5,"forced_choices":["rightarrow","leftarrow","leftarrow","leftarrow"],"right_color":"orange","left_color":"lightblue","left_mu":40,"right_mu":10,"left_numbers":[41,33,38,35,42],"right_numbers":[10,17,6,4,23],"points_earned":158,"trial_type":"horizons-task","trial_index":59,"time_elapsed":571477,"internal_node_id":"0.0-55.0"},{"response_times":[460,491,725,449,770],"keys_pressed":["rightarrow","leftarrow","leftarrow","rightarrow","leftarrow"],"horizon":5,"forced_choices":["rightarrow","leftarrow","leftarrow","rightarrow"],"right_color":"orange","left_color":"lightblue","left_mu":40,"right_mu":10,"left_numbers":[35,43,68,38,42],"right_numbers":[11,0,9,13,18],"points_earned":177,"trial_type":"horizons-task","trial_index":60,"time_elapsed":575873,"internal_node_id":"0.0-56.0"},{"response_times":[444,539,980,929,656],"keys_pressed":["rightarrow","rightarrow","rightarrow","leftarrow","leftarrow"],"horizon":5,"forced_choices":["rightarrow","rightarrow","rightarrow","leftarrow"],"right_color":"orange","left_color":"lightblue","left_mu":60,"right_mu":48,"left_numbers":[49,66,62,87,67],"right_numbers":[50,38,39,40,49],"points_earned":281,"trial_type":"horizons-task","trial_index":61,"time_elapsed":580922,"internal_node_id":"0.0-57.0"},{"response_times":[517,401,633,590,975],"keys_pressed":["leftarrow","leftarrow","leftarrow","rightarrow","leftarrow"],"horizon":5,"forced_choices":["leftarrow","leftarrow","leftarrow","rightarrow"],"right_color":"orange","left_color":"lightblue","left_mu":60,"right_mu":40,"left_numbers":[51,55,71,54,61],"right_numbers":[29,39,36,53,34],"points_earned":291,"trial_type":"horizons-task","trial_index":62,"time_elapsed":585541,"internal_node_id":"0.0-58.0"},{"response_times":[448,424,608,612,656],"keys_pressed":["rightarrow","rightarrow","leftarrow","rightarrow","rightarrow"],"horizon":5,"forced_choices":["rightarrow","rightarrow","leftarrow","rightarrow"],"right_color":"orange","left_color":"lightblue","left_mu":40,"right_mu":32,"left_numbers":[42,44,26,61,48],"right_numbers":[25,39,45,47,30],"points_earned":167,"trial_type":"horizons-task","trial_index":63,"time_elapsed":589794,"internal_node_id":"0.0-59.0"},{"response_times":[716,448,469,382,840],"keys_pressed":["leftarrow","leftarrow","leftarrow","rightarrow","rightarrow"],"horizon":5,"forced_choices":["leftarrow","leftarrow","leftarrow","rightarrow"],"right_color":"lightblue","left_color":"orange","left_mu":40,"right_mu":48,"left_numbers":[40,44,37,38,44],"right_numbers":[50,35,51,55,49],"points_earned":225,"trial_type":"horizons-task","trial_index":64,"time_elapsed":594150,"internal_node_id":"0.0-60.0"},{"response_times":[523,380,653,608,1721],"keys_pressed":["leftarrow","rightarrow","leftarrow","leftarrow","leftarrow"],"horizon":5,"forced_choices":["leftarrow","rightarrow","leftarrow","leftarrow"],"right_color":"lightblue","left_color":"orange","left_mu":40,"right_mu":28,"left_numbers":[37,33,39,50,42],"right_numbers":[24,29,32,30,39],"points_earned":197,"trial_type":"horizons-task","trial_index":65,"time_elapsed":599536,"internal_node_id":"0.0-61.0"},{"response_times":[419,376,496,468,354],"keys_pressed":["rightarrow","leftarrow","rightarrow","leftarrow","leftarrow"],"horizon":5,"forced_choices":["rightarrow","leftarrow","rightarrow","leftarrow"],"right_color":"lightblue","left_color":"orange","left_mu":40,"right_mu":20,"left_numbers":[39,35,52,60,49],"right_numbers":[18,29,11,9,22],"points_earned":173,"trial_type":"horizons-task","trial_index":66,"time_elapsed":603153,"internal_node_id":"0.0-62.0"},{"response_times":[480,378,358,445,4519,2111,606,239,193,123],"keys_pressed":["leftarrow","leftarrow","rightarrow","leftarrow","rightarrow","rightarrow","leftarrow","leftarrow","leftarrow","leftarrow"],"horizon":10,"forced_choices":["leftarrow","leftarrow","rightarrow","leftarrow"],"right_color":"lightblue","left_color":"orange","left_mu":40,"right_mu":48,"left_numbers":[64,39,31,55,48,31,43,34,22,37],"right_numbers":[47,40,52,41,51,31,40,49,52,49],"points_earned":428,"trial_type":"horizons-task","trial_index":67,"time_elapsed":614106,"internal_node_id":"0.0-63.0"},{"response_times":[1422,447,376,610,3474,1304,1671,217,216,192],"keys_pressed":["rightarrow","rightarrow","leftarrow","leftarrow","leftarrow","leftarrow","leftarrow","leftarrow","leftarrow","leftarrow"],"horizon":10,"forced_choices":["rightarrow","rightarrow","leftarrow","leftarrow"],"right_color":"lightblue","left_color":"orange","left_mu":60,"right_mu":40,"left_numbers":[58,63,63,41,43,77,69,56,58,64],"right_numbers":[33,48,43,35,33,51,40,44,32,36],"points_earned":552,"trial_type":"horizons-task","trial_index":68,"time_elapsed":625537,"internal_node_id":"0.0-64.0"},{"response_times":[591,375,426,583,659],"keys_pressed":["rightarrow","leftarrow","rightarrow","leftarrow","rightarrow"],"horizon":5,"forced_choices":["rightarrow","leftarrow","rightarrow","leftarrow"],"right_color":"lightblue","left_color":"orange","left_mu":40,"right_mu":70,"left_numbers":[38,45,42,41,33],"right_numbers":[78,75,73,75,55],"points_earned":292,"trial_type":"horizons-task","trial_index":69,"time_elapsed":629672,"internal_node_id":"0.0-65.0"},{"response_times":[684,44810,544,1160,729,446,194,192,147,124],"keys_pressed":["leftarrow","leftarrow","rightarrow","leftarrow","rightarrow","rightarrow","rightarrow","rightarrow","rightarrow","rightarrow"],"horizon":10,"forced_choices":["leftarrow","leftarrow","rightarrow","leftarrow"],"right_color":"orange","left_color":"lightblue","left_mu":60,"right_mu":90,"left_numbers":[55,64,72,51,60,65,60,62,49,62],"right_numbers":[90,99,81,89,82,96,82,98,85,77],"points_earned":771,"trial_type":"horizons-task","trial_index":70,"time_elapsed":680206,"internal_node_id":"0.0-66.0"},{"response_times":[499,424,498,469,1462,1791,444,217,170,170],"keys_pressed":["leftarrow","leftarrow","rightarrow","rightarrow","leftarrow","rightarrow","leftarrow","leftarrow","leftarrow","leftarrow"],"horizon":10,"forced_choices":["leftarrow","leftarrow","rightarrow","rightarrow"],"right_color":"lightblue","left_color":"orange","left_mu":40,"right_mu":20,"left_numbers":[38,36,44,38,34,36,44,29,32,46],"right_numbers":[22,21,29,26,20,23,21,11,19,38],"points_earned":337,"trial_type":"horizons-task","trial_index":71,"time_elapsed":687851,"internal_node_id":"0.0-67.0"},{"response_times":[505,191,593,473,657],"keys_pressed":["rightarrow","leftarrow","leftarrow","rightarrow","rightarrow"],"horizon":5,"forced_choices":["rightarrow","leftarrow","leftarrow","rightarrow"],"right_color":"orange","left_color":"lightblue","left_mu":40,"right_mu":44,"left_numbers":[29,42,34,45,39],"right_numbers":[37,34,42,49,44],"points_earned":206,"trial_type":"horizons-task","trial_index":72,"time_elapsed":691772,"internal_node_id":"0.0-68.0"},{"response_times":[132,493,376,543,192],"keys_pressed":["rightarrow","rightarrow","leftarrow","rightarrow","rightarrow"],"horizon":5,"forced_choices":["rightarrow","rightarrow","leftarrow","rightarrow"],"right_color":"orange","left_color":"lightblue","left_mu":60,"right_mu":64,"left_numbers":[57,60,57,69,57],"right_numbers":[60,62,54,65,63],"points_earned":307,"trial_type":"horizons-task","trial_index":73,"time_elapsed":695012,"internal_node_id":"0.0-69.0"},{"response_times":[533,446,427,792,266],"keys_pressed":["leftarrow","leftarrow","rightarrow","leftarrow","rightarrow"],"horizon":5,"forced_choices":["leftarrow","leftarrow","rightarrow","leftarrow"],"right_color":"lightblue","left_color":"orange","left_mu":40,"right_mu":44,"left_numbers":[38,37,40,30,32],"right_numbers":[42,47,47,33,46],"points_earned":198,"trial_type":"horizons-task","trial_index":74,"time_elapsed":698982,"internal_node_id":"0.0-70.0"},{"response_times":[455,398,474,721,219],"keys_pressed":["rightarrow","leftarrow","rightarrow","leftarrow","rightarrow"],"horizon":5,"forced_choices":["rightarrow","leftarrow","rightarrow","leftarrow"],"right_color":"orange","left_color":"lightblue","left_mu":40,"right_mu":48,"left_numbers":[30,45,36,48,38],"right_numbers":[48,30,61,52,46],"points_earned":248,"trial_type":"horizons-task","trial_index":75,"time_elapsed":702751,"internal_node_id":"0.0-71.0"},{"response_times":[569,357,517,495,884,1741,1029,493,815,516],"keys_pressed":["leftarrow","rightarrow","rightarrow","rightarrow","leftarrow","leftarrow","rightarrow","rightarrow","leftarrow","leftarrow"],"horizon":10,"forced_choices":["leftarrow","rightarrow","rightarrow","rightarrow"],"right_color":"lightblue","left_color":"orange","left_mu":40,"right_mu":32,"left_numbers":[35,50,49,25,50,32,32,27,38,53],"right_numbers":[31,34,48,39,31,24,40,29,47,20],"points_earned":398,"trial_type":"horizons-task","trial_index":76,"time_elapsed":711671,"internal_node_id":"0.0-72.0"},{"response_times":[603,609,474,678,539,2225,217,193,170,146],"keys_pressed":["leftarrow","leftarrow","rightarrow","rightarrow","leftarrow","leftarrow","leftarrow","leftarrow","leftarrow","leftarrow"],"horizon":10,"forced_choices":["leftarrow","leftarrow","rightarrow","rightarrow"],"right_color":"orange","left_color":"lightblue","left_mu":40,"right_mu":10,"left_numbers":[40,19,46,29,38,53,46,28,40,37],"right_numbers":[12,16,12,3,6,16,0,21,11,9],"points_earned":316,"trial_type":"horizons-task","trial_index":77,"time_elapsed":719026,"internal_node_id":"0.0-73.0"},{"response_times":[603,381,725,561,724],"keys_pressed":["leftarrow","rightarrow","rightarrow","leftarrow","leftarrow"],"horizon":5,"forced_choices":["leftarrow","rightarrow","rightarrow","leftarrow"],"right_color":"orange","left_color":"lightblue","left_mu":40,"right_mu":10,"left_numbers":[32,29,34,36,36],"right_numbers":[14,13,15,4,4],"points_earned":132,"trial_type":"horizons-task","trial_index":78,"time_elapsed":723523,"internal_node_id":"0.0-74.0"},{"response_times":[436,374,334,674,774,1115,1258,3085,538,495],"keys_pressed":["rightarrow","leftarrow","rightarrow","leftarrow","rightarrow","leftarrow","rightarrow","rightarrow","rightarrow","rightarrow"],"horizon":10,"forced_choices":["rightarrow","leftarrow","rightarrow","leftarrow"],"right_color":"orange","left_color":"lightblue","left_mu":60,"right_mu":68,"left_numbers":[68,67,51,68,55,65,53,73,53,59],"right_numbers":[70,71,68,67,65,56,61,70,70,60],"points_earned":664,"trial_type":"horizons-task","trial_index":79,"time_elapsed":734110,"internal_node_id":"0.0-75.0"},{"response_times":[588,290,616,607,1440,728,586,724,3405,658],"keys_pressed":["leftarrow","rightarrow","rightarrow","leftarrow","leftarrow","rightarrow","rightarrow","rightarrow","leftarrow","rightarrow"],"horizon":10,"forced_choices":["leftarrow","rightarrow","rightarrow","leftarrow"],"right_color":"orange","left_color":"lightblue","left_mu":40,"right_mu":32,"left_numbers":[32,23,38,34,41,38,40,46,32,36],"right_numbers":[43,34,35,29,39,44,37,26,43,36],"points_earned":351,"trial_type":"horizons-task","trial_index":80,"time_elapsed":745259,"internal_node_id":"0.0-76.0"},{"response_times":[523,333,587,543,196],"keys_pressed":["leftarrow","rightarrow","rightarrow","leftarrow","rightarrow"],"horizon":5,"forced_choices":["leftarrow","rightarrow","rightarrow","leftarrow"],"right_color":"lightblue","left_color":"orange","left_mu":60,"right_mu":80,"left_numbers":[46,59,58,55,46],"right_numbers":[66,80,90,80,78],"points_earned":349,"trial_type":"horizons-task","trial_index":81,"time_elapsed":748944,"internal_node_id":"0.0-77.0"},{"response_times":[531,335,471,375,1306,443,747,448,238,193],"keys_pressed":["leftarrow","rightarrow","rightarrow","leftarrow","rightarrow","leftarrow","leftarrow","leftarrow","leftarrow","leftarrow"],"horizon":10,"forced_choices":["leftarrow","rightarrow","rightarrow","leftarrow"],"right_color":"orange","left_color":"lightblue","left_mu":60,"right_mu":48,"left_numbers":[67,54,53,55,70,59,71,55,53,49],"right_numbers":[54,56,60,43,32,51,56,48,36,53],"points_earned":557,"trial_type":"horizons-task","trial_index":82,"time_elapsed":755536,"internal_node_id":"0.0-78.0"},{"response_times":[542,356,744,772,1443],"keys_pressed":["rightarrow","leftarrow","leftarrow","leftarrow","rightarrow"],"horizon":5,"forced_choices":["rightarrow","leftarrow","leftarrow","leftarrow"],"right_color":"orange","left_color":"lightblue","left_mu":40,"right_mu":60,"left_numbers":[40,27,43,42,34],"right_numbers":[66,75,67,57,62],"points_earned":240,"trial_type":"horizons-task","trial_index":83,"time_elapsed":760897,"internal_node_id":"0.0-79.0"},{"response_times":[478,469,635,1047,449,1092,516,310,216,193],"keys_pressed":["leftarrow","leftarrow","rightarrow","leftarrow","rightarrow","leftarrow","leftarrow","leftarrow","leftarrow","leftarrow"],"horizon":10,"forced_choices":["leftarrow","leftarrow","rightarrow","leftarrow"],"right_color":"orange","left_color":"lightblue","left_mu":40,"right_mu":20,"left_numbers":[28,44,49,24,34,48,38,28,29,40],"right_numbers":[18,32,32,24,8,21,20,30,9,20],"points_earned":319,"trial_type":"horizons-task","trial_index":84,"time_elapsed":767803,"internal_node_id":"0.0-80.0"},{"response_times":[471,335,609,701,930],"keys_pressed":["leftarrow","rightarrow","rightarrow","rightarrow","leftarrow"],"horizon":5,"forced_choices":["leftarrow","rightarrow","rightarrow","rightarrow"],"right_color":"lightblue","left_color":"orange","left_mu":60,"right_mu":40,"left_numbers":[48,59,49,67,61],"right_numbers":[54,25,35,32,36],"points_earned":201,"trial_type":"horizons-task","trial_index":85,"time_elapsed":772352,"internal_node_id":"0.0-81.0"},{"response_times":[572,333,818,607,471],"keys_pressed":["leftarrow","rightarrow","rightarrow","leftarrow","leftarrow"],"horizon":5,"forced_choices":["leftarrow","rightarrow","rightarrow","leftarrow"],"right_color":"lightblue","left_color":"orange","left_mu":40,"right_mu":10,"left_numbers":[34,40,36,45,36],"right_numbers":[0,3,16,19,10],"points_earned":134,"trial_type":"horizons-task","trial_index":86,"time_elapsed":776656,"internal_node_id":"0.0-82.0"},{"response_times":[589,236,196,421,590,930,770,427,629,216],"keys_pressed":["rightarrow","leftarrow","rightarrow","leftarrow","rightarrow","leftarrow","leftarrow","rightarrow","leftarrow","leftarrow"],"horizon":10,"forced_choices":["rightarrow","leftarrow","rightarrow","leftarrow"],"right_color":"orange","left_color":"lightblue","left_mu":40,"right_mu":28,"left_numbers":[48,35,42,40,34,40,46,45,43,40],"right_numbers":[35,27,35,37,29,34,20,22,23,28],"points_earned":365,"trial_type":"horizons-task","trial_index":87,"time_elapsed":783162,"internal_node_id":"0.0-83.0"},{"response_times":[537,548,537,704,468,1028,192,540,170,170],"keys_pressed":["rightarrow","rightarrow","leftarrow","rightarrow","leftarrow","rightarrow","rightarrow","rightarrow","rightarrow","rightarrow"],"horizon":10,"forced_choices":["rightarrow","rightarrow","leftarrow","rightarrow"],"right_color":"lightblue","left_color":"orange","left_mu":60,"right_mu":80,"left_numbers":[50,38,46,60,56,49,57,51,72,52],"right_numbers":[78,65,89,71,79,76,83,87,81,66],"points_earned":709,"trial_type":"horizons-task","trial_index":88,"time_elapsed":789560,"internal_node_id":"0.0-84.0"},{"response_times":[587,375,710,708,451,794,610,563,193,171],"keys_pressed":["rightarrow","leftarrow","leftarrow","leftarrow","rightarrow","rightarrow","rightarrow","rightarrow","rightarrow","rightarrow"],"horizon":10,"forced_choices":["rightarrow","leftarrow","leftarrow","leftarrow"],"right_color":"lightblue","left_color":"orange","left_mu":60,"right_mu":80,"left_numbers":[65,66,64,48,71,53,51,53,57,80],"right_numbers":[65,79,73,89,81,77,85,85,80,83],"points_earned":734,"trial_type":"horizons-task","trial_index":89,"time_elapsed":796228,"internal_node_id":"0.0-85.0"},{"rt":15660,"responses":{"age":"27","gender-categorical":"Male","gender-free-response":"","ethnicity":"Not Hispanic or Latino","race":["Asian"],"language":"Yes","fluency":"Well"},"survey":"demographics","trial_type":"survey-demo","trial_index":90,"time_elapsed":811892,"internal_node_id":"0.0-86.0"},{"rt":31853,"responses":{"difficulty":"5","fun":"2","clarity":"5","strategy":"I tried to take the average of both sides before choosing one side to focus on.","feedback":""},"survey":"debrief","trial_type":"survey-debrief","trial_index":91,"time_elapsed":843748,"internal_node_id":"0.0-87.0","interactions":"[{\"event\":\"focus\",\"trial\":0,\"time\":0},{\"event\":\"blur\",\"trial\":2,\"time\":57680},{\"event\":\"focus\",\"trial\":2,\"time\":58911},{\"event\":\"blur\",\"trial\":70,\"time\":631932},{\"event\":\"focus\",\"trial\":70,\"time\":673473}]"}]