[{"view_history":"[{\"page_index\":0,\"viewing_time\":4669.685000000754}]","rt":4670.25000002468,"trial_type":"instructions","trial_index":0,"time_elapsed":4676,"internal_node_id":"0.0-0.0"},{"item_order":[1,7,4,11,6,0,5,9,8,12,10,2,3],"responses":{"Q02":"2","Q08":"0","Q05":"1","Q12":"0","Q07":"1","Q01":"0","Q06":"0","Q10":"0","Q09":"1","Q13":"4","Q11":"1","Q03":"0","Q04":"1"},"radio_events":[8556.579999974929,14186.584999988554,23355.474999989383,28004.649999988033,36556.529999972554,43137.57999998052,45914.549999986775,50585.559999977704,53389.58499999717,58754.559999972116,68441.40499999048,72655.47999998671,79008.36999999592],"key_events":[],"mouse_events":[1.9449999963399023,8556.579999974929,14186.584999988554,23355.474999989383,28004.649999988033,36556.529999972554,43137.57999998052,45914.549999986775,50585.559999977704,53389.58499999717,58754.559999972116,68441.40499999048,72655.47999998671,79008.36999999592,80993.44999997993],"rt":80997.0499999763,"survey":"ius12","trial_type":"survey-template","trial_index":1,"time_elapsed":85677,"internal_node_id":"0.0-1.0"},{"item_order":[11,10,14,7,1,16,0,5,2,12,6,4,3,13,8,9,15],"responses":{"Q12":"2","Q11":"2","Q15":"1","Q08":"2","Q02":"1","Q17":"0","Q01":"2","Q06":"1","Q03":"2","Q13":"2","Q07":"1","Q05":"1","Q04":"1","Q14":"1","Q09":"2","Q10":"3","Q16":"2"},"radio_events":[11576.404999999795,18828.414999996312,22023.32999999635,26045.160000008764,30357.205000007525,33714.139999996405,38838.240000011865,43475.16000000178,47794.25999999512,53058.95499998587,54946.20499998564,58940.085000009276,61027.035000006435,63701.109999994515,68733.00499998732,72948.02999999956,75068.05500001065,76328.00000000861],"key_events":[],"mouse_events":[11576.404999999795,18828.414999996312,22023.32999999635,26045.160000008764,30357.205000007525,33714.139999996405,38838.240000011865,43475.16000000178,47794.25999999512,53058.95499998587,54946.20499998564,58940.085000009276,61027.035000006435,63701.109999994515,68733.00499998732,72948.02999999956,75068.05500001065,76328.00000000861,77193.15499998629],"rt":77196.18999998784,"survey":"pswq","trial_type":"survey-template","trial_index":2,"time_elapsed":162878,"internal_node_id":"0.0-2.0"},{"view_history":"[{\"page_index\":0,\"viewing_time\":3913.2900000258815},{\"page_index\":1,\"viewing_time\":9738.489999988815},{\"page_index\":2,\"viewing_time\":13047.35000000801},{\"page_index\":3,\"viewing_time\":6599.929999996675},{\"page_index\":4,\"viewing_time\":5288.094999996247},{\"page_index\":5,\"viewing_time\":4831.895000010263},{\"page_index\":6,\"viewing_time\":8408.09499999159},{\"page_index\":7,\"viewing_time\":10255.940000002738},{\"page_index\":8,\"viewing_time\":8871.840000007069},{\"page_index\":9,\"viewing_time\":8167.999999976018}]","rt":79123.19500002195,"trial_type":"instructions","trial_index":3,"time_elapsed":242003,"internal_node_id":"0.0-3.0-0.0"},{"response_times":[1424.8249999945983,1143.754999997327,919.9850000150036,1071.9950000056997,3135.920000000624],"keys_pressed":["rightarrow","leftarrow","rightarrow","rightarrow","leftarrow"],"horizon":5,"forced_choices":["rightarrow","leftarrow","rightarrow","rightarrow"],"right_color":"lightblue","left_color":"orange","left_mu":40,"right_mu":20,"left_numbers":[34,47,37,33,40],"right_numbers":[11,17,10,11,27],"points_earned":119,"trial_type":"horizons-task","trial_index":4,"time_elapsed":251208,"internal_node_id":"0.0-3.0-1.0"},{"response_times":[1154.0949999762233,1623.8299999968149,799.8749999969732,816.0250000073574,1367.8950000030454,2336.07000001939,711.9550000061281,1368.04500001017,3480.024999997113,487.7800000249408],"keys_pressed":["leftarrow","leftarrow","rightarrow","rightarrow","rightarrow","rightarrow","rightarrow","rightarrow","rightarrow","rightarrow"],"horizon":10,"forced_choices":["leftarrow","leftarrow","rightarrow","rightarrow"],"right_color":"orange","left_color":"lightblue","left_mu":60,"right_mu":70,"left_numbers":[67,66,63,63,65,64,52,67,66,64],"right_numbers":[66,65,72,75,71,81,78,61,69,79],"points_earned":719,"trial_type":"horizons-task","trial_index":5,"time_elapsed":266854,"internal_node_id":"0.0-3.0-2.0"},{"view_history":"[{\"page_index\":0,\"viewing_time\":1283.079999993788},{\"page_index\":1,\"viewing_time\":4287.944999989122},{\"page_index\":2,\"viewing_time\":3648.1600000115577},{\"page_index\":3,\"viewing_time\":1927.865000005113}]","rt":11147.254999988945,"trial_type":"instructions","trial_index":6,"time_elapsed":278002,"internal_node_id":"0.0-3.0-3.0"},{"responses":["true","false","false","true"],"num_errors":0,"rt":18938.374999997905,"trial_type":"horizons-comprehension","trial_index":7,"time_elapsed":296943,"internal_node_id":"0.0-3.0-4.0"},{"view_history":"[{\"page_index\":0,\"viewing_time\":1644.834999984596},{\"page_index\":1,\"viewing_time\":6195.880000013858}]","rt":7841.015000012703,"trial_type":"instructions","trial_index":8,"time_elapsed":304786,"internal_node_id":"0.0-4.0"},{"response_times":[995.1000000000931,607.864999998128,1056.1699999962002,807.8699999896344,3279.945000016596,592.0050000131596,439.9050000065472,311.9599999918137,359.9850000173319,535.9400000015739],"keys_pressed":["rightarrow","leftarrow","leftarrow","leftarrow","leftarrow","leftarrow","leftarrow","leftarrow","leftarrow","leftarrow"],"horizon":10,"forced_choices":["rightarrow","leftarrow","leftarrow","leftarrow"],"right_color":"lightblue","left_color":"orange","left_mu":40,"right_mu":28,"left_numbers":[44,27,38,39,43,45,31,42,41,43],"right_numbers":[21,40,23,17,12,30,22,16,25,24],"points_earned":370,"trial_type":"horizons-task","trial_index":9,"time_elapsed":315279,"internal_node_id":"0.0-5.0"},{"response_times":[745.2500000072177,1000.0449999934062,647.9699999908917,1312.0250000210945,159.7699999983888],"keys_pressed":["rightarrow","rightarrow","leftarrow","leftarrow","leftarrow"],"horizon":5,"forced_choices":["rightarrow","rightarrow","leftarrow","leftarrow"],"right_color":"lightblue","left_color":"orange","left_mu":60,"right_mu":40,"left_numbers":[65,62,71,64,52],"right_numbers":[35,43,45,38,41],"points_earned":265,"trial_type":"horizons-task","trial_index":10,"time_elapsed":320648,"internal_node_id":"0.0-6.0"},{"response_times":[761.5300000179559,991.9299999892246,1519.945000007283,2064.0000000130385,863.9100000145845],"keys_pressed":["rightarrow","rightarrow","leftarrow","leftarrow","rightarrow"],"horizon":5,"forced_choices":["rightarrow","rightarrow","leftarrow","leftarrow"],"right_color":"orange","left_color":"lightblue","left_mu":60,"right_mu":72,"left_numbers":[52,47,62,63,70],"right_numbers":[79,70,70,62,86],"points_earned":360,"trial_type":"horizons-task","trial_index":11,"time_elapsed":328351,"internal_node_id":"0.0-7.0"},{"response_times":[898.0799999844749,1039.8649999988265,4159.990000014659,1647.8549999883398,8216.214999993099],"keys_pressed":["rightarrow","leftarrow","rightarrow","leftarrow","leftarrow"],"horizon":5,"forced_choices":["rightarrow","leftarrow","rightarrow","leftarrow"],"right_color":"lightblue","left_color":"orange","left_mu":40,"right_mu":52,"left_numbers":[52,32,26,48,50],"right_numbers":[39,51,40,47,59],"points_earned":209,"trial_type":"horizons-task","trial_index":12,"time_elapsed":345816,"internal_node_id":"0.0-8.0"},{"response_times":[673.1199999921955,599.8350000008941,671.9350000203121,1135.9700000029989,2784.0349999896716,279.85500000067987,168.00000000512227,152.03500000643544,127.85499999881722,143.9200000022538],"keys_pressed":["rightarrow","rightarrow","leftarrow","rightarrow","rightarrow","rightarrow","rightarrow","rightarrow","rightarrow","rightarrow"],"horizon":10,"forced_choices":["rightarrow","rightarrow","leftarrow","rightarrow"],"right_color":"orange","left_color":"lightblue","left_mu":40,"right_mu":60,"left_numbers":[28,32,45,30,34,44,44,45,43,40],"right_numbers":[63,61,74,56,42,40,57,61,70,64],"points_earned":559,"trial_type":"horizons-task","trial_index":13,"time_elapsed":354055,"internal_node_id":"0.0-9.0"},{"response_times":[794.5600000093691,391.8800000101328,647.8950000018813,568.024999985937,23280.239999992773,519.6100000175647,295.9700000064913,335.94999997876585,352.0250000001397,304.0799999726005],"keys_pressed":["rightarrow","leftarrow","leftarrow","leftarrow","leftarrow","leftarrow","leftarrow","leftarrow","leftarrow","leftarrow"],"horizon":10,"forced_choices":["rightarrow","leftarrow","leftarrow","leftarrow"],"right_color":"orange","left_color":"lightblue","left_mu":60,"right_mu":52,"left_numbers":[52,42,63,52,58,64,48,54,40,59],"right_numbers":[48,42,49,60,61,47,60,45,42,54],"points_earned":528,"trial_type":"horizons-task","trial_index":14,"time_elapsed":383046,"internal_node_id":"0.0-10.0"},{"response_times":[578.0550000199582,591.8649999948684,551.9249999779277,607.9800000006799,600.0549999880604,2120.040000008885,151.8600000126753,143.85999998194166,128.0900000128895,143.85500000207685],"keys_pressed":["leftarrow","leftarrow","leftarrow","rightarrow","leftarrow","rightarrow","rightarrow","rightarrow","rightarrow","rightarrow"],"horizon":10,"forced_choices":["leftarrow","leftarrow","leftarrow","rightarrow"],"right_color":"orange","left_color":"lightblue","left_mu":60,"right_mu":64,"left_numbers":[57,60,58,51,61,45,63,53,53,50],"right_numbers":[59,64,59,69,69,55,54,75,70,48],"points_earned":607,"trial_type":"horizons-task","trial_index":15,"time_elapsed":390167,"internal_node_id":"0.0-11.0"},{"response_times":[729.3899999931455,655.8349999831989,607.8899999847636,1191.9900000211783,2471.9549999863375,2535.990000003949,2479.974999994738,1616.1000000138301,135.85999998031184,135.80499999807216],"keys_pressed":["rightarrow","rightarrow","leftarrow","rightarrow","leftarrow","rightarrow","leftarrow","rightarrow","rightarrow","rightarrow"],"horizon":10,"forced_choices":["rightarrow","rightarrow","leftarrow","rightarrow"],"right_color":"lightblue","left_color":"orange","left_mu":60,"right_mu":64,"left_numbers":[57,63,68,45,55,60,51,67,50,57],"right_numbers":[61,66,54,56,76,66,79,56,70,58],"points_earned":607,"trial_type":"horizons-task","trial_index":16,"time_elapsed":404231,"internal_node_id":"0.0-12.0"},{"response_times":[745.0199999730103,599.9299999966752,1096.0049999994226,1695.9499999938998,1023.9449999935459,543.9300000143703,231.98499999125488,151.90500000608154,120.00500000431202,136.0350000031758],"keys_pressed":["rightarrow","rightarrow","rightarrow","leftarrow","rightarrow","rightarrow","rightarrow","rightarrow","rightarrow","rightarrow"],"horizon":10,"forced_choices":["rightarrow","rightarrow","rightarrow","leftarrow"],"right_color":"lightblue","left_color":"orange","left_mu":60,"right_mu":80,"left_numbers":[83,56,54,55,48,56,65,66,65,54],"right_numbers":[78,81,85,72,79,79,78,91,81,98],"points_earned":805,"trial_type":"horizons-task","trial_index":17,"time_elapsed":412079,"internal_node_id":"0.0-13.0"},{"response_times":[673.4600000199862,551.9100000092294,2064.0200000198092,1359.9099999992177,623.9349999814294],"keys_pressed":["rightarrow","leftarrow","rightarrow","leftarrow","rightarrow"],"horizon":5,"forced_choices":["rightarrow","leftarrow","rightarrow","leftarrow"],"right_color":"orange","left_color":"lightblue","left_mu":40,"right_mu":70,"left_numbers":[41,37,56,47,40],"right_numbers":[69,55,64,63,78],"points_earned":295,"trial_type":"horizons-task","trial_index":18,"time_elapsed":418854,"internal_node_id":"0.0-14.0"},{"response_times":[673.9899999811314,399.9349999940023,967.8800000110641,703.9299999887589,808.1149999925401,2432.0149999985006,1663.860000000568,1439.9999999732245,135.8450000116136,151.9749999861233],"keys_pressed":["rightarrow","leftarrow","leftarrow","leftarrow","rightarrow","leftarrow","rightarrow","leftarrow","leftarrow","leftarrow"],"horizon":10,"forced_choices":["rightarrow","leftarrow","leftarrow","leftarrow"],"right_color":"orange","left_color":"lightblue","left_mu":60,"right_mu":64,"left_numbers":[81,70,54,56,55,65,64,53,57,63],"right_numbers":[55,63,68,66,62,60,63,73,54,69],"points_earned":598,"trial_type":"horizons-task","trial_index":19,"time_elapsed":429734,"internal_node_id":"0.0-15.0"},{"response_times":[562.4800000223331,367.8699999873061,1072.1149999881163,2688.0249999812804,576.0450000234414],"keys_pressed":["rightarrow","leftarrow","leftarrow","rightarrow","rightarrow"],"horizon":5,"forced_choices":["rightarrow","leftarrow","leftarrow","rightarrow"],"right_color":"lightblue","left_color":"orange","left_mu":40,"right_mu":44,"left_numbers":[30,44,38,44,33],"right_numbers":[46,56,46,51,57],"points_earned":236,"trial_type":"horizons-task","trial_index":20,"time_elapsed":436503,"internal_node_id":"0.0-16.0"},{"response_times":[641.2950000085402,479.8400000145193,944.0499999909662,975.9250000061002,952.0550000015646],"keys_pressed":["rightarrow","rightarrow","leftarrow","leftarrow","rightarrow"],"horizon":5,"forced_choices":["rightarrow","rightarrow","leftarrow","leftarrow"],"right_color":"lightblue","left_color":"orange","left_mu":60,"right_mu":72,"left_numbers":[72,71,77,70,54],"right_numbers":[82,73,80,83,76],"points_earned":378,"trial_type":"horizons-task","trial_index":21,"time_elapsed":441998,"internal_node_id":"0.0-17.0"},{"response_times":[601.2949999712873,343.9399999915622,1191.9600000255741,2312.054999987595,455.89499999186955],"keys_pressed":["rightarrow","leftarrow","leftarrow","leftarrow","leftarrow"],"horizon":5,"forced_choices":["rightarrow","leftarrow","leftarrow","leftarrow"],"right_color":"orange","left_color":"lightblue","left_mu":40,"right_mu":10,"left_numbers":[40,28,49,39,48],"right_numbers":[17,10,0,23,25],"points_earned":181,"trial_type":"horizons-task","trial_index":22,"time_elapsed":448406,"internal_node_id":"0.0-18.0"},{"response_times":[698.0099999927916,455.89499999186955,792.0200000226032,1264.0050000045449,831.9599999813363],"keys_pressed":["rightarrow","leftarrow","leftarrow","rightarrow","leftarrow"],"horizon":5,"forced_choices":["rightarrow","leftarrow","leftarrow","rightarrow"],"right_color":"lightblue","left_color":"orange","left_mu":60,"right_mu":56,"left_numbers":[67,67,58,59,52],"right_numbers":[57,56,54,66,69],"points_earned":300,"trial_type":"horizons-task","trial_index":23,"time_elapsed":453950,"internal_node_id":"0.0-19.0"},{"response_times":[753.7249999877531,455.9949999966193,815.9950000117533,536.0100000107195,1151.8199999991339,160.11500000604428,135.80499999807216,159.9749999877531,136.0100000165403,135.92999998945743],"keys_pressed":["leftarrow","rightarrow","rightarrow","leftarrow","rightarrow","rightarrow","rightarrow","rightarrow","rightarrow","rightarrow"],"horizon":10,"forced_choices":["leftarrow","rightarrow","rightarrow","leftarrow"],"right_color":"lightblue","left_color":"orange","left_mu":40,"right_mu":70,"left_numbers":[27,29,46,48,33,42,45,40,51,55],"right_numbers":[65,78,56,64,63,64,79,71,66,76],"points_earned":628,"trial_type":"horizons-task","trial_index":24,"time_elapsed":459894,"internal_node_id":"0.0-20.0"},{"response_times":[938.2500000065193,543.904999998631,687.9299999854993,1072.054999996908,1375.930000009248],"keys_pressed":["leftarrow","rightarrow","rightarrow","rightarrow","leftarrow"],"horizon":5,"forced_choices":["leftarrow","rightarrow","rightarrow","rightarrow"],"right_color":"lightblue","left_color":"orange","left_mu":60,"right_mu":30,"left_numbers":[49,62,70,44,52],"right_numbers":[35,28,29,29,29],"points_earned":187,"trial_type":"horizons-task","trial_index":25,"time_elapsed":466014,"internal_node_id":"0.0-21.0"},{"response_times":[826.2399999948684,775.8449999964796,535.9400000015739,1287.9850000026636,1375.9750000026543],"keys_pressed":["rightarrow","rightarrow","leftarrow","leftarrow","leftarrow"],"horizon":5,"forced_choices":["rightarrow","rightarrow","leftarrow","leftarrow"],"right_color":"orange","left_color":"lightblue","left_mu":40,"right_mu":44,"left_numbers":[47,34,30,49,48],"right_numbers":[40,35,48,47,27],"points_earned":202,"trial_type":"horizons-task","trial_index":26,"time_elapsed":472318,"internal_node_id":"0.0-22.0"},{"response_times":[649.440000008326,511.8349999829661,976.0649999952875,1199.9000000068918,2192.175000003772,2272.880000004079,942.8349999943748,127.78999999864027,136.14500002586283,135.920000000624],"keys_pressed":["rightarrow","leftarrow","leftarrow","rightarrow","rightarrow","leftarrow","rightarrow","rightarrow","rightarrow","rightarrow"],"horizon":10,"forced_choices":["rightarrow","leftarrow","leftarrow","rightarrow"],"right_color":"orange","left_color":"lightblue","left_mu":40,"right_mu":60,"left_numbers":[20,45,40,44,30,48,41,28,42,26],"right_numbers":[47,58,63,58,62,56,56,68,71,54],"points_earned":549,"trial_type":"horizons-task","trial_index":27,"time_elapsed":482966,"internal_node_id":"0.0-23.0"},{"response_times":[1305.690000008326,423.97500001243316,431.88499999814667,832.0850000018254,6832.8399999882095,943.0649999994785,727.9400000115857,143.84000000427477,144.01999997789972,135.98500000080094],"keys_pressed":["leftarrow","rightarrow","rightarrow","leftarrow","leftarrow","rightarrow","leftarrow","leftarrow","leftarrow","leftarrow"],"horizon":10,"forced_choices":["leftarrow","rightarrow","rightarrow","leftarrow"],"right_color":"orange","left_color":"lightblue","left_mu":40,"right_mu":36,"left_numbers":[37,35,34,44,44,33,39,43,46,38],"right_numbers":[45,41,35,35,39,18,60,35,33,29],"points_earned":385,"trial_type":"horizons-task","trial_index":28,"time_elapsed":496389,"internal_node_id":"0.0-24.0"},{"response_times":[658.4300000104122,479.8599999921862,440.02999999793246,551.9099999801256,2912.1049999957904],"keys_pressed":["rightarrow","rightarrow","leftarrow","rightarrow","leftarrow"],"horizon":5,"forced_choices":["rightarrow","rightarrow","leftarrow","rightarrow"],"right_color":"orange","left_color":"lightblue","left_mu":60,"right_mu":48,"left_numbers":[48,59,56,63,60],"right_numbers":[52,33,56,30,48],"points_earned":231,"trial_type":"horizons-task","trial_index":29,"time_elapsed":502935,"internal_node_id":"0.0-25.0"},{"response_times":[1761.3150000106543,495.744999992894,1112.1149999962654,863.8099999807309,1256.0749999829568],"keys_pressed":["leftarrow","leftarrow","leftarrow","rightarrow","leftarrow"],"horizon":5,"forced_choices":["leftarrow","leftarrow","leftarrow","rightarrow"],"right_color":"lightblue","left_color":"orange","left_mu":60,"right_mu":30,"left_numbers":[52,62,56,53,77],"right_numbers":[41,32,26,23,19],"points_earned":270,"trial_type":"horizons-task","trial_index":30,"time_elapsed":509926,"internal_node_id":"0.0-26.0"},{"response_times":[458.4000000031665,415.90500000165775,736.0599999956321,783.995000005234,664.0199999965262,135.79999998910353,128.02999999257736,127.87999998545274,119.98999997740611,207.9950000043027],"keys_pressed":["rightarrow","leftarrow","leftarrow","leftarrow","rightarrow","rightarrow","rightarrow","rightarrow","rightarrow","rightarrow"],"horizon":10,"forced_choices":["rightarrow","leftarrow","leftarrow","leftarrow"],"right_color":"orange","left_color":"lightblue","left_mu":40,"right_mu":52,"left_numbers":[31,40,42,26,43,41,41,51,56,31],"right_numbers":[59,51,59,57,51,41,52,47,53,51],"points_earned":462,"trial_type":"horizons-task","trial_index":31,"time_elapsed":515206,"internal_node_id":"0.0-27.0"},{"response_times":[666.3299999781884,567.8599999810103,552.0599999872502,991.9299999892246,2039.9449999968056],"keys_pressed":["leftarrow","leftarrow","rightarrow","rightarrow","rightarrow"],"horizon":5,"forced_choices":["leftarrow","leftarrow","rightarrow","rightarrow"],"right_color":"orange","left_color":"lightblue","left_mu":40,"right_mu":28,"left_numbers":[20,24,38,39,28],"right_numbers":[38,40,36,24,37],"points_earned":141,"trial_type":"horizons-task","trial_index":32,"time_elapsed":521527,"internal_node_id":"0.0-28.0"},{"response_times":[481.595000019297,559.8199999949429,480.039999994915,383.9649999863468,2160.0350000080653,5128.035000001546,903.8700000091922,679.9449999816716,143.89499998651445,135.9449999872595],"keys_pressed":["leftarrow","leftarrow","rightarrow","leftarrow","rightarrow","leftarrow","rightarrow","leftarrow","leftarrow","leftarrow"],"horizon":10,"forced_choices":["leftarrow","leftarrow","rightarrow","leftarrow"],"right_color":"orange","left_color":"lightblue","left_mu":40,"right_mu":28,"left_numbers":[37,43,43,37,41,29,49,35,48,50],"right_numbers":[42,16,33,36,34,24,9,29,14,27],"points_earned":355,"trial_type":"horizons-task","trial_index":33,"time_elapsed":534087,"internal_node_id":"0.0-29.0"},{"response_times":[745.2599999960512,391.98499999474734,583.8949999888428,1824.079999991227,143.7900000018999],"keys_pressed":["rightarrow","leftarrow","leftarrow","leftarrow","leftarrow"],"horizon":5,"forced_choices":["rightarrow","leftarrow","leftarrow","leftarrow"],"right_color":"lightblue","left_color":"orange","left_mu":60,"right_mu":56,"left_numbers":[60,68,68,55,64],"right_numbers":[54,57,51,58,54],"points_earned":309,"trial_type":"horizons-task","trial_index":34,"time_elapsed":539279,"internal_node_id":"0.0-30.0"},{"response_times":[569.3399999872781,464.0099999960512,727.9099999868777,855.9200000017881,2048.1049999943934],"keys_pressed":["leftarrow","rightarrow","leftarrow","leftarrow","rightarrow"],"horizon":5,"forced_choices":["leftarrow","rightarrow","leftarrow","leftarrow"],"right_color":"lightblue","left_color":"orange","left_mu":60,"right_mu":56,"left_numbers":[61,53,44,62,67],"right_numbers":[65,64,56,39,52],"points_earned":283,"trial_type":"horizons-task","trial_index":35,"time_elapsed":545447,"internal_node_id":"0.0-31.0"},{"response_times":[561.4800000039395,544.0149999922141,695.9400000050664,1912.0100000000093,1751.9349999784026],"keys_pressed":["rightarrow","rightarrow","leftarrow","leftarrow","rightarrow"],"horizon":5,"forced_choices":["rightarrow","rightarrow","leftarrow","leftarrow"],"right_color":"orange","left_color":"lightblue","left_mu":40,"right_mu":52,"left_numbers":[35,44,37,46,36],"right_numbers":[42,52,47,52,49],"points_earned":226,"trial_type":"horizons-task","trial_index":36,"time_elapsed":552415,"internal_node_id":"0.0-32.0"},{"response_times":[673.2599999813829,599.9299999966752,647.9249999974854,743.9700000104494,536.0099999816157],"keys_pressed":["rightarrow","rightarrow","leftarrow","leftarrow","leftarrow"],"horizon":5,"forced_choices":["rightarrow","rightarrow","leftarrow","leftarrow"],"right_color":"lightblue","left_color":"orange","left_mu":60,"right_mu":30,"left_numbers":[57,76,74,63,57],"right_numbers":[20,41,44,36,33],"points_earned":255,"trial_type":"horizons-task","trial_index":37,"time_elapsed":557119,"internal_node_id":"0.0-33.0"},{"response_times":[713.1450000160839,1111.895000009099,560.0050000066403,1496.015000011539,591.8949999904726],"keys_pressed":["rightarrow","rightarrow","leftarrow","leftarrow","rightarrow"],"horizon":5,"forced_choices":["rightarrow","rightarrow","leftarrow","leftarrow"],"right_color":"lightblue","left_color":"orange","left_mu":60,"right_mu":68,"left_numbers":[61,46,57,60,54],"right_numbers":[74,75,71,54,69],"points_earned":335,"trial_type":"horizons-task","trial_index":38,"time_elapsed":563094,"internal_node_id":"0.0-34.0"},{"response_times":[545.7450000103563,399.91000000736676,1207.9049999883864,743.9200000080746,927.994999976363],"keys_pressed":["leftarrow","rightarrow","rightarrow","rightarrow","rightarrow"],"horizon":5,"forced_choices":["leftarrow","rightarrow","rightarrow","rightarrow"],"right_color":"orange","left_color":"lightblue","left_mu":60,"right_mu":80,"left_numbers":[54,70,76,64,61],"right_numbers":[91,90,79,81,80],"points_earned":384,"trial_type":"horizons-task","trial_index":39,"time_elapsed":568421,"internal_node_id":"0.0-35.0"},{"response_times":[770.3700000129174,759.9650000047404,583.9599999890197,1008.0349999770988,927.8999999805819,135.81500001600944,136.0899999854155,143.92999999108724,127.96499999240041,144.029999995837],"keys_pressed":["rightarrow","rightarrow","leftarrow","leftarrow","rightarrow","rightarrow","rightarrow","rightarrow","rightarrow","rightarrow"],"horizon":10,"forced_choices":["rightarrow","rightarrow","leftarrow","leftarrow"],"right_color":"lightblue","left_color":"orange","left_mu":60,"right_mu":64,"left_numbers":[56,58,60,60,63,62,43,46,60,68],"right_numbers":[65,72,68,68,70,59,65,64,60,64],"points_earned":639,"trial_type":"horizons-task","trial_index":40,"time_elapsed":574662,"internal_node_id":"0.0-36.0"},{"response_times":[945.2800000144634,567.83000001451,695.9400000050664,559.9800000200048,712.020000006305,135.81999999587424,128.0700000061188,135.85999998031184,127.9950000171084,127.97000000136904],"keys_pressed":["leftarrow","rightarrow","rightarrow","leftarrow","rightarrow","rightarrow","rightarrow","rightarrow","rightarrow","rightarrow"],"horizon":10,"forced_choices":["leftarrow","rightarrow","rightarrow","leftarrow"],"right_color":"lightblue","left_color":"orange","left_mu":40,"right_mu":60,"left_numbers":[35,39,37,42,47,44,37,31,41,32],"right_numbers":[66,53,41,56,71,40,66,62,45,60],"points_earned":515,"trial_type":"horizons-task","trial_index":41,"time_elapsed":580302,"internal_node_id":"0.0-37.0"},{"response_times":[641.6599999938626,423.9749999833293,928.6949999805074,551.1899999983143,648.0149999842979,135.86499998928048,120.00000002444722,127.98499999917112,119.92499997722916,112.01500002061948],"keys_pressed":["leftarrow","rightarrow","leftarrow","rightarrow","rightarrow","rightarrow","rightarrow","rightarrow","rightarrow","rightarrow"],"horizon":10,"forced_choices":["leftarrow","rightarrow","leftarrow","rightarrow"],"right_color":"orange","left_color":"lightblue","left_mu":60,"right_mu":68,"left_numbers":[49,55,55,70,61,72,55,61,58,53],"right_numbers":[70,80,62,73,74,53,64,67,73,66],"points_earned":654,"trial_type":"horizons-task","trial_index":42,"time_elapsed":585614,"internal_node_id":"0.0-38.0"},{"response_times":[617.9149999807123,327.83000002382323,760.1100000028964,879.9500000022817,1463.8749999867287],"keys_pressed":["leftarrow","rightarrow","rightarrow","rightarrow","leftarrow"],"horizon":5,"forced_choices":["leftarrow","rightarrow","rightarrow","rightarrow"],"right_color":"orange","left_color":"lightblue","left_mu":40,"right_mu":36,"left_numbers":[46,34,46,40,43],"right_numbers":[53,29,22,44,28],"points_earned":184,"trial_type":"horizons-task","trial_index":43,"time_elapsed":591165,"internal_node_id":"0.0-39.0"},{"response_times":[562.3849999974482,399.89000000059605,344.03999999631196,1479.9849999835715,448.0150000017602],"keys_pressed":["rightarrow","leftarrow","rightarrow","rightarrow","leftarrow"],"horizon":5,"forced_choices":["rightarrow","leftarrow","rightarrow","rightarrow"],"right_color":"lightblue","left_color":"orange","left_mu":40,"right_mu":10,"left_numbers":[35,42,45,30,54],"right_numbers":[0,3,24,0,16],"points_earned":120,"trial_type":"horizons-task","trial_index":44,"time_elapsed":595902,"internal_node_id":"0.0-40.0"},{"response_times":[785.1249999948777,375.80499998875894,583.9649999979883,488.3750000153668,735.5350000143517,1344.020000018645,143.8299999863375,144.04499999363907,143.915000022389,152.01499999966472],"keys_pressed":["leftarrow","rightarrow","rightarrow","leftarrow","rightarrow","leftarrow","leftarrow","leftarrow","leftarrow","leftarrow"],"horizon":10,"forced_choices":["leftarrow","rightarrow","rightarrow","leftarrow"],"right_color":"lightblue","left_color":"orange","left_mu":40,"right_mu":32,"left_numbers":[40,35,43,40,45,50,36,40,37,43],"right_numbers":[43,34,30,31,37,35,33,33,35,43],"points_earned":387,"trial_type":"horizons-task","trial_index":45,"time_elapsed":602302,"internal_node_id":"0.0-41.0"},{"response_times":[609.0949999925215,447.85999998566695,583.9899999846239,840.009999985341,4032.1249999979045],"keys_pressed":["leftarrow","rightarrow","leftarrow","leftarrow","rightarrow"],"horizon":5,"forced_choices":["leftarrow","rightarrow","leftarrow","leftarrow"],"right_color":"lightblue","left_color":"orange","left_mu":60,"right_mu":64,"left_numbers":[52,59,64,44,59],"right_numbers":[59,66,70,55,61],"points_earned":287,"trial_type":"horizons-task","trial_index":46,"time_elapsed":610318,"internal_node_id":"0.0-42.0"},{"response_times":[593.3599999989383,303.92000000574626,624.0150000085123,791.9300000066869,719.9950000212993,135.87500000721775,127.98499999917112,151.9550000084564,144.029999995837,143.96499999566004],"keys_pressed":["rightarrow","leftarrow","leftarrow","rightarrow","leftarrow","leftarrow","leftarrow","leftarrow","leftarrow","leftarrow"],"horizon":10,"forced_choices":["rightarrow","leftarrow","leftarrow","rightarrow"],"right_color":"orange","left_color":"lightblue","left_mu":60,"right_mu":52,"left_numbers":[54,65,66,52,76,63,54,82,48,60],"right_numbers":[45,47,59,43,53,52,47,55,46,51],"points_earned":602,"trial_type":"horizons-task","trial_index":47,"time_elapsed":615557,"internal_node_id":"0.0-43.0"},{"response_times":[594.1900000034366,311.8900000117719,1167.9500000027474,896.069999987958,952.1050000039395,135.76499998453073,127.92500000796281,119.97499997960404,111.96999999810942,135.9449999872595],"keys_pressed":["leftarrow","rightarrow","rightarrow","leftarrow","rightarrow","rightarrow","rightarrow","rightarrow","rightarrow","rightarrow"],"horizon":10,"forced_choices":["leftarrow","rightarrow","rightarrow","leftarrow"],"right_color":"lightblue","left_color":"orange","left_mu":60,"right_mu":90,"left_numbers":[68,64,60,66,47,52,51,49,63,60],"right_numbers":[86,99,105,95,97,90,102,83,91,81],"points_earned":882,"trial_type":"horizons-task","trial_index":48,"time_elapsed":621614,"internal_node_id":"0.0-44.0"},{"view_history":"[{\"page_index\":0,\"viewing_time\":2881.065000023227},{\"page_index\":1,\"viewing_time\":1951.7849999829195}]","rt":4833.220000000438,"trial_type":"instructions","trial_index":49,"time_elapsed":626448,"internal_node_id":"0.0-45.0"},{"response_times":[1052.4100000038743,487.9500000097323,704.0600000182167,2176.015000004554,2183.889999985695],"keys_pressed":["leftarrow","rightarrow","rightarrow","leftarrow","leftarrow"],"horizon":5,"forced_choices":["leftarrow","rightarrow","rightarrow","leftarrow"],"right_color":"lightblue","left_color":"orange","left_mu":40,"right_mu":32,"left_numbers":[41,46,47,37,37],"right_numbers":[35,20,42,28,27],"points_earned":177,"trial_type":"horizons-task","trial_index":50,"time_elapsed":634558,"internal_node_id":"0.0-46.0"},{"response_times":[641.9500000192784,576.1249999923166,735.9500000020489,1248.0600000126287,671.8899999978021,135.89999999385327,144.0899999870453,143.85500000207685,128.02000000374392,119.93000001530163],"keys_pressed":["rightarrow","rightarrow","leftarrow","rightarrow","rightarrow","rightarrow","rightarrow","rightarrow","rightarrow","rightarrow"],"horizon":10,"forced_choices":["rightarrow","rightarrow","leftarrow","rightarrow"],"right_color":"lightblue","left_color":"orange","left_mu":40,"right_mu":60,"left_numbers":[45,36,39,52,41,42,43,33,32,37],"right_numbers":[64,60,56,65,46,55,50,63,49,62],"points_earned":553,"trial_type":"horizons-task","trial_index":51,"time_elapsed":640606,"internal_node_id":"0.0-47.0"},{"response_times":[617.820000014035,559.8550000286195,559.9400000064634,4976.024999981746,135.80999997793697],"keys_pressed":["leftarrow","leftarrow","rightarrow","leftarrow","leftarrow"],"horizon":5,"forced_choices":["leftarrow","leftarrow","rightarrow","leftarrow"],"right_color":"lightblue","left_color":"orange","left_mu":40,"right_mu":44,"left_numbers":[36,61,29,23,49],"right_numbers":[38,33,38,44,40],"points_earned":207,"trial_type":"horizons-task","trial_index":52,"time_elapsed":648958,"internal_node_id":"0.0-48.0"},{"response_times":[1281.4300000027288,456.0449999989942,607.994999998482,703.89500001329,439.91499999538064],"keys_pressed":["leftarrow","rightarrow","leftarrow","rightarrow","leftarrow"],"horizon":5,"forced_choices":["leftarrow","rightarrow","leftarrow","rightarrow"],"right_color":"orange","left_color":"lightblue","left_mu":60,"right_mu":30,"left_numbers":[59,63,66,58,59],"right_numbers":[30,19,24,36,22],"points_earned":239,"trial_type":"horizons-task","trial_index":53,"time_elapsed":653950,"internal_node_id":"0.0-49.0"},{"response_times":[730.2049999998417,776.0000000125729,695.9800000186078,679.9900000041816,1599.9549999833107],"keys_pressed":["rightarrow","rightarrow","leftarrow","rightarrow","rightarrow"],"horizon":5,"forced_choices":["rightarrow","rightarrow","leftarrow","rightarrow"],"right_color":"lightblue","left_color":"orange","left_mu":40,"right_mu":70,"left_numbers":[36,38,45,39,40],"right_numbers":[52,73,77,78,72],"points_earned":320,"trial_type":"horizons-task","trial_index":54,"time_elapsed":659934,"internal_node_id":"0.0-50.0"},{"response_times":[562.2549999970943,351.8800000019837,576.0650000011083,767.9050000151619,799.8950000037439,144.00500000920147,144.029999995837,135.82999998470768,151.97999999509193,143.97000000462867],"keys_pressed":["rightarrow","leftarrow","leftarrow","rightarrow","leftarrow","leftarrow","leftarrow","leftarrow","leftarrow","leftarrow"],"horizon":10,"forced_choices":["rightarrow","leftarrow","leftarrow","rightarrow"],"right_color":"lightblue","left_color":"orange","left_mu":60,"right_mu":48,"left_numbers":[61,63,64,48,62,53,72,47,73,66],"right_numbers":[42,62,47,38,42,49,29,42,37,60],"points_earned":580,"trial_type":"horizons-task","trial_index":55,"time_elapsed":665214,"internal_node_id":"0.0-51.0"},{"response_times":[594.2899999790825,359.8150000034366,871.9200000050478,1319.999999977881,1383.9999999909196,1984.0799999947194,127.82500000321306,151.7349999921862,144.3800000124611,143.74499997938983],"keys_pressed":["rightarrow","rightarrow","leftarrow","rightarrow","leftarrow","leftarrow","leftarrow","leftarrow","leftarrow","leftarrow"],"horizon":10,"forced_choices":["rightarrow","rightarrow","leftarrow","rightarrow"],"right_color":"orange","left_color":"lightblue","left_mu":60,"right_mu":52,"left_numbers":[60,46,55,62,58,73,71,44,56,78],"right_numbers":[25,56,50,53,25,77,60,51,69,43],"points_earned":569,"trial_type":"horizons-task","trial_index":56,"time_elapsed":673797,"internal_node_id":"0.0-52.0"},{"response_times":[490.32500002067536,503.84499999927357,424.05499998130836,471.9150000018999,1391.975000005914,143.97499998449348,127.88499999442138,127.94000000576489,112.040000007255,103.94000000087544],"keys_pressed":["rightarrow","leftarrow","rightarrow","leftarrow","rightarrow","rightarrow","rightarrow","rightarrow","rightarrow","rightarrow"],"horizon":10,"forced_choices":["rightarrow","leftarrow","rightarrow","leftarrow"],"right_color":"orange","left_color":"lightblue","left_mu":40,"right_mu":60,"left_numbers":[57,28,46,41,35,37,51,43,46,34],"right_numbers":[69,63,60,61,62,69,68,48,74,52],"points_earned":571,"trial_type":"horizons-task","trial_index":57,"time_elapsed":679198,"internal_node_id":"0.0-53.0"},{"response_times":[633.4599999827333,703.9900000090711,783.9600000006612,704.1049999825191,959.869999991497,1008.0599999928381,719.9550000077579,135.80499999807216,128.13500000629574,119.83999999938533],"keys_pressed":["leftarrow","leftarrow","leftarrow","rightarrow","leftarrow","rightarrow","rightarrow","rightarrow","rightarrow","rightarrow"],"horizon":10,"forced_choices":["leftarrow","leftarrow","leftarrow","rightarrow"],"right_color":"orange","left_color":"lightblue","left_mu":40,"right_mu":52,"left_numbers":[43,21,44,34,38,36,35,47,47,53],"right_numbers":[50,49,48,44,37,48,58,61,55,53],"points_earned":465,"trial_type":"horizons-task","trial_index":58,"time_elapsed":686598,"internal_node_id":"0.0-54.0"},{"response_times":[737.4150000105146,463.8750000158325,783.9149999781512,520.0600000098348,1560.0300000223797,135.76999999349937,144.05500001157634,135.91500002075918,144.03999998467043,151.87999999034218],"keys_pressed":["leftarrow","rightarrow","rightarrow","leftarrow","leftarrow","leftarrow","leftarrow","leftarrow","leftarrow","leftarrow"],"horizon":10,"forced_choices":["leftarrow","rightarrow","rightarrow","leftarrow"],"right_color":"lightblue","left_color":"orange","left_mu":40,"right_mu":28,"left_numbers":[38,40,25,45,34,47,34,24,46,38],"right_numbers":[23,22,36,29,17,19,22,22,24,27],"points_earned":364,"trial_type":"horizons-task","trial_index":59,"time_elapsed":692877,"internal_node_id":"0.0-55.0"},{"response_times":[778.1349999713711,895.8299999940209,544.0099999832455,519.8549999913666,2688.079999992624,1647.9600000020582,3848.1449999962933,4583.75999997952,775.9850000147708,183.93499997910112],"keys_pressed":["leftarrow","leftarrow","rightarrow","leftarrow","rightarrow","rightarrow","leftarrow","rightarrow","rightarrow","rightarrow"],"horizon":10,"forced_choices":["leftarrow","leftarrow","rightarrow","leftarrow"],"right_color":"orange","left_color":"lightblue","left_mu":40,"right_mu":52,"left_numbers":[54,48,35,37,38,37,43,40,50,52],"right_numbers":[65,52,44,43,50,33,52,65,57,46],"points_earned":477,"trial_type":"horizons-task","trial_index":60,"time_elapsed":710846,"internal_node_id":"0.0-56.0"},{"response_times":[800.794999988284,279.915000020992,671.905000024708,912.1100000047591,127.76499998290092],"keys_pressed":["leftarrow","rightarrow","rightarrow","leftarrow","leftarrow"],"horizon":5,"forced_choices":["leftarrow","rightarrow","rightarrow","leftarrow"],"right_color":"orange","left_color":"lightblue","left_mu":40,"right_mu":20,"left_numbers":[41,39,52,43,31],"right_numbers":[9,25,10,22,25],"points_earned":150,"trial_type":"horizons-task","trial_index":61,"time_elapsed":715142,"internal_node_id":"0.0-57.0"},{"response_times":[633.9850000222214,807.7650000050198,591.9700000085868,695.9750000096392,567.9949999903329],"keys_pressed":["rightarrow","rightarrow","leftarrow","leftarrow","leftarrow"],"horizon":5,"forced_choices":["rightarrow","rightarrow","leftarrow","leftarrow"],"right_color":"lightblue","left_color":"orange","left_mu":60,"right_mu":48,"left_numbers":[62,65,54,55,60],"right_numbers":[47,41,54,47,43],"points_earned":257,"trial_type":"horizons-task","trial_index":62,"time_elapsed":719942,"internal_node_id":"0.0-58.0"},{"response_times":[713.0699999979697,599.9149999988731,648.0500000179745,599.9500000034459,832.0150000217836,1991.9549999758601,520.0149999873247,127.80999997630715,152.07999999984168,143.97499998449348],"keys_pressed":["rightarrow","rightarrow","rightarrow","leftarrow","leftarrow","leftarrow","leftarrow","leftarrow","leftarrow","leftarrow"],"horizon":10,"forced_choices":["rightarrow","rightarrow","rightarrow","leftarrow"],"right_color":"lightblue","left_color":"orange","left_mu":60,"right_mu":56,"left_numbers":[59,73,63,65,60,66,53,73,57,60],"right_numbers":[57,49,64,56,63,58,52,47,51,47],"points_earned":604,"trial_type":"horizons-task","trial_index":63,"time_elapsed":727774,"internal_node_id":"0.0-59.0"},{"response_times":[651.9349999725819,415.8250000036787,559.9700000020675,664.0049999987241,128.035000001546],"keys_pressed":["leftarrow","rightarrow","leftarrow","leftarrow","leftarrow"],"horizon":5,"forced_choices":["leftarrow","rightarrow","leftarrow","leftarrow"],"right_color":"lightblue","left_color":"orange","left_mu":40,"right_mu":36,"left_numbers":[35,30,56,37,41],"right_numbers":[44,27,27,33,25],"points_earned":196,"trial_type":"horizons-task","trial_index":64,"time_elapsed":731702,"internal_node_id":"0.0-60.0"},{"response_times":[633.6900000169408,664.0149999875575,679.919999995036,1927.9950000054669,880.0899999914691],"keys_pressed":["rightarrow","leftarrow","leftarrow","leftarrow","rightarrow"],"horizon":5,"forced_choices":["rightarrow","leftarrow","leftarrow","leftarrow"],"right_color":"orange","left_color":"lightblue","left_mu":40,"right_mu":48,"left_numbers":[46,51,36,38,28],"right_numbers":[50,43,45,55,34],"points_earned":209,"trial_type":"horizons-task","trial_index":65,"time_elapsed":737989,"internal_node_id":"0.0-61.0"},{"response_times":[641.925000003539,431.799999991199,696.059999987483,1423.8699999987148,503.98999999742955],"keys_pressed":["rightarrow","leftarrow","leftarrow","rightarrow","leftarrow"],"horizon":5,"forced_choices":["rightarrow","leftarrow","leftarrow","rightarrow"],"right_color":"orange","left_color":"lightblue","left_mu":40,"right_mu":52,"left_numbers":[29,51,69,32,37],"right_numbers":[40,70,41,48,43],"points_earned":245,"trial_type":"horizons-task","trial_index":66,"time_elapsed":743189,"internal_node_id":"0.0-62.0"},{"response_times":[658.1400000141002,759.9000000045635,664.0499999921303,591.9200000062119,760.0649999803863],"keys_pressed":["rightarrow","rightarrow","leftarrow","rightarrow","rightarrow"],"horizon":5,"forced_choices":["rightarrow","rightarrow","leftarrow","rightarrow"],"right_color":"lightblue","left_color":"orange","left_mu":40,"right_mu":70,"left_numbers":[39,33,34,44,37],"right_numbers":[88,85,65,58,69],"points_earned":334,"trial_type":"horizons-task","trial_index":67,"time_elapsed":748126,"internal_node_id":"0.0-63.0"},{"response_times":[673.4399999841116,464.02499999385327,599.8550000076648,1248.024999978952,2000.0250000157394],"keys_pressed":["leftarrow","leftarrow","rightarrow","rightarrow","leftarrow"],"horizon":5,"forced_choices":["leftarrow","leftarrow","rightarrow","rightarrow"],"right_color":"orange","left_color":"lightblue","left_mu":60,"right_mu":40,"left_numbers":[65,58,65,66,67],"right_numbers":[64,43,43,56,39],"points_earned":289,"trial_type":"horizons-task","trial_index":68,"time_elapsed":754614,"internal_node_id":"0.0-64.0"},{"response_times":[537.2999999963213,407.8950000111945,800.0650000176392,560.025000013411,2239.9549999972805,847.8349999932107,816.0199999983888,143.96499999566004,135.91499999165535,144.0699999802746],"keys_pressed":["rightarrow","leftarrow","leftarrow","rightarrow","leftarrow","rightarrow","leftarrow","leftarrow","leftarrow","leftarrow"],"horizon":10,"forced_choices":["rightarrow","leftarrow","leftarrow","rightarrow"],"right_color":"orange","left_color":"lightblue","left_mu":60,"right_mu":52,"left_numbers":[55,35,81,77,63,59,72,60,46,53],"right_numbers":[48,59,58,61,44,46,58,58,56,56],"points_earned":565,"trial_type":"horizons-task","trial_index":69,"time_elapsed":762750,"internal_node_id":"0.0-65.0"},{"response_times":[569.694999983767,591.8349999992643,824.0649999934249,432.16999998549,1295.7599999790546],"keys_pressed":["rightarrow","rightarrow","rightarrow","leftarrow","rightarrow"],"horizon":5,"forced_choices":["rightarrow","rightarrow","rightarrow","leftarrow"],"right_color":"lightblue","left_color":"orange","left_mu":40,"right_mu":36,"left_numbers":[40,38,42,30,46],"right_numbers":[31,30,45,42,41],"points_earned":177,"trial_type":"horizons-task","trial_index":70,"time_elapsed":767966,"internal_node_id":"0.0-66.0"},{"response_times":[577.3599999956787,271.7650000122376,496.04999998700805,775.9350000123959,511.95499999448657],"keys_pressed":["rightarrow","rightarrow","leftarrow","leftarrow","leftarrow"],"horizon":5,"forced_choices":["rightarrow","rightarrow","leftarrow","leftarrow"],"right_color":"orange","left_color":"lightblue","left_mu":40,"right_mu":32,"left_numbers":[45,44,43,44,36],"right_numbers":[37,29,20,39,46],"points_earned":189,"trial_type":"horizons-task","trial_index":71,"time_elapsed":772101,"internal_node_id":"0.0-67.0"},{"response_times":[913.9800000120886,495.9349999844562,527.8849999886006,839.9799999897368,4344.130000012228],"keys_pressed":["leftarrow","leftarrow","rightarrow","leftarrow","leftarrow"],"horizon":5,"forced_choices":["leftarrow","leftarrow","rightarrow","leftarrow"],"right_color":"lightblue","left_color":"orange","left_mu":40,"right_mu":32,"left_numbers":[54,47,45,32,39],"right_numbers":[41,20,43,50,25],"points_earned":215,"trial_type":"horizons-task","trial_index":72,"time_elapsed":780726,"internal_node_id":"0.0-68.0"},{"response_times":[609.4449999800418,311.89500002074055,575.9949999919627,463.98000000044703,744.0549999882933,1367.949999985285,4680.159999988973,967.6850000105333,519.9900000006892,191.91500000306405],"keys_pressed":["leftarrow","leftarrow","rightarrow","leftarrow","rightarrow","leftarrow","rightarrow","leftarrow","rightarrow","rightarrow"],"horizon":10,"forced_choices":["leftarrow","leftarrow","rightarrow","leftarrow"],"right_color":"lightblue","left_color":"orange","left_mu":40,"right_mu":32,"left_numbers":[40,52,39,34,23,37,33,36,46,46],"right_numbers":[42,36,48,28,35,29,48,40,25,20],"points_earned":375,"trial_type":"horizons-task","trial_index":73,"time_elapsed":792661,"internal_node_id":"0.0-69.0"},{"response_times":[658.2249999919441,735.8100000128616,504.08499999321066,1191.9599999964703,583.9550000091549],"keys_pressed":["rightarrow","rightarrow","leftarrow","rightarrow","rightarrow"],"horizon":5,"forced_choices":["rightarrow","rightarrow","leftarrow","rightarrow"],"right_color":"orange","left_color":"lightblue","left_mu":60,"right_mu":52,"left_numbers":[50,43,52,58,70],"right_numbers":[58,52,59,60,47],"points_earned":269,"trial_type":"horizons-task","trial_index":74,"time_elapsed":797838,"internal_node_id":"0.0-70.0"},{"response_times":[689.4650000031106,375.88000000687316,648.140000004787,719.9649999965914,799.9399999971502,143.87499997974373,127.9050000011921,111.99000000488013,128.0900000128895,127.88000001455657],"keys_pressed":["leftarrow","rightarrow","rightarrow","leftarrow","rightarrow","rightarrow","rightarrow","rightarrow","rightarrow","rightarrow"],"horizon":10,"forced_choices":["leftarrow","rightarrow","rightarrow","leftarrow"],"right_color":"orange","left_color":"lightblue","left_mu":60,"right_mu":90,"left_numbers":[50,46,69,69,59,68,54,62,51,66],"right_numbers":[82,91,103,81,77,93,79,93,102,100],"points_earned":857,"trial_type":"horizons-task","trial_index":75,"time_elapsed":803214,"internal_node_id":"0.0-71.0"},{"response_times":[657.5749999901745,407.8649999864865,640.0299999804702,455.9799999988172,768.0749999999534,135.86000000941567,127.92499997885898,232.0600000093691,127.99000000813976,136.00500000757165],"keys_pressed":["rightarrow","leftarrow","leftarrow","rightarrow","rightarrow","rightarrow","rightarrow","rightarrow","rightarrow","rightarrow"],"horizon":10,"forced_choices":["rightarrow","leftarrow","leftarrow","rightarrow"],"right_color":"orange","left_color":"lightblue","left_mu":60,"right_mu":80,"left_numbers":[59,62,69,64,61,44,63,54,68,50],"right_numbers":[79,74,73,84,72,70,78,74,71,84],"points_earned":743,"trial_type":"horizons-task","trial_index":76,"time_elapsed":808406,"internal_node_id":"0.0-72.0"},{"response_times":[553.2649999950081,496.1650000186637,463.89499999349937,407.8999999910593,687.9250000056345,135.8699999982491,119.92000002646819,239.93000001064502,144.13499998045154,135.93499999842606],"keys_pressed":["rightarrow","rightarrow","leftarrow","leftarrow","rightarrow","rightarrow","rightarrow","rightarrow","rightarrow","rightarrow"],"horizon":10,"forced_choices":["rightarrow","rightarrow","leftarrow","leftarrow"],"right_color":"lightblue","left_color":"orange","left_mu":40,"right_mu":48,"left_numbers":[37,26,38,39,47,44,36,47,36,40],"right_numbers":[47,38,35,52,56,56,52,43,37,69],"points_earned":475,"trial_type":"horizons-task","trial_index":77,"time_elapsed":813294,"internal_node_id":"0.0-73.0"},{"response_times":[529.8400000028778,519.9500000162516,511.9200000190176,647.9849999886937,455.95499998307787,615.9249999909662,135.92500000959262,127.94499998562969,232.0000000181608,136.02000000537373],"keys_pressed":["leftarrow","rightarrow","rightarrow","rightarrow","leftarrow","rightarrow","rightarrow","rightarrow","rightarrow","rightarrow"],"horizon":10,"forced_choices":["leftarrow","rightarrow","rightarrow","rightarrow"],"right_color":"lightblue","left_color":"orange","left_mu":40,"right_mu":60,"left_numbers":[43,38,54,40,43,40,29,35,39,39],"right_numbers":[42,65,61,62,58,51,57,51,48,58],"points_earned":539,"trial_type":"horizons-task","trial_index":78,"time_elapsed":818710,"internal_node_id":"0.0-74.0"},{"response_times":[521.6499999805819,439.94999999995343,768.0950000067241,679.8649999836925,655.9950000082608,3119.925000006333,135.89000000501983,128.004999976838,135.92500000959262,119.9649999907706],"keys_pressed":["rightarrow","leftarrow","leftarrow","leftarrow","rightarrow","rightarrow","rightarrow","rightarrow","rightarrow","rightarrow"],"horizon":10,"forced_choices":["rightarrow","leftarrow","leftarrow","leftarrow"],"right_color":"orange","left_color":"lightblue","left_mu":60,"right_mu":68,"left_numbers":[64,48,61,56,55,38,60,55,47,58],"right_numbers":[69,61,83,83,68,67,66,77,69,60],"points_earned":641,"trial_type":"horizons-task","trial_index":79,"time_elapsed":826917,"internal_node_id":"0.0-75.0"},{"response_times":[561.9149999984074,439.8949999886099,983.9499999943655,575.9299999917857,1040.1249999995343,687.7650000096764,128.02999999257736,136.0350000031758,111.90000001806766,111.95500000030734],"keys_pressed":["rightarrow","leftarrow","leftarrow","leftarrow","rightarrow","rightarrow","rightarrow","rightarrow","rightarrow","rightarrow"],"horizon":10,"forced_choices":["rightarrow","leftarrow","leftarrow","leftarrow"],"right_color":"orange","left_color":"lightblue","left_mu":60,"right_mu":68,"left_numbers":[66,65,57,47,64,64,49,61,65,58],"right_numbers":[71,61,68,54,69,68,59,52,65,69],"points_earned":622,"trial_type":"horizons-task","trial_index":80,"time_elapsed":833198,"internal_node_id":"0.0-76.0"},{"response_times":[1385.29499998549,448.02499999059364,879.9850000068545,743.9000000013039,504.00500002433546],"keys_pressed":["leftarrow","rightarrow","rightarrow","leftarrow","rightarrow"],"horizon":5,"forced_choices":["leftarrow","rightarrow","rightarrow","leftarrow"],"right_color":"lightblue","left_color":"orange","left_mu":60,"right_mu":80,"left_numbers":[50,50,72,42,64],"right_numbers":[80,78,84,68,77],"points_earned":331,"trial_type":"horizons-task","trial_index":81,"time_elapsed":838661,"internal_node_id":"0.0-77.0"},{"response_times":[698.050000006333,359.9300000059884,567.9150000214577,480.1700000243727,1623.7499999988358,1024.0200000116602,2039.954999985639,511.9450000056531,424.08500000601634,127.779999980703],"keys_pressed":["rightarrow","leftarrow","leftarrow","rightarrow","leftarrow","rightarrow","rightarrow","leftarrow","leftarrow","leftarrow"],"horizon":10,"forced_choices":["rightarrow","leftarrow","leftarrow","rightarrow"],"right_color":"lightblue","left_color":"orange","left_mu":40,"right_mu":28,"left_numbers":[36,35,42,46,30,36,33,35,41,37],"right_numbers":[26,38,31,39,31,31,23,31,34,20],"points_earned":339,"trial_type":"horizons-task","trial_index":82,"time_elapsed":848021,"internal_node_id":"0.0-78.0"},{"response_times":[729.7899999830406,631.8900000187568,456.02499999222346,575.9850000031292,4400.229999999283,1087.664999999106,1215.924999996787,560.0300000223797,543.9499999920372,167.92000000714324],"keys_pressed":["rightarrow","rightarrow","leftarrow","leftarrow","rightarrow","leftarrow","leftarrow","leftarrow","leftarrow","leftarrow"],"horizon":10,"forced_choices":["rightarrow","rightarrow","leftarrow","leftarrow"],"right_color":"orange","left_color":"lightblue","left_mu":60,"right_mu":30,"left_numbers":[51,51,52,59,54,59,62,52,54,56],"right_numbers":[35,16,28,46,34,35,22,20,34,50],"points_earned":479,"trial_type":"horizons-task","trial_index":83,"time_elapsed":859893,"internal_node_id":"0.0-79.0"},{"response_times":[657.9349999956321,559.8600000084843,480.0000000104774,544.0299999900162,496.5350000129547,167.28499997407198,111.96999999810942,135.96500002313405,111.83999999775551,112.12999999406748],"keys_pressed":["rightarrow","rightarrow","leftarrow","leftarrow","rightarrow","rightarrow","rightarrow","rightarrow","rightarrow","rightarrow"],"horizon":10,"forced_choices":["rightarrow","rightarrow","leftarrow","leftarrow"],"right_color":"orange","left_color":"lightblue","left_mu":40,"right_mu":44,"left_numbers":[39,36,30,31,35,62,49,43,42,36],"right_numbers":[45,44,48,50,41,48,48,44,29,49],"points_earned":409,"trial_type":"horizons-task","trial_index":84,"time_elapsed":864773,"internal_node_id":"0.0-80.0"},{"response_times":[513.9749999798369,447.6999999897089,392.07999999052845,391.9799999857787,736.0200000111945,663.8999999850057,135.9099999826867,119.98499999754131,119.93499999516644,119.97999998857267],"keys_pressed":["rightarrow","rightarrow","leftarrow","leftarrow","rightarrow","rightarrow","rightarrow","rightarrow","rightarrow","rightarrow"],"horizon":10,"forced_choices":["rightarrow","rightarrow","leftarrow","leftarrow"],"right_color":"orange","left_color":"lightblue","left_mu":60,"right_mu":68,"left_numbers":[67,48,63,53,54,72,61,57,50,66],"right_numbers":[69,66,70,60,73,67,71,71,75,65],"points_earned":673,"trial_type":"horizons-task","trial_index":85,"time_elapsed":869918,"internal_node_id":"0.0-81.0"},{"response_times":[584.9699999962468,351.8800000019837,783.9350000140257,368.1499999947846,391.959999979008,383.8099999993574,184.06500000855885,135.89500001398847,128.04499999037944,135.93499999842606],"keys_pressed":["rightarrow","rightarrow","rightarrow","leftarrow","leftarrow","leftarrow","leftarrow","leftarrow","leftarrow","leftarrow"],"horizon":10,"forced_choices":["rightarrow","rightarrow","rightarrow","leftarrow"],"right_color":"orange","left_color":"lightblue","left_mu":40,"right_mu":44,"left_numbers":[38,42,34,49,49,32,38,41,45,31],"right_numbers":[51,31,31,54,41,42,52,37,31,41],"points_earned":398,"trial_type":"horizons-task","trial_index":86,"time_elapsed":874869,"internal_node_id":"0.0-82.0"},{"response_times":[658.0250000115484,303.7800000165589,535.9750000061467,712.020000006305,255.91499998699874],"keys_pressed":["rightarrow","rightarrow","leftarrow","rightarrow","leftarrow"],"horizon":5,"forced_choices":["rightarrow","rightarrow","leftarrow","rightarrow"],"right_color":"orange","left_color":"lightblue","left_mu":40,"right_mu":20,"left_numbers":[32,16,43,40,47],"right_numbers":[21,16,21,21,29],"points_earned":148,"trial_type":"horizons-task","trial_index":87,"time_elapsed":878838,"internal_node_id":"0.0-83.0"},{"response_times":[705.3000000014435,375.97000002278946,455.9599999920465,1216.0649999859743,263.8250000018161],"keys_pressed":["rightarrow","leftarrow","rightarrow","rightarrow","rightarrow"],"horizon":5,"forced_choices":["rightarrow","leftarrow","rightarrow","rightarrow"],"right_color":"orange","left_color":"lightblue","left_mu":60,"right_mu":80,"left_numbers":[60,71,56,55,65],"right_numbers":[75,88,97,84,86],"points_earned":413,"trial_type":"horizons-task","trial_index":88,"time_elapsed":883358,"internal_node_id":"0.0-84.0"},{"response_times":[488.9300000213552,495.9800000069663,439.8849999997765,639.965000009397,1064.249999995809,1063.7299999943934,871.9699999783188,640.0450000073761,135.91000001179054,135.88500002515502],"keys_pressed":["rightarrow","rightarrow","leftarrow","rightarrow","leftarrow","rightarrow","leftarrow","leftarrow","leftarrow","leftarrow"],"horizon":10,"forced_choices":["rightarrow","rightarrow","leftarrow","rightarrow"],"right_color":"orange","left_color":"lightblue","left_mu":60,"right_mu":48,"left_numbers":[79,57,54,62,43,56,72,55,59,66],"right_numbers":[53,52,52,53,59,48,41,42,51,65],"points_earned":555,"trial_type":"horizons-task","trial_index":89,"time_elapsed":890837,"internal_node_id":"0.0-85.0"},{"rt":19049.709999992047,"responses":{"age":"31","gender-categorical":"Male","gender-free-response":"","ethnicity":"Not Hispanic or Latino","race":["White"],"language":"Yes","fluency":"Very well"},"survey":"demographics","trial_type":"survey-demo","trial_index":90,"time_elapsed":909890,"internal_node_id":"0.0-86.0"},{"rt":278208.50999999675,"responses":{"difficulty":"4","fun":"4","clarity":"5","strategy":"only to try and make a decision as quick as possible to avoid choosing weak blocks.","feedback":"not really"},"survey":"debrief","trial_type":"survey-debrief","trial_index":91,"time_elapsed":1188100,"internal_node_id":"0.0-87.0","interactions":"[]"}]