[{"view_history":"[{\"page_index\":0,\"viewing_time\":2398.9550000987947}]","rt":2399.6649999171495,"trial_type":"instructions","trial_index":0,"time_elapsed":2410,"internal_node_id":"0.0-0.0"},{"item_order":[8,3,9,4,0,5,6,7,12,2,1,11,10],"responses":{"Q09":"3","Q04":"2","Q10":"2","Q05":"2","Q01":"3","Q06":"2","Q07":"2","Q08":"3","Q13":"4","Q03":"2","Q02":"2","Q12":"2","Q11":"3"},"radio_events":[2998.9100000821054,8592.329999897629,10602.109999861568,12658.735000062734,14510.795000009239,18537.45499998331,20063.249999657273,24688.22499969974,26628.099999856204,29282.044999767095,33775.714999996126,34874.73999988288,38076.3049996458],"key_events":[],"mouse_events":[0.1300000585615635,2998.9100000821054,5984.209999907762,8107.185000088066,8592.329999897629,10602.109999861568,12658.735000062734,14510.795000009239,17450.679999776185,18537.45499998331,20063.249999657273,22684.880000073463,24688.22499969974,26628.099999856204,29282.044999767095,31888.139999937266,33775.714999996126,34874.73999988288,38076.3049996458,40161.954999901354],"rt":40164.10999977961,"survey":"ius12","trial_type":"survey-template","trial_index":1,"time_elapsed":42578,"internal_node_id":"0.0-1.0"},{"item_order":[14,11,16,7,15,13,9,12,4,5,3,6,1,8,10,0,2],"responses":{"Q15":"2","Q12":"3","Q17":"0","Q08":"3","Q16":"3","Q14":"3","Q10":"4","Q13":"3","Q05":"3","Q06":"3","Q04":"2","Q07":"2","Q02":"2","Q09":"2","Q11":"3","Q01":"3","Q03":"4"},"radio_events":[3184.415000025183,9070.769999641925,12040.229999925941,17518.574999645352,19777.454999741167,21979.479999747127,24439.72499994561,28684.744999743998,31346.434999722987,31934.21999970451,34174.299999605864,35684.11499960348,37288.86999981478,38965.40499990806,40808.19500004873,43596.954999957234,47400.40999976918,51052.559999749064],"key_events":[],"mouse_events":[3184.415000025183,5518.685000017285,9070.769999641925,12040.229999925941,17518.574999645352,19777.454999741167,21979.479999747127,24439.72499994561,26634.774999693036,28684.744999743998,31346.434999722987,31934.21999970451,34174.299999605864,35684.11499960348,37288.86999981478,38965.40499990806,40808.19500004873,43596.954999957234,46053.024999797344,47400.40999976918,51052.559999749064,52568.08499991894],"rt":52571.92999962717,"survey":"pswq","trial_type":"survey-template","trial_index":2,"time_elapsed":95156,"internal_node_id":"0.0-2.0"},{"view_history":"[{\"page_index\":0,\"viewing_time\":16049.740000162274},{\"page_index\":1,\"viewing_time\":4855.56499985978},{\"page_index\":2,\"viewing_time\":7169.0050000324845},{\"page_index\":3,\"viewing_time\":6682.574999984354},{\"page_index\":4,\"viewing_time\":5729.859999846667},{\"page_index\":5,\"viewing_time\":4560.850000008941},{\"page_index\":6,\"viewing_time\":6302.250000182539},{\"page_index\":7,\"viewing_time\":11012.965000234544},{\"page_index\":8,\"viewing_time\":11315.394999925047},{\"page_index\":9,\"viewing_time\":5079.004999715835}]","rt":78758.41500004753,"trial_type":"instructions","trial_index":3,"time_elapsed":173916,"internal_node_id":"0.0-3.0-0.0"},{"response_times":[1595.9550002589822,1299.7200000099838,1301.7150000669062,1316.914999857545,4253.449999727309],"keys_pressed":["rightarrow","leftarrow","rightarrow","rightarrow","leftarrow"],"horizon":5,"forced_choices":["rightarrow","leftarrow","rightarrow","rightarrow"],"right_color":"lightblue","left_color":"orange","left_mu":40,"right_mu":20,"left_numbers":[39,41,49,38,33],"right_numbers":[26,31,24,31,0],"points_earned":155,"trial_type":"horizons-task","trial_index":4,"time_elapsed":185196,"internal_node_id":"0.0-3.0-1.0"},{"response_times":[1639.485000167042,1112.734999973327,949.8899998143315,950.4200001247227,2018.5000002384186,1558.9250000193715,2054.75000012666,2105.8149999007583,605.1000002771616,669.7250003926456],"keys_pressed":["leftarrow","leftarrow","rightarrow","rightarrow","rightarrow","rightarrow","rightarrow","leftarrow","rightarrow","rightarrow"],"horizon":10,"forced_choices":["leftarrow","leftarrow","rightarrow","rightarrow"],"right_color":"orange","left_color":"lightblue","left_mu":60,"right_mu":70,"left_numbers":[50,42,57,64,46,60,76,53,63,77],"right_numbers":[57,78,75,77,77,61,70,69,79,64],"points_earned":648,"trial_type":"horizons-task","trial_index":5,"time_elapsed":200369,"internal_node_id":"0.0-3.0-2.0"},{"view_history":"[{\"page_index\":0,\"viewing_time\":3721.214999910444},{\"page_index\":1,\"viewing_time\":2570.0300000607967},{\"page_index\":2,\"viewing_time\":17053.580000065267},{\"page_index\":3,\"viewing_time\":3049.6350000612438}]","rt":26394.975000061095,"trial_type":"instructions","trial_index":6,"time_elapsed":226765,"internal_node_id":"0.0-3.0-3.0"},{"responses":["true","false","false","true"],"num_errors":0,"rt":10859.644999727607,"trial_type":"horizons-comprehension","trial_index":7,"time_elapsed":237629,"internal_node_id":"0.0-3.0-4.0"},{"view_history":"[{\"page_index\":0,\"viewing_time\":1890.4049997217953},{\"page_index\":1,\"viewing_time\":9346.255000215024}]","rt":11237.160000018775,"trial_type":"instructions","trial_index":8,"time_elapsed":248872,"internal_node_id":"0.0-4.0"},{"response_times":[1273.9900001324713,1041.0400000400841,971.8200000934303,1103.3349996432662,1692.6400000229478],"keys_pressed":["leftarrow","rightarrow","rightarrow","leftarrow","leftarrow"],"horizon":5,"forced_choices":["leftarrow","rightarrow","rightarrow","leftarrow"],"right_color":"lightblue","left_color":"orange","left_mu":40,"right_mu":44,"left_numbers":[50,44,48,46,40],"right_numbers":[42,57,29,45,47],"points_earned":222,"trial_type":"horizons-task","trial_index":9,"time_elapsed":256470,"internal_node_id":"0.0-5.0"},{"response_times":[977.8150003403425,797.1449997276068,1229.6649999916553,851.0549999773502,1207.8499998897314,1484.1749998740852,1711.9450001046062,1969.6399997919798,640.2099998667836,1144.515000283718],"keys_pressed":["rightarrow","leftarrow","rightarrow","rightarrow","leftarrow","leftarrow","leftarrow","leftarrow","leftarrow","leftarrow"],"horizon":10,"forced_choices":["rightarrow","leftarrow","rightarrow","rightarrow"],"right_color":"lightblue","left_color":"orange","left_mu":60,"right_mu":30,"left_numbers":[72,52,46,57,60,47,77,70,44,61],"right_numbers":[13,31,35,39,30,11,29,39,53,30],"points_earned":498,"trial_type":"horizons-task","trial_index":10,"time_elapsed":269990,"internal_node_id":"0.0-6.0"},{"response_times":[759.0800002217293,779.0250000543892,770.7200003787875,761.0450000502169,811.1600000411272],"keys_pressed":["leftarrow","leftarrow","leftarrow","rightarrow","rightarrow"],"horizon":5,"forced_choices":["leftarrow","leftarrow","leftarrow","rightarrow"],"right_color":"orange","left_color":"lightblue","left_mu":60,"right_mu":72,"left_numbers":[40,63,55,53,56],"right_numbers":[66,62,79,69,79],"points_earned":306,"trial_type":"horizons-task","trial_index":11,"time_elapsed":275377,"internal_node_id":"0.0-7.0"},{"response_times":[612.3950001783669,665.5399999581277,1005.8599999174476,673.7949997186661,712.4200002290308],"keys_pressed":["leftarrow","rightarrow","leftarrow","rightarrow","rightarrow"],"horizon":5,"forced_choices":["leftarrow","rightarrow","leftarrow","rightarrow"],"right_color":"orange","left_color":"lightblue","left_mu":60,"right_mu":80,"left_numbers":[71,57,56,45,61],"right_numbers":[78,92,80,77,87],"points_earned":383,"trial_type":"horizons-task","trial_index":12,"time_elapsed":280568,"internal_node_id":"0.0-8.0"},{"response_times":[922.9850000701845,765.9849999472499,708.8600001297891,1067.0300000347197,2280.130000319332,941.554999910295,3690.5549997463822,1415.2650004252791,732.9750000499189,539.7549998015165],"keys_pressed":["rightarrow","rightarrow","leftarrow","leftarrow","leftarrow","rightarrow","leftarrow","rightarrow","leftarrow","leftarrow"],"horizon":10,"forced_choices":["rightarrow","rightarrow","leftarrow","leftarrow"],"right_color":"lightblue","left_color":"orange","left_mu":60,"right_mu":52,"left_numbers":[59,53,49,56,65,44,61,62,62,76],"right_numbers":[51,50,48,56,49,57,67,36,57,39],"points_earned":563,"trial_type":"horizons-task","trial_index":13,"time_elapsed":295137,"internal_node_id":"0.0-9.0"},{"response_times":[652.2949999198318,675.0850002281368,514.7299999371171,610.7149999588728,2018.0449998006225,714.8599997162819,3042.024999856949,437.54499964416027,698.1399999931455,2072.215000167489],"keys_pressed":["leftarrow","leftarrow","rightarrow","leftarrow","rightarrow","leftarrow","leftarrow","leftarrow","leftarrow","leftarrow"],"horizon":10,"forced_choices":["leftarrow","leftarrow","rightarrow","leftarrow"],"right_color":"lightblue","left_color":"orange","left_mu":40,"right_mu":32,"left_numbers":[48,33,55,45,40,53,37,44,32,47],"right_numbers":[31,39,24,40,30,25,35,39,44,39],"points_earned":393,"trial_type":"horizons-task","trial_index":14,"time_elapsed":308075,"internal_node_id":"0.0-10.0"},{"response_times":[572.8649999946356,633.9549999684095,507.00500002130866,632.9149999655783,1914.1549998894334,776.7500001937151,1127.820000052452,960.190000012517,578.5199999809265,538.8250001706183],"keys_pressed":["leftarrow","leftarrow","rightarrow","rightarrow","leftarrow","rightarrow","rightarrow","rightarrow","rightarrow","rightarrow"],"horizon":10,"forced_choices":["leftarrow","leftarrow","rightarrow","rightarrow"],"right_color":"orange","left_color":"lightblue","left_mu":40,"right_mu":44,"left_numbers":[39,32,47,37,44,25,38,49,44,33],"right_numbers":[30,52,38,50,50,52,43,52,45,47],"points_earned":442,"trial_type":"horizons-task","trial_index":15,"time_elapsed":317822,"internal_node_id":"0.0-11.0"},{"response_times":[771.3200002908707,596.6400001198053,763.8849997892976,540.9200000576675,861.9650001637638],"keys_pressed":["leftarrow","leftarrow","leftarrow","rightarrow","leftarrow"],"horizon":5,"forced_choices":["leftarrow","leftarrow","leftarrow","rightarrow"],"right_color":"orange","left_color":"lightblue","left_mu":40,"right_mu":36,"left_numbers":[40,30,32,20,48],"right_numbers":[31,37,41,21,35],"points_earned":171,"trial_type":"horizons-task","trial_index":16,"time_elapsed":322864,"internal_node_id":"0.0-12.0"},{"response_times":[649.9899998307228,1840.9850001335144,503.8049998693168,1350.9400002658367,2430.1949995569885],"keys_pressed":["rightarrow","rightarrow","leftarrow","rightarrow","leftarrow"],"horizon":5,"forced_choices":["rightarrow","rightarrow","leftarrow","rightarrow"],"right_color":"lightblue","left_color":"orange","left_mu":60,"right_mu":64,"left_numbers":[57,51,67,67,58],"right_numbers":[74,70,64,61,68],"points_earned":330,"trial_type":"horizons-task","trial_index":17,"time_elapsed":331148,"internal_node_id":"0.0-13.0"},{"response_times":[599.1699998266995,1025.8100000210106,962.0000002905726,733.9300001040101,1680.9550002217293],"keys_pressed":["rightarrow","leftarrow","leftarrow","leftarrow","leftarrow"],"horizon":5,"forced_choices":["rightarrow","leftarrow","leftarrow","leftarrow"],"right_color":"lightblue","left_color":"orange","left_mu":40,"right_mu":10,"left_numbers":[48,41,24,47,44],"right_numbers":[24,22,2,1,5],"points_earned":180,"trial_type":"horizons-task","trial_index":18,"time_elapsed":337658,"internal_node_id":"0.0-14.0"},{"response_times":[1031.5199997276068,709.8449999466538,615.2249998413026,830.6900002062321,3048.010000027716],"keys_pressed":["rightarrow","rightarrow","leftarrow","leftarrow","leftarrow"],"horizon":5,"forced_choices":["rightarrow","rightarrow","leftarrow","leftarrow"],"right_color":"orange","left_color":"lightblue","left_mu":60,"right_mu":64,"left_numbers":[47,57,66,57,39],"right_numbers":[56,65,52,76,54],"points_earned":283,"trial_type":"horizons-task","trial_index":19,"time_elapsed":345396,"internal_node_id":"0.0-15.0"},{"response_times":[753.084999974817,734.9749999120831,1283.9600001461804,523.8549998030066,529.039999935776,1040.2199998497963,400.61999997124076,1191.8150000274181,683.1100000999868,496.68499967083335],"keys_pressed":["rightarrow","leftarrow","leftarrow","leftarrow","rightarrow","leftarrow","leftarrow","leftarrow","leftarrow","leftarrow"],"horizon":10,"forced_choices":["rightarrow","leftarrow","leftarrow","leftarrow"],"right_color":"lightblue","left_color":"orange","left_mu":40,"right_mu":20,"left_numbers":[40,39,33,34,61,40,41,23,39,42],"right_numbers":[8,30,36,15,8,18,29,17,20,21],"points_earned":307,"trial_type":"horizons-task","trial_index":20,"time_elapsed":354539,"internal_node_id":"0.0-16.0"},{"response_times":[520.5700001679361,1678.8149997591972,868.904999922961,1707.9750001430511,712.8599998541176],"keys_pressed":["leftarrow","rightarrow","leftarrow","leftarrow","rightarrow"],"horizon":5,"forced_choices":["leftarrow","rightarrow","leftarrow","leftarrow"],"right_color":"orange","left_color":"lightblue","left_mu":60,"right_mu":80,"left_numbers":[67,65,56,53,58],"right_numbers":[72,78,72,81,81],"points_earned":335,"trial_type":"horizons-task","trial_index":21,"time_elapsed":361536,"internal_node_id":"0.0-17.0"},{"response_times":[553.4249995835125,519.8500002734363,1115.9050003625453,659.9250002764165,705.0149999558926],"keys_pressed":["rightarrow","leftarrow","leftarrow","leftarrow","rightarrow"],"horizon":5,"forced_choices":["rightarrow","leftarrow","leftarrow","leftarrow"],"right_color":"orange","left_color":"lightblue","left_mu":40,"right_mu":70,"left_numbers":[45,39,23,43,59],"right_numbers":[73,72,52,53,78],"points_earned":256,"trial_type":"horizons-task","trial_index":22,"time_elapsed":366593,"internal_node_id":"0.0-18.0"},{"response_times":[759.5250001177192,811.9000000879169,1411.835000384599,689.8650000803173,1674.9950000084937,2194.1650002263486,1056.499999947846,3326.9450003281236,469.84999999403954,492.80499992892146],"keys_pressed":["rightarrow","rightarrow","leftarrow","rightarrow","leftarrow","rightarrow","leftarrow","leftarrow","leftarrow","leftarrow"],"horizon":10,"forced_choices":["rightarrow","rightarrow","leftarrow","rightarrow"],"right_color":"orange","left_color":"lightblue","left_mu":40,"right_mu":36,"left_numbers":[35,45,25,36,48,42,39,46,33,42],"right_numbers":[35,19,30,42,38,38,35,31,27,44],"points_earned":367,"trial_type":"horizons-task","trial_index":23,"time_elapsed":380987,"internal_node_id":"0.0-19.0"},{"response_times":[581.74500009045,564.3100002780557,1093.5100000351667,595.9800002165139,1442.1799997799098,886.6050001233816,470.1249999925494,1533.7449996732175,673.8449996337295,571.7449998483062],"keys_pressed":["leftarrow","leftarrow","leftarrow","rightarrow","rightarrow","leftarrow","leftarrow","leftarrow","leftarrow","leftarrow"],"horizon":10,"forced_choices":["leftarrow","leftarrow","leftarrow","rightarrow"],"right_color":"lightblue","left_color":"orange","left_mu":40,"right_mu":20,"left_numbers":[40,40,38,46,37,28,30,43,47,27],"right_numbers":[21,18,22,26,2,11,17,20,26,20],"points_earned":321,"trial_type":"horizons-task","trial_index":24,"time_elapsed":390904,"internal_node_id":"0.0-20.0"},{"response_times":[428.1950001604855,812.9849997349083,595.9850000217557,788.7200000695884,1266.8150002136827,1284.4699998386204,3905.5099999532104,1117.8699997253716,4610.664999578148,441.8100002221763],"keys_pressed":["leftarrow","rightarrow","rightarrow","rightarrow","leftarrow","leftarrow","leftarrow","rightarrow","leftarrow","leftarrow"],"horizon":10,"forced_choices":["leftarrow","rightarrow","rightarrow","rightarrow"],"right_color":"orange","left_color":"lightblue","left_mu":60,"right_mu":68,"left_numbers":[50,60,59,52,75,59,62,59,64,54],"right_numbers":[69,69,42,64,81,60,76,68,66,58],"points_earned":607,"trial_type":"horizons-task","trial_index":25,"time_elapsed":407665,"internal_node_id":"0.0-21.0"},{"response_times":[576.7549998126924,865.6199998222291,590.2550001628697,650.9150001220405,1155.9400004334748,1435.9750002622604,1731.830000411719,817.9650004021823,678.1649999320507,512.5950002111495],"keys_pressed":["rightarrow","rightarrow","leftarrow","rightarrow","leftarrow","leftarrow","leftarrow","rightarrow","leftarrow","leftarrow"],"horizon":10,"forced_choices":["rightarrow","rightarrow","leftarrow","rightarrow"],"right_color":"orange","left_color":"lightblue","left_mu":40,"right_mu":20,"left_numbers":[50,37,47,25,35,40,34,45,46,41],"right_numbers":[20,30,11,17,9,5,9,23,10,9],"points_earned":333,"trial_type":"horizons-task","trial_index":26,"time_elapsed":418187,"internal_node_id":"0.0-22.0"},{"response_times":[976.4749999158084,512.709999922663,633.9549999684095,741.80500023067,768.1550001725554,2448.9299999549985,673.7999999895692,652.8900000266731,471.0349999368191,467.25500002503395],"keys_pressed":["rightarrow","leftarrow","rightarrow","rightarrow","leftarrow","leftarrow","leftarrow","leftarrow","leftarrow","leftarrow"],"horizon":10,"forced_choices":["rightarrow","leftarrow","rightarrow","rightarrow"],"right_color":"orange","left_color":"lightblue","left_mu":40,"right_mu":44,"left_numbers":[24,46,50,40,48,47,36,36,34,51],"right_numbers":[35,38,40,40,56,40,31,40,49,38],"points_earned":413,"trial_type":"horizons-task","trial_index":27,"time_elapsed":428038,"internal_node_id":"0.0-23.0"},{"response_times":[623.8699997775257,934.1049999929965,851.8600002862513,503.06000001728535,2547.8749996982515],"keys_pressed":["rightarrow","leftarrow","leftarrow","rightarrow","rightarrow"],"horizon":5,"forced_choices":["rightarrow","leftarrow","leftarrow","rightarrow"],"right_color":"orange","left_color":"lightblue","left_mu":60,"right_mu":72,"left_numbers":[63,56,66,52,73],"right_numbers":[65,77,70,66,62],"points_earned":315,"trial_type":"horizons-task","trial_index":28,"time_elapsed":435003,"internal_node_id":"0.0-24.0"},{"response_times":[681.0099999420345,572.9400003328919,592.960000038147,1789.820000063628,5105.750000104308,625.4249997437,637.8649999387562,565.0099995546043,474.930000025779,588.6600003577769],"keys_pressed":["rightarrow","leftarrow","rightarrow","leftarrow","leftarrow","rightarrow","leftarrow","leftarrow","leftarrow","leftarrow"],"horizon":10,"forced_choices":["rightarrow","leftarrow","rightarrow","leftarrow"],"right_color":"lightblue","left_color":"orange","left_mu":40,"right_mu":32,"left_numbers":[43,21,36,40,50,43,38,29,38,44],"right_numbers":[24,33,33,29,28,30,27,54,46,34],"points_earned":347,"trial_type":"horizons-task","trial_index":29,"time_elapsed":448145,"internal_node_id":"0.0-25.0"},{"response_times":[817.0750001445413,798.7500000745058,584.8600002937019,1308.609999716282,1138.0449999123812,848.0450003407896,653.9199999533594,418.70000027120113,426.0049997828901,1393.1449996307492],"keys_pressed":["rightarrow","rightarrow","leftarrow","leftarrow","rightarrow","rightarrow","rightarrow","rightarrow","rightarrow","rightarrow"],"horizon":10,"forced_choices":["rightarrow","rightarrow","leftarrow","leftarrow"],"right_color":"lightblue","left_color":"orange","left_mu":40,"right_mu":60,"left_numbers":[42,32,45,33,35,37,40,36,31,33],"right_numbers":[64,56,59,57,52,46,47,63,58,61],"points_earned":525,"trial_type":"horizons-task","trial_index":30,"time_elapsed":458039,"internal_node_id":"0.0-26.0"},{"response_times":[496.07000034302473,1547.6550003513694,727.9199999757111,811.8750001303852,467.9999998770654],"keys_pressed":["leftarrow","rightarrow","rightarrow","rightarrow","leftarrow"],"horizon":5,"forced_choices":["leftarrow","rightarrow","rightarrow","rightarrow"],"right_color":"orange","left_color":"lightblue","left_mu":60,"right_mu":40,"left_numbers":[63,72,67,53,59],"right_numbers":[34,37,44,40,50],"points_earned":243,"trial_type":"horizons-task","trial_index":31,"time_elapsed":463598,"internal_node_id":"0.0-27.0"},{"response_times":[498.2750001363456,649.8499996960163,636.9400001130998,995.7300000824034,519.1349997185171],"keys_pressed":["leftarrow","rightarrow","rightarrow","leftarrow","rightarrow"],"horizon":5,"forced_choices":["leftarrow","rightarrow","rightarrow","leftarrow"],"right_color":"lightblue","left_color":"orange","left_mu":60,"right_mu":80,"left_numbers":[64,60,83,58,57],"right_numbers":[82,82,80,82,99],"points_earned":383,"trial_type":"horizons-task","trial_index":32,"time_elapsed":468406,"internal_node_id":"0.0-28.0"},{"response_times":[564.7200001403689,640.6049998477101,707.2800002060831,659.8600000143051,1416.9050003401935],"keys_pressed":["leftarrow","leftarrow","rightarrow","rightarrow","leftarrow"],"horizon":5,"forced_choices":["leftarrow","leftarrow","rightarrow","rightarrow"],"right_color":"orange","left_color":"lightblue","left_mu":60,"right_mu":56,"left_numbers":[76,53,56,49,64],"right_numbers":[62,56,44,54,53],"points_earned":291,"trial_type":"horizons-task","trial_index":33,"time_elapsed":473899,"internal_node_id":"0.0-29.0"},{"response_times":[506.0700001195073,671.6849999502301,552.095000166446,682.9650001600385,1436.974999960512,617.8150000050664,487.96500032767653,368.91999980434775,559.1599997133017,460.90999990701675],"keys_pressed":["leftarrow","leftarrow","rightarrow","rightarrow","rightarrow","leftarrow","rightarrow","rightarrow","rightarrow","rightarrow"],"horizon":10,"forced_choices":["leftarrow","leftarrow","rightarrow","rightarrow"],"right_color":"lightblue","left_color":"orange","left_mu":40,"right_mu":48,"left_numbers":[37,35,43,36,36,36,51,49,39,41],"right_numbers":[41,58,56,49,47,60,39,52,48,57],"points_earned":456,"trial_type":"horizons-task","trial_index":34,"time_elapsed":481750,"internal_node_id":"0.0-30.0"},{"response_times":[718.2650002650917,531.9199999794364,503.7449998781085,685.1300001144409,1871.8900000676513,447.930000256747,428.8949999026954,434.8800000734627,420.8749998360872,431.5700000151992],"keys_pressed":["leftarrow","leftarrow","rightarrow","rightarrow","leftarrow","leftarrow","leftarrow","leftarrow","leftarrow","leftarrow"],"horizon":10,"forced_choices":["leftarrow","leftarrow","rightarrow","rightarrow"],"right_color":"lightblue","left_color":"orange","left_mu":60,"right_mu":40,"left_numbers":[54,50,58,69,56,41,58,58,65,59],"right_numbers":[33,24,42,39,35,39,36,43,46,39],"points_earned":522,"trial_type":"horizons-task","trial_index":35,"time_elapsed":489730,"internal_node_id":"0.0-31.0"},{"response_times":[755.2499999292195,511.05500012636185,840.8800000324845,686.1450001597404,528.7199998274446],"keys_pressed":["rightarrow","rightarrow","leftarrow","rightarrow","leftarrow"],"horizon":5,"forced_choices":["rightarrow","rightarrow","leftarrow","rightarrow"],"right_color":"orange","left_color":"lightblue","left_mu":60,"right_mu":52,"left_numbers":[58,71,71,63,59],"right_numbers":[49,46,49,38,60],"points_earned":263,"trial_type":"horizons-task","trial_index":36,"time_elapsed":494555,"internal_node_id":"0.0-32.0"},{"response_times":[463.2199998013675,577.8500000014901,571.0600004531443,1151.770000346005,893.8649999909103],"keys_pressed":["leftarrow","rightarrow","leftarrow","rightarrow","leftarrow"],"horizon":5,"forced_choices":["leftarrow","rightarrow","leftarrow","rightarrow"],"right_color":"orange","left_color":"lightblue","left_mu":60,"right_mu":52,"left_numbers":[59,42,65,53,62],"right_numbers":[40,56,39,43,47],"points_earned":285,"trial_type":"horizons-task","trial_index":37,"time_elapsed":499718,"internal_node_id":"0.0-33.0"},{"response_times":[452.40999991074204,469.6399997919798,563.2099998183548,515.0399999693036,858.9449999853969,876.6600000672042,577.8850000351667,503.0550002120435,390.92000015079975,381.86000008136034],"keys_pressed":["leftarrow","leftarrow","rightarrow","rightarrow","leftarrow","rightarrow","leftarrow","leftarrow","leftarrow","leftarrow"],"horizon":10,"forced_choices":["leftarrow","leftarrow","rightarrow","rightarrow"],"right_color":"orange","left_color":"lightblue","left_mu":60,"right_mu":56,"left_numbers":[55,62,60,51,57,49,66,58,59,50],"right_numbers":[60,47,53,48,66,52,49,67,49,55],"points_earned":560,"trial_type":"horizons-task","trial_index":38,"time_elapsed":506813,"internal_node_id":"0.0-34.0"},{"response_times":[1030.4350000806153,517.6850003190339,1548.9699998870492,1240.7900001853704,1934.4450002536178],"keys_pressed":["rightarrow","leftarrow","leftarrow","leftarrow","leftarrow"],"horizon":5,"forced_choices":["rightarrow","leftarrow","leftarrow","leftarrow"],"right_color":"orange","left_color":"lightblue","left_mu":60,"right_mu":48,"left_numbers":[79,64,61,65,53],"right_numbers":[46,59,58,51,47],"points_earned":289,"trial_type":"horizons-task","trial_index":39,"time_elapsed":514592,"internal_node_id":"0.0-35.0"},{"response_times":[1022.3100003786385,911.6800003685057,750.1400001347065,1247.9349998757243,2641.085000243038,1548.7850001081824,466.00000001490116,869.8599999770522,4072.8900004178286,1873.8649999722838],"keys_pressed":["rightarrow","leftarrow","rightarrow","rightarrow","leftarrow","leftarrow","rightarrow","leftarrow","rightarrow","leftarrow"],"horizon":10,"forced_choices":["rightarrow","leftarrow","rightarrow","rightarrow"],"right_color":"orange","left_color":"lightblue","left_mu":40,"right_mu":36,"left_numbers":[29,41,37,35,36,38,30,36,33,47],"right_numbers":[38,24,47,27,36,32,30,50,41,39],"points_earned":381,"trial_type":"horizons-task","trial_index":40,"time_elapsed":531505,"internal_node_id":"0.0-36.0"},{"response_times":[578.1399998813868,518.6749999411404,819.104999769479,648.7300000153482,1631.9200000725687],"keys_pressed":["leftarrow","rightarrow","leftarrow","leftarrow","rightarrow"],"horizon":5,"forced_choices":["leftarrow","rightarrow","leftarrow","leftarrow"],"right_color":"lightblue","left_color":"orange","left_mu":60,"right_mu":90,"left_numbers":[73,62,54,79,53],"right_numbers":[100,82,92,88,85],"points_earned":373,"trial_type":"horizons-task","trial_index":41,"time_elapsed":537204,"internal_node_id":"0.0-37.0"},{"response_times":[517.0049997977912,451.91500009968877,592.9350000806153,1730.8100000955164,2795.030000153929,573.2499998994172,527.54499996081,728.8949997164309,945.9199998527765,799.800000153482],"keys_pressed":["leftarrow","rightarrow","rightarrow","leftarrow","leftarrow","rightarrow","leftarrow","rightarrow","leftarrow","rightarrow"],"horizon":10,"forced_choices":["leftarrow","rightarrow","rightarrow","leftarrow"],"right_color":"orange","left_color":"lightblue","left_mu":60,"right_mu":52,"left_numbers":[67,61,71,62,57,56,56,52,57,69],"right_numbers":[40,65,56,50,53,53,48,75,54,53],"points_earned":601,"trial_type":"horizons-task","trial_index":42,"time_elapsed":548374,"internal_node_id":"0.0-38.0"},{"response_times":[622.8650002740324,631.8349996581674,822.829999960959,816.1599999293685,611.924999859184],"keys_pressed":["rightarrow","leftarrow","rightarrow","leftarrow","leftarrow"],"horizon":5,"forced_choices":["rightarrow","leftarrow","rightarrow","leftarrow"],"right_color":"orange","left_color":"lightblue","left_mu":40,"right_mu":20,"left_numbers":[39,47,32,41,50],"right_numbers":[7,19,18,17,29],"points_earned":163,"trial_type":"horizons-task","trial_index":43,"time_elapsed":553382,"internal_node_id":"0.0-39.0"},{"response_times":[432.73500027135015,424.13000017404556,673.6449999734759,1590.5249998904765,1615.2049996890128],"keys_pressed":["leftarrow","rightarrow","leftarrow","rightarrow","rightarrow"],"horizon":5,"forced_choices":["leftarrow","rightarrow","leftarrow","rightarrow"],"right_color":"orange","left_color":"lightblue","left_mu":40,"right_mu":44,"left_numbers":[30,29,31,33,42],"right_numbers":[47,47,39,41,34],"points_earned":183,"trial_type":"horizons-task","trial_index":44,"time_elapsed":559621,"internal_node_id":"0.0-40.0"},{"response_times":[619.5600000210106,422.9600001126528,1400.249999947846,653.6099999211729,588.7799998745322,424.8350001871586,263.15500028431416,309.2499999329448,295.7299998961389,424.8350001871586],"keys_pressed":["rightarrow","leftarrow","rightarrow","leftarrow","leftarrow","leftarrow","leftarrow","leftarrow","leftarrow","leftarrow"],"horizon":10,"forced_choices":["rightarrow","leftarrow","rightarrow","leftarrow"],"right_color":"lightblue","left_color":"orange","left_mu":60,"right_mu":48,"left_numbers":[50,50,63,63,62,56,75,47,59,58],"right_numbers":[47,41,31,59,46,52,56,40,40,47],"points_earned":548,"trial_type":"horizons-task","trial_index":45,"time_elapsed":566528,"internal_node_id":"0.0-41.0"},{"response_times":[379.9200002104044,450.6649998947978,564.9550002999604,840.9700002521276,1403.8849999196827],"keys_pressed":["leftarrow","rightarrow","leftarrow","rightarrow","rightarrow"],"horizon":5,"forced_choices":["leftarrow","rightarrow","leftarrow","rightarrow"],"right_color":"lightblue","left_color":"orange","left_mu":60,"right_mu":68,"left_numbers":[53,74,59,52,59],"right_numbers":[70,74,62,69,71],"points_earned":326,"trial_type":"horizons-task","trial_index":46,"time_elapsed":571675,"internal_node_id":"0.0-42.0"},{"response_times":[859.4049997627735,530.5900000967085,958.3549997769296,752.0650001242757,1460.5049998499453,1790.9649997018278,1002.8299996629357,1354.9599996767938,439.85999980941415,367.25000012665987],"keys_pressed":["rightarrow","leftarrow","rightarrow","rightarrow","leftarrow","rightarrow","leftarrow","rightarrow","rightarrow","rightarrow"],"horizon":10,"forced_choices":["rightarrow","leftarrow","rightarrow","rightarrow"],"right_color":"lightblue","left_color":"orange","left_mu":40,"right_mu":52,"left_numbers":[37,33,29,44,45,42,48,32,48,37],"right_numbers":[54,52,42,58,61,54,56,47,66,60],"points_earned":507,"trial_type":"horizons-task","trial_index":47,"time_elapsed":582696,"internal_node_id":"0.0-43.0"},{"response_times":[396.3650004006922,700.6749999709427,604.0749996900558,614.0749999321997,1012.7249998040497,1471.8599999323487,3599.600000306964,635.1399999111891,626.0899999178946,489.9050001986325],"keys_pressed":["rightarrow","rightarrow","rightarrow","leftarrow","leftarrow","leftarrow","rightarrow","leftarrow","rightarrow","rightarrow"],"horizon":10,"forced_choices":["rightarrow","rightarrow","rightarrow","leftarrow"],"right_color":"lightblue","left_color":"orange","left_mu":60,"right_mu":64,"left_numbers":[55,70,66,60,50,49,62,72,76,59],"right_numbers":[72,49,55,62,68,69,71,72,69,72],"points_earned":619,"trial_type":"horizons-task","trial_index":48,"time_elapsed":594352,"internal_node_id":"0.0-44.0"},{"view_history":"[{\"page_index\":0,\"viewing_time\":16227.240000385791},{\"page_index\":1,\"viewing_time\":2169.7649997659028}]","rt":18397.680000402033,"trial_type":"instructions","trial_index":49,"time_elapsed":612752,"internal_node_id":"0.0-45.0"},{"response_times":[1393.1300002150238,485.5250003747642,564.1399999149144,569.6099996566772,475.0649998895824],"keys_pressed":["leftarrow","rightarrow","leftarrow","rightarrow","rightarrow"],"horizon":5,"forced_choices":["leftarrow","rightarrow","leftarrow","rightarrow"],"right_color":"lightblue","left_color":"orange","left_mu":60,"right_mu":90,"left_numbers":[76,59,52,64,57],"right_numbers":[95,83,91,90,98],"points_earned":399,"trial_type":"horizons-task","trial_index":50,"time_elapsed":617750,"internal_node_id":"0.0-46.0"},{"response_times":[468.71000016108155,479.72000017762184,549.0349996834993,416.71500029042363,2159.250000026077,469.63000018149614,481.03999998420477,383.9199999347329,290.8099996857345,372.2850000485778],"keys_pressed":["rightarrow","leftarrow","leftarrow","rightarrow","rightarrow","leftarrow","leftarrow","leftarrow","leftarrow","leftarrow"],"horizon":10,"forced_choices":["rightarrow","leftarrow","leftarrow","rightarrow"],"right_color":"orange","left_color":"lightblue","left_mu":60,"right_mu":56,"left_numbers":[57,56,66,55,52,55,80,47,57,83],"right_numbers":[61,52,59,39,48,50,53,63,60,49],"points_earned":592,"trial_type":"horizons-task","trial_index":51,"time_elapsed":625325,"internal_node_id":"0.0-47.0"},{"response_times":[456.26500016078353,506.9350004196167,634.0699996799231,658.0550000071526,1987.7700000070035,709.9999999627471,458.8600001297891,231.9999998435378,253.95499961450696,303.8349999114871],"keys_pressed":["leftarrow","leftarrow","rightarrow","rightarrow","rightarrow","leftarrow","rightarrow","rightarrow","rightarrow","rightarrow"],"horizon":10,"forced_choices":["leftarrow","leftarrow","rightarrow","rightarrow"],"right_color":"orange","left_color":"lightblue","left_mu":60,"right_mu":90,"left_numbers":[62,62,59,56,55,61,48,60,40,55],"right_numbers":[84,90,99,86,103,87,91,87,91,86],"points_earned":828,"trial_type":"horizons-task","trial_index":52,"time_elapsed":633033,"internal_node_id":"0.0-48.0"},{"response_times":[479.85499957576394,392.7799998782575,616.9050000607967,895.8900002762675,1564.974999986589,548.7150000408292,949.9849998392165,409.9750001914799,831.8900000303984,385.4849999770522],"keys_pressed":["rightarrow","leftarrow","rightarrow","rightarrow","leftarrow","leftarrow","leftarrow","rightarrow","leftarrow","leftarrow"],"horizon":10,"forced_choices":["rightarrow","leftarrow","rightarrow","rightarrow"],"right_color":"lightblue","left_color":"orange","left_mu":40,"right_mu":28,"left_numbers":[41,42,38,20,45,44,36,23,55,37],"right_numbers":[24,24,35,24,26,45,33,34,29,18],"points_earned":376,"trial_type":"horizons-task","trial_index":53,"time_elapsed":641616,"internal_node_id":"0.0-49.0"},{"response_times":[545.9250002168119,616.0099999979138,715.824999846518,591.2199998274446,1350.7650000974536],"keys_pressed":["leftarrow","leftarrow","leftarrow","rightarrow","leftarrow"],"horizon":5,"forced_choices":["leftarrow","leftarrow","leftarrow","rightarrow"],"right_color":"lightblue","left_color":"orange","left_mu":60,"right_mu":56,"left_numbers":[58,49,63,52,69],"right_numbers":[64,75,48,49,52],"points_earned":288,"trial_type":"horizons-task","trial_index":54,"time_elapsed":646942,"internal_node_id":"0.0-50.0"},{"response_times":[571.7199998907745,426.9099999219179,1553.950000088662,602.8100000694394,1304.0599999949336,519.5050002075732,564.2549996264279,466.08499996364117,274.89500027149916,332.094999961555],"keys_pressed":["leftarrow","rightarrow","leftarrow","leftarrow","rightarrow","rightarrow","leftarrow","rightarrow","rightarrow","rightarrow"],"horizon":10,"forced_choices":["leftarrow","rightarrow","leftarrow","leftarrow"],"right_color":"orange","left_color":"lightblue","left_mu":40,"right_mu":52,"left_numbers":[46,60,29,36,40,49,27,40,38,40],"right_numbers":[56,54,42,51,56,60,43,46,53,50],"points_earned":457,"trial_type":"horizons-task","trial_index":55,"time_elapsed":655066,"internal_node_id":"0.0-51.0"},{"response_times":[545.745000243187,407.8649999573827,830.8450002223253,479.8200000077486,1134.9399997852743],"keys_pressed":["leftarrow","rightarrow","leftarrow","rightarrow","leftarrow"],"horizon":5,"forced_choices":["leftarrow","rightarrow","leftarrow","rightarrow"],"right_color":"orange","left_color":"lightblue","left_mu":40,"right_mu":10,"left_numbers":[34,47,37,30,41],"right_numbers":[16,10,10,8,14],"points_earned":130,"trial_type":"horizons-task","trial_index":56,"time_elapsed":659969,"internal_node_id":"0.0-52.0"},{"response_times":[405.5200000293553,414.89499993622303,551.5049998648465,1354.8050001263618,308.784999884665],"keys_pressed":["leftarrow","leftarrow","rightarrow","leftarrow","rightarrow"],"horizon":5,"forced_choices":["leftarrow","leftarrow","rightarrow","leftarrow"],"right_color":"orange","left_color":"lightblue","left_mu":60,"right_mu":80,"left_numbers":[69,52,56,79,66],"right_numbers":[81,80,88,83,78],"points_earned":366,"trial_type":"horizons-task","trial_index":57,"time_elapsed":664520,"internal_node_id":"0.0-53.0"},{"response_times":[693.3649997226894,454.995000269264,930.7149997912347,437.8900001756847,1494.8899997398257],"keys_pressed":["leftarrow","rightarrow","leftarrow","rightarrow","leftarrow"],"horizon":5,"forced_choices":["leftarrow","rightarrow","leftarrow","rightarrow"],"right_color":"lightblue","left_color":"orange","left_mu":60,"right_mu":56,"left_numbers":[75,63,65,56,60],"right_numbers":[40,46,74,56,59],"points_earned":302,"trial_type":"horizons-task","trial_index":58,"time_elapsed":670039,"internal_node_id":"0.0-54.0"},{"response_times":[447.6799997501075,453.77499982714653,1187.8100000321865,412.0600000023842,1433.9600000530481,702.8050003573298,1015.3250000439584,535.5099998414516,632.0899999700487,390.8250001259148],"keys_pressed":["leftarrow","rightarrow","leftarrow","rightarrow","leftarrow","rightarrow","leftarrow","rightarrow","rightarrow","rightarrow"],"horizon":10,"forced_choices":["leftarrow","rightarrow","leftarrow","rightarrow"],"right_color":"orange","left_color":"lightblue","left_mu":60,"right_mu":72,"left_numbers":[62,59,69,60,68,52,60,61,67,66],"right_numbers":[65,78,58,71,60,58,73,87,67,69],"points_earned":689,"trial_type":"horizons-task","trial_index":59,"time_elapsed":678754,"internal_node_id":"0.0-55.0"},{"response_times":[701.4549998566508,422.0950002782047,666.5600002743304,653.1349997967482,531.9249997846782,1956.0399996116757,956.6599996760488,571.0249999538064,553.150000050664,4704.0399997495115],"keys_pressed":["leftarrow","rightarrow","leftarrow","leftarrow","rightarrow","rightarrow","leftarrow","rightarrow","leftarrow","rightarrow"],"horizon":10,"forced_choices":["leftarrow","rightarrow","leftarrow","leftarrow"],"right_color":"lightblue","left_color":"orange","left_mu":40,"right_mu":44,"left_numbers":[43,35,41,28,39,22,26,39,37,39],"right_numbers":[38,34,41,57,29,48,35,46,56,36],"points_earned":368,"trial_type":"horizons-task","trial_index":60,"time_elapsed":691974,"internal_node_id":"0.0-56.0"},{"response_times":[1341.6499998420477,573.9849996753037,895.2500000596046,619.3999997340143,1912.3149998486042,956.6000001505017,488.80499973893166,3198.0249998159707,388.8949998654425,561.9600000791252],"keys_pressed":["leftarrow","leftarrow","rightarrow","leftarrow","rightarrow","leftarrow","rightarrow","leftarrow","rightarrow","rightarrow"],"horizon":10,"forced_choices":["leftarrow","leftarrow","rightarrow","leftarrow"],"right_color":"lightblue","left_color":"orange","left_mu":60,"right_mu":64,"left_numbers":[64,47,69,54,58,59,49,67,62,63],"right_numbers":[75,61,75,67,59,77,61,53,52,65],"points_earned":603,"trial_type":"horizons-task","trial_index":61,"time_elapsed":704416,"internal_node_id":"0.0-57.0"},{"response_times":[512.8150000236928,535.6749999336898,894.1950001753867,510.9049999155104,1986.1750002019107,552.4450000375509,411.04000015184283,377.83999973908067,361.98500031605363,449.05499974265695],"keys_pressed":["leftarrow","rightarrow","rightarrow","leftarrow","rightarrow","leftarrow","leftarrow","leftarrow","leftarrow","leftarrow"],"horizon":10,"forced_choices":["leftarrow","rightarrow","rightarrow","leftarrow"],"right_color":"orange","left_color":"lightblue","left_mu":60,"right_mu":40,"left_numbers":[58,47,61,60,67,56,57,58,58,61],"right_numbers":[37,38,36,43,36,30,29,31,34,41],"points_earned":518,"trial_type":"horizons-task","trial_index":62,"time_elapsed":712516,"internal_node_id":"0.0-58.0"},{"response_times":[801.5400003641844,493.5750002041459,679.9750002101064,727.7949997223914,1146.2199999950826,1005.7149999774992,520.9750002250075,462.9450002685189,372.02500039711595,348.12500001862645],"keys_pressed":["rightarrow","leftarrow","leftarrow","leftarrow","rightarrow","leftarrow","rightarrow","rightarrow","rightarrow","rightarrow"],"horizon":10,"forced_choices":["rightarrow","leftarrow","leftarrow","leftarrow"],"right_color":"orange","left_color":"lightblue","left_mu":60,"right_mu":72,"left_numbers":[74,56,58,68,65,61,49,53,53,50],"right_numbers":[68,68,59,73,77,52,77,69,82,86],"points_earned":702,"trial_type":"horizons-task","trial_index":63,"time_elapsed":720582,"internal_node_id":"0.0-59.0"},{"response_times":[441.60000002011657,457.74999959394336,459.2500003054738,553.1600001268089,1550.4549997858703],"keys_pressed":["rightarrow","leftarrow","rightarrow","rightarrow","rightarrow"],"horizon":5,"forced_choices":["rightarrow","leftarrow","rightarrow","rightarrow"],"right_color":"orange","left_color":"lightblue","left_mu":40,"right_mu":60,"left_numbers":[40,39,49,51,38],"right_numbers":[50,56,68,52,57],"points_earned":266,"trial_type":"horizons-task","trial_index":64,"time_elapsed":725551,"internal_node_id":"0.0-60.0"},{"response_times":[505.0099999643862,449.5149999856949,1294.2800000309944,460.3849998675287,1268.6499999836087,385.5650001205504,462.0900000445545,377.89499992504716,306.7749999463558,341.97500022128224],"keys_pressed":["rightarrow","leftarrow","leftarrow","rightarrow","leftarrow","rightarrow","rightarrow","rightarrow","rightarrow","rightarrow"],"horizon":10,"forced_choices":["rightarrow","leftarrow","leftarrow","rightarrow"],"right_color":"orange","left_color":"lightblue","left_mu":60,"right_mu":80,"left_numbers":[45,60,76,70,52,72,52,66,62,55],"right_numbers":[78,80,66,76,86,74,78,93,86,83],"points_earned":756,"trial_type":"horizons-task","trial_index":65,"time_elapsed":732907,"internal_node_id":"0.0-61.0"},{"response_times":[437.89999978616834,378.69999976828694,488.0400002002716,1042.0550000853837,1501.7250003293157],"keys_pressed":["leftarrow","rightarrow","leftarrow","leftarrow","leftarrow"],"horizon":5,"forced_choices":["leftarrow","rightarrow","leftarrow","leftarrow"],"right_color":"orange","left_color":"lightblue","left_mu":60,"right_mu":64,"left_numbers":[73,53,49,64,63],"right_numbers":[47,60,70,62,72],"points_earned":309,"trial_type":"horizons-task","trial_index":66,"time_elapsed":738262,"internal_node_id":"0.0-62.0"},{"response_times":[664.3849997781217,596.6849997639656,647.5499998778105,689.5500002428889,2490.995000116527],"keys_pressed":["leftarrow","leftarrow","rightarrow","leftarrow","rightarrow"],"horizon":5,"forced_choices":["leftarrow","leftarrow","rightarrow","leftarrow"],"right_color":"orange","left_color":"lightblue","left_mu":60,"right_mu":68,"left_numbers":[58,65,56,67,57],"right_numbers":[73,69,68,63,59],"points_earned":317,"trial_type":"horizons-task","trial_index":67,"time_elapsed":744859,"internal_node_id":"0.0-63.0"},{"response_times":[575.379999820143,428.8950003683567,577.0600000396371,1040.6300001777709,1358.134999871254,707.8700000420213,466.64500003680587,470.43999982997775,359.77499978616834,299.8950001783669],"keys_pressed":["leftarrow","rightarrow","rightarrow","rightarrow","leftarrow","leftarrow","rightarrow","leftarrow","leftarrow","leftarrow"],"horizon":10,"forced_choices":["leftarrow","rightarrow","rightarrow","rightarrow"],"right_color":"orange","left_color":"lightblue","left_mu":40,"right_mu":20,"left_numbers":[37,36,43,40,47,42,32,26,45,43],"right_numbers":[4,18,10,18,21,22,24,17,2,26],"points_earned":310,"trial_type":"horizons-task","trial_index":68,"time_elapsed":752651,"internal_node_id":"0.0-64.0"},{"response_times":[424.4150002487004,388.6150000616908,990.0949997827411,1641.6199998930097,1485.0599998608232,523.0100001208484,865.9149999730289,857.0749997161329,887.8349997103214,3897.1099997870624],"keys_pressed":["leftarrow","rightarrow","leftarrow","rightarrow","leftarrow","rightarrow","leftarrow","rightarrow","leftarrow","leftarrow"],"horizon":10,"forced_choices":["leftarrow","rightarrow","leftarrow","rightarrow"],"right_color":"lightblue","left_color":"orange","left_mu":40,"right_mu":36,"left_numbers":[22,44,41,23,28,42,39,36,36,40],"right_numbers":[27,42,35,30,42,29,33,33,36,28],"points_earned":340,"trial_type":"horizons-task","trial_index":69,"time_elapsed":766118,"internal_node_id":"0.0-65.0"},{"response_times":[614.0950000844896,506.97499979287386,553.940000012517,513.8550000265241,726.0199999436736],"keys_pressed":["rightarrow","leftarrow","leftarrow","rightarrow","leftarrow"],"horizon":5,"forced_choices":["rightarrow","leftarrow","leftarrow","rightarrow"],"right_color":"lightblue","left_color":"orange","left_mu":40,"right_mu":20,"left_numbers":[40,33,34,44,39],"right_numbers":[19,18,15,17,10],"points_earned":142,"trial_type":"horizons-task","trial_index":70,"time_elapsed":770539,"internal_node_id":"0.0-66.0"},{"response_times":[1038.8899999670684,457.9049996100366,437.8549996763468,695.8250002935529,623.9349995739758],"keys_pressed":["leftarrow","leftarrow","rightarrow","rightarrow","leftarrow"],"horizon":5,"forced_choices":["leftarrow","leftarrow","rightarrow","rightarrow"],"right_color":"lightblue","left_color":"orange","left_mu":60,"right_mu":30,"left_numbers":[66,70,66,75,57],"right_numbers":[43,39,39,26,40],"points_earned":258,"trial_type":"horizons-task","trial_index":71,"time_elapsed":775296,"internal_node_id":"0.0-67.0"},{"response_times":[527.364999987185,526.9700000062585,676.9099999219179,522.8049997240305,732.069999910891],"keys_pressed":["rightarrow","rightarrow","rightarrow","leftarrow","leftarrow"],"horizon":5,"forced_choices":["rightarrow","rightarrow","rightarrow","leftarrow"],"right_color":"lightblue","left_color":"orange","left_mu":40,"right_mu":32,"left_numbers":[51,50,41,47,43],"right_numbers":[30,38,39,20,27],"points_earned":197,"trial_type":"horizons-task","trial_index":72,"time_elapsed":779789,"internal_node_id":"0.0-68.0"},{"response_times":[497.66999995335937,398.9499998278916,693.0799996480346,616.0399997606874,1533.6250001564622,1587.1999999508262,493.7050002627075,434.0150002390146,504.8950002528727,369.97999995946884],"keys_pressed":["leftarrow","leftarrow","rightarrow","leftarrow","rightarrow","rightarrow","leftarrow","leftarrow","leftarrow","leftarrow"],"horizon":10,"forced_choices":["leftarrow","leftarrow","rightarrow","leftarrow"],"right_color":"orange","left_color":"lightblue","left_mu":60,"right_mu":40,"left_numbers":[60,49,52,49,56,56,54,52,52,59],"right_numbers":[53,38,44,47,49,31,34,37,29,57],"points_earned":499,"trial_type":"horizons-task","trial_index":73,"time_elapsed":788422,"internal_node_id":"0.0-69.0"},{"response_times":[740.2550000697374,324.8550002463162,738.074999768287,1151.670000050217,644.4899998605251],"keys_pressed":["rightarrow","rightarrow","leftarrow","rightarrow","rightarrow"],"horizon":5,"forced_choices":["rightarrow","rightarrow","leftarrow","rightarrow"],"right_color":"lightblue","left_color":"orange","left_mu":60,"right_mu":64,"left_numbers":[38,67,69,65,62],"right_numbers":[55,82,69,71,70],"points_earned":347,"trial_type":"horizons-task","trial_index":74,"time_elapsed":793525,"internal_node_id":"0.0-70.0"},{"response_times":[588.7199998833239,462.74999994784594,864.9699999950826,509.7199999727309,1665.1099999435246,497.78000032529235,988.2450001314282,571.7449998483062,278.9249997586012,373.0699997395277],"keys_pressed":["rightarrow","leftarrow","rightarrow","rightarrow","leftarrow","leftarrow","rightarrow","rightarrow","rightarrow","rightarrow"],"horizon":10,"forced_choices":["rightarrow","leftarrow","rightarrow","rightarrow"],"right_color":"orange","left_color":"lightblue","left_mu":40,"right_mu":60,"left_numbers":[43,40,42,37,38,55,29,39,39,48],"right_numbers":[57,66,62,53,57,60,69,63,72,68],"points_earned":577,"trial_type":"horizons-task","trial_index":75,"time_elapsed":801830,"internal_node_id":"0.0-71.0"},{"response_times":[450.2449999563396,461.0949996858835,454.0699999779463,518.9049998298287,3172.125000040978],"keys_pressed":["leftarrow","rightarrow","rightarrow","leftarrow","rightarrow"],"horizon":5,"forced_choices":["leftarrow","rightarrow","rightarrow","leftarrow"],"right_color":"lightblue","left_color":"orange","left_mu":60,"right_mu":64,"left_numbers":[62,54,47,74,53],"right_numbers":[68,75,68,77,61],"points_earned":340,"trial_type":"horizons-task","trial_index":76,"time_elapsed":808390,"internal_node_id":"0.0-72.0"},{"response_times":[765.7899996265769,592.8400000557303,488.0400002002716,872.9650001041591,573.1049999594688],"keys_pressed":["leftarrow","rightarrow","rightarrow","leftarrow","leftarrow"],"horizon":5,"forced_choices":["leftarrow","rightarrow","rightarrow","leftarrow"],"right_color":"lightblue","left_color":"orange","left_mu":40,"right_mu":28,"left_numbers":[35,29,34,49,34],"right_numbers":[26,34,19,17,33],"points_earned":171,"trial_type":"horizons-task","trial_index":77,"time_elapsed":813190,"internal_node_id":"0.0-73.0"},{"response_times":[530.4399998858571,430.800000205636,569.0750000067055,529.6999998390675,777.6449997909367,663.2449999451637,1497.8600000031292,502.39000003784895,329.14000004529953,254.16000001132488],"keys_pressed":["leftarrow","leftarrow","leftarrow","rightarrow","rightarrow","rightarrow","leftarrow","leftarrow","leftarrow","leftarrow"],"horizon":10,"forced_choices":["leftarrow","leftarrow","leftarrow","rightarrow"],"right_color":"orange","left_color":"lightblue","left_mu":40,"right_mu":20,"left_numbers":[47,42,38,35,33,38,39,40,35,28],"right_numbers":[26,24,31,22,10,13,21,25,21,23],"points_earned":314,"trial_type":"horizons-task","trial_index":78,"time_elapsed":820779,"internal_node_id":"0.0-74.0"},{"response_times":[485.5600004084408,632.9600000753999,437.82499991357327,655.0050000660121,1505.379999987781,484.4600004144013,377.0099999383092,345.92000022530556,320.34499989822507,343.48499961197376],"keys_pressed":["rightarrow","leftarrow","rightarrow","leftarrow","leftarrow","rightarrow","rightarrow","rightarrow","rightarrow","rightarrow"],"horizon":10,"forced_choices":["rightarrow","leftarrow","rightarrow","leftarrow"],"right_color":"orange","left_color":"lightblue","left_mu":40,"right_mu":70,"left_numbers":[40,37,47,35,50,42,35,45,40,28],"right_numbers":[71,68,83,74,78,69,78,62,64,85],"points_earned":634,"trial_type":"horizons-task","trial_index":79,"time_elapsed":827872,"internal_node_id":"0.0-75.0"},{"response_times":[574.8549997806549,456.2900001183152,406.59499960020185,737.7949999645352,1535.1100000552833],"keys_pressed":["leftarrow","leftarrow","rightarrow","leftarrow","rightarrow"],"horizon":5,"forced_choices":["leftarrow","leftarrow","rightarrow","leftarrow"],"right_color":"lightblue","left_color":"orange","left_mu":40,"right_mu":44,"left_numbers":[30,35,24,31,45],"right_numbers":[46,56,39,50,42],"points_earned":177,"trial_type":"horizons-task","trial_index":80,"time_elapsed":833089,"internal_node_id":"0.0-76.0"},{"response_times":[477.7850001119077,403.02000008523464,706.304999999702,458.81500001996756,2024.7349999845028,737.0449998416007,398.76999985426664,294.90000009536743,264.01499984785914,290.0600000284612],"keys_pressed":["leftarrow","leftarrow","rightarrow","rightarrow","leftarrow","rightarrow","leftarrow","leftarrow","leftarrow","leftarrow"],"horizon":10,"forced_choices":["leftarrow","leftarrow","rightarrow","rightarrow"],"right_color":"lightblue","left_color":"orange","left_mu":60,"right_mu":40,"left_numbers":[64,64,54,60,51,64,64,61,57,56],"right_numbers":[34,46,39,51,38,29,40,39,35,23],"points_earned":536,"trial_type":"horizons-task","trial_index":81,"time_elapsed":840651,"internal_node_id":"0.0-77.0"},{"response_times":[570.3500001691282,466.9099999591708,535.8799998648465,600.8549998514354,3502.4299998767674,344.5850000716746,502.9099998064339,294.92999985814095,226.87500016763806,282.08000026643276],"keys_pressed":["rightarrow","leftarrow","rightarrow","leftarrow","leftarrow","rightarrow","leftarrow","leftarrow","leftarrow","leftarrow"],"horizon":10,"forced_choices":["rightarrow","leftarrow","rightarrow","leftarrow"],"right_color":"orange","left_color":"lightblue","left_mu":60,"right_mu":30,"left_numbers":[68,46,60,54,52,59,55,48,67,57],"right_numbers":[50,38,35,35,16,30,26,25,36,31],"points_earned":494,"trial_type":"horizons-task","trial_index":82,"time_elapsed":849483,"internal_node_id":"0.0-78.0"},{"response_times":[551.4899999834597,462.02500024810433,921.8899998813868,867.0549998059869,1895.809999667108],"keys_pressed":["leftarrow","rightarrow","leftarrow","rightarrow","leftarrow"],"horizon":5,"forced_choices":["leftarrow","rightarrow","leftarrow","rightarrow"],"right_color":"lightblue","left_color":"orange","left_mu":40,"right_mu":36,"left_numbers":[29,41,48,36,25],"right_numbers":[38,33,31,36,26],"points_earned":171,"trial_type":"horizons-task","trial_index":83,"time_elapsed":855686,"internal_node_id":"0.0-79.0"},{"response_times":[466.7899999767542,367.3650003038347,764.5749999210238,484.0150000527501,1188.8100001960993,732.9199998639524,538.8449998572469,391.9849996455014,304.75000012665987,315.1050000451505],"keys_pressed":["leftarrow","leftarrow","rightarrow","rightarrow","leftarrow","rightarrow","rightarrow","rightarrow","rightarrow","rightarrow"],"horizon":10,"forced_choices":["leftarrow","leftarrow","rightarrow","rightarrow"],"right_color":"lightblue","left_color":"orange","left_mu":60,"right_mu":80,"left_numbers":[63,66,67,62,68,51,61,61,58,50],"right_numbers":[73,77,73,76,72,77,81,87,73,90],"points_earned":754,"trial_type":"horizons-task","trial_index":84,"time_elapsed":862747,"internal_node_id":"0.0-80.0"},{"response_times":[444.3149999715388,448.95000010728836,459.06500006094575,768.7600003555417,3261.20000006631],"keys_pressed":["leftarrow","leftarrow","rightarrow","rightarrow","leftarrow"],"horizon":5,"forced_choices":["leftarrow","leftarrow","rightarrow","rightarrow"],"right_color":"lightblue","left_color":"orange","left_mu":40,"right_mu":44,"left_numbers":[61,41,29,36,32],"right_numbers":[55,38,50,41,45],"points_earned":225,"trial_type":"horizons-task","trial_index":85,"time_elapsed":869632,"internal_node_id":"0.0-81.0"},{"response_times":[604.4950000941753,437.9750001244247,520.7849997095764,578.9649998769164,3512.8700002096593,435.9599999152124,398.18499982357025,266.75499975681305,318.77500005066395,361.049999948591],"keys_pressed":["rightarrow","rightarrow","leftarrow","leftarrow","rightarrow","leftarrow","leftarrow","leftarrow","leftarrow","leftarrow"],"horizon":10,"forced_choices":["rightarrow","rightarrow","leftarrow","leftarrow"],"right_color":"orange","left_color":"lightblue","left_mu":60,"right_mu":52,"left_numbers":[50,64,71,58,66,67,58,70,66,74],"right_numbers":[47,47,61,55,43,31,62,42,58,48],"points_earned":601,"trial_type":"horizons-task","trial_index":86,"time_elapsed":878571,"internal_node_id":"0.0-82.0"},{"response_times":[0.6149997934699059,1009.7900000400841,1199.8899998143315,1457.7800002880394,2922.124999575317],"keys_pressed":["rightarrow","leftarrow","rightarrow","leftarrow","rightarrow"],"horizon":5,"forced_choices":["rightarrow","leftarrow","rightarrow","leftarrow"],"right_color":"orange","left_color":"lightblue","left_mu":60,"right_mu":64,"left_numbers":[62,62,48,45,62],"right_numbers":[51,66,59,59,51],"points_earned":268,"trial_type":"horizons-task","trial_index":87,"time_elapsed":886683,"internal_node_id":"0.0-83.0"},{"response_times":[609.3600001186132,560.7849997468293,1216.2500000558794,831.6999999806285,1077.9800000600517],"keys_pressed":["rightarrow","leftarrow","rightarrow","rightarrow","rightarrow"],"horizon":5,"forced_choices":["rightarrow","leftarrow","rightarrow","rightarrow"],"right_color":"lightblue","left_color":"orange","left_mu":40,"right_mu":70,"left_numbers":[29,53,40,41,33],"right_numbers":[70,69,75,69,69],"points_earned":336,"trial_type":"horizons-task","trial_index":88,"time_elapsed":892486,"internal_node_id":"0.0-84.0"},{"response_times":[402.6449997909367,442.7000000141561,1092.0049999840558,1194.8850001208484,1515.8450002782047],"keys_pressed":["rightarrow","leftarrow","leftarrow","leftarrow","rightarrow"],"horizon":5,"forced_choices":["rightarrow","leftarrow","leftarrow","leftarrow"],"right_color":"orange","left_color":"lightblue","left_mu":60,"right_mu":64,"left_numbers":[55,48,57,62,59],"right_numbers":[58,61,59,70,59],"points_earned":284,"trial_type":"horizons-task","trial_index":89,"time_elapsed":898640,"internal_node_id":"0.0-85.0"},{"rt":21093.274999875575,"responses":{"age":"28","gender-categorical":"Female","gender-free-response":"","ethnicity":"Not Hispanic or Latino","race":["Black or African American","White"],"language":"Yes","fluency":"Very well"},"survey":"demographics","trial_type":"survey-demo","trial_index":90,"time_elapsed":919738,"internal_node_id":"0.0-86.0"},{"rt":20511.58000016585,"responses":{"difficulty":"3","fun":"4","clarity":"5","strategy":"No writing, tried to keep average scores mentally","feedback":""},"survey":"debrief","trial_type":"survey-debrief","trial_index":91,"time_elapsed":940254,"internal_node_id":"0.0-87.0","interactions":"[{\"event\":\"blur\",\"trial\":3,\"time\":99497},{\"event\":\"focus\",\"trial\":3,\"time\":102236},{\"event\":\"blur\",\"trial\":6,\"time\":220072},{\"event\":\"focus\",\"trial\":6,\"time\":221466},{\"event\":\"blur\",\"trial\":8,\"time\":243404},{\"event\":\"focus\",\"trial\":8,\"time\":245210},{\"event\":\"blur\",\"trial\":8,\"time\":246789},{\"event\":\"focus\",\"trial\":8,\"time\":247861},{\"event\":\"blur\",\"trial\":49,\"time\":599981},{\"event\":\"focus\",\"trial\":49,\"time\":602860},{\"event\":\"blur\",\"trial\":90,\"time\":900958},{\"event\":\"focus\",\"trial\":90,\"time\":902479}]"}]