[{"view_history":"[{\"page_index\":0,\"viewing_time\":3802.2499999933643}]","rt":3802.895000000717,"trial_type":"instructions","trial_index":0,"time_elapsed":3817,"internal_node_id":"0.0-0.0"},{"item_order":[0,12,1,10,7,2,5,3,6,9,4,8,11],"responses":{"Q01":"2","Q13":"4","Q02":"3","Q11":"1","Q08":"2","Q03":"1","Q06":"1","Q04":"2","Q07":"1","Q10":"2","Q05":"0","Q09":"0","Q12":"2"},"radio_events":[8398.925000001327,11470.539999994799,26877.35999999859,32359.895000001416,36024.52999999514,44937.114999993355,48861.79500000435,56958.01499999652,59891.72499999404,64365.380000002915,67193.65000000107,74381.59999999334,79544.0099999978,82746.07500000275,87725.27999999875],"key_events":[],"mouse_events":[0.07999999797903001,8398.925000001327,11470.539999994799,26154.06499999517,26877.35999999859,32359.895000001416,36024.52999999514,44937.114999993355,47890.48499999626,48861.79500000435,56958.01499999652,59891.72499999404,64365.380000002915,67193.65000000107,74381.59999999334,79544.0099999978,82746.07500000275,85704.58999999391,86930.54499999562,87725.27999999875,89103.21499999554],"rt":89105.24999999325,"survey":"ius12","trial_type":"survey-template","trial_index":1,"time_elapsed":92927,"internal_node_id":"0.0-1.0"},{"item_order":[1,5,9,10,13,6,11,0,2,8,14,4,16,7,12,15,3],"responses":{"Q02":"3","Q06":"3","Q10":"4","Q11":"3","Q14":"2","Q07":"2","Q12":"1","Q01":"2","Q03":"4","Q09":"1","Q15":"3","Q05":"1","Q17":"0","Q08":"3","Q13":"3","Q16":"3","Q04":"2"},"radio_events":[7959.784999999101,11003.089999998338,13670.329999993555,22326.524999996764,22789.864999998827,25940.339999986463,29020.744999987073,32879.67999999819,39636.269999988144,41986.034999994445,48738.63499998697,52123.46999999136,56828.66999998805,59875.88999999571,69508.19499998761,74454.22999998846,77924.3099999876,80578.69499998924,82124.91999998747],"key_events":[],"mouse_events":[7959.784999999101,11003.089999998338,13670.329999993555,22326.524999996764,22789.864999998827,25940.339999986463,29020.744999987073,32027.979999998934,32879.67999999819,39636.269999988144,41986.034999994445,48738.63499998697,52123.46999999136,56828.66999998805,59875.88999999571,69508.19499998761,74454.22999998846,77924.3099999876,80578.69499998924,82124.91999998747,83245.23999998928],"rt":83247.38999998954,"survey":"pswq","trial_type":"survey-template","trial_index":2,"time_elapsed":176182,"internal_node_id":"0.0-2.0"},{"view_history":"[{\"page_index\":0,\"viewing_time\":3106.9549999956507},{\"page_index\":1,\"viewing_time\":5543.26000000583},{\"page_index\":2,\"viewing_time\":8728.275000001304},{\"page_index\":3,\"viewing_time\":10921.13000000245},{\"page_index\":4,\"viewing_time\":4604.994999986957},{\"page_index\":5,\"viewing_time\":5107.310000006692},{\"page_index\":6,\"viewing_time\":7502.795000007609},{\"page_index\":7,\"viewing_time\":9589.909999995143},{\"page_index\":8,\"viewing_time\":3205.9449999942444},{\"page_index\":9,\"viewing_time\":14667.889999996987}]","rt":72978.75500000373,"trial_type":"instructions","trial_index":3,"time_elapsed":249165,"internal_node_id":"0.0-3.0-0.0"},{"response_times":[1654.594999999972,1439.0949999942677,599.6999999915715,779.129999995348,923.8000000041211],"keys_pressed":["rightarrow","leftarrow","rightarrow","rightarrow","leftarrow"],"horizon":5,"forced_choices":["rightarrow","leftarrow","rightarrow","rightarrow"],"right_color":"lightblue","left_color":"orange","left_mu":40,"right_mu":20,"left_numbers":[32,46,31,30,42],"right_numbers":[6,4,19,9,32],"points_earned":122,"trial_type":"horizons-task","trial_index":4,"time_elapsed":256073,"internal_node_id":"0.0-3.0-1.0"},{"response_times":[1094.7099999903003,691.6449999989709,662.8899999923306,796.344999995199,703.815000000759,70.57999999960884,1180.3599999984726,6.744999991497025,990.1850000023842,3.4749999904306605],"keys_pressed":["leftarrow","leftarrow","rightarrow","rightarrow","leftarrow","rightarrow","leftarrow","rightarrow","leftarrow","rightarrow"],"horizon":10,"forced_choices":["leftarrow","leftarrow","rightarrow","rightarrow"],"right_color":"orange","left_color":"lightblue","left_mu":60,"right_mu":70,"left_numbers":[61,63,72,66,59,70,68,49,71,54],"right_numbers":[68,74,69,75,73,71,65,69,81,67],"points_earned":673,"trial_type":"horizons-task","trial_index":5,"time_elapsed":263780,"internal_node_id":"0.0-3.0-2.0"},{"view_history":"[{\"page_index\":0,\"viewing_time\":1969.794999997248},{\"page_index\":1,\"viewing_time\":2754.510000013397},{\"page_index\":2,\"viewing_time\":5036.8299999972805},{\"page_index\":3,\"viewing_time\":4139.989999996033}]","rt":13901.404999996885,"trial_type":"instructions","trial_index":6,"time_elapsed":277682,"internal_node_id":"0.0-3.0-3.0"},{"responses":["true","false","false","true"],"num_errors":0,"rt":17035.91000000597,"trial_type":"horizons-comprehension","trial_index":7,"time_elapsed":294721,"internal_node_id":"0.0-3.0-4.0"},{"view_history":"[{\"page_index\":0,\"viewing_time\":2035.7000000076368},{\"page_index\":1,\"viewing_time\":3827.2049999941373}]","rt":5863.160000008065,"trial_type":"instructions","trial_index":8,"time_elapsed":300589,"internal_node_id":"0.0-4.0"},{"response_times":[1618.3499999897322,854.5349999913014,766.0049999976764,829.6899999986636,7135.2549999865005],"keys_pressed":["rightarrow","leftarrow","rightarrow","leftarrow","rightarrow"],"horizon":5,"forced_choices":["rightarrow","leftarrow","rightarrow","leftarrow"],"right_color":"orange","left_color":"lightblue","left_mu":60,"right_mu":80,"left_numbers":[58,55,61,57,67],"right_numbers":[82,65,83,67,100],"points_earned":377,"trial_type":"horizons-task","trial_index":9,"time_elapsed":313303,"internal_node_id":"0.0-5.0"},{"response_times":[864.0299999970011,943.5950000042794,792.3500000033528,1156.990000003134,21951.935000004596],"keys_pressed":["leftarrow","leftarrow","rightarrow","rightarrow","leftarrow"],"horizon":5,"forced_choices":["leftarrow","leftarrow","rightarrow","rightarrow"],"right_color":"lightblue","left_color":"orange","left_mu":60,"right_mu":30,"left_numbers":[44,58,54,66,67],"right_numbers":[27,18,29,38,18],"points_earned":236,"trial_type":"horizons-task","trial_index":10,"time_elapsed":340517,"internal_node_id":"0.0-6.0"},{"response_times":[1668.455000006361,884.2100000038045,843.6300000030315,766.780000005383,5844.840000005206,4908.390000011423,2260.774999987916,1171.7900000076042,976.9000000087544,930.3899999940768],"keys_pressed":["leftarrow","leftarrow","leftarrow","rightarrow","leftarrow","leftarrow","leftarrow","leftarrow","leftarrow","leftarrow"],"horizon":10,"forced_choices":["leftarrow","leftarrow","leftarrow","rightarrow"],"right_color":"lightblue","left_color":"orange","left_mu":40,"right_mu":20,"left_numbers":[42,40,34,37,57,41,58,28,37,42],"right_numbers":[24,10,28,16,21,10,7,18,16,17],"points_earned":395,"trial_type":"horizons-task","trial_index":11,"time_elapsed":362275,"internal_node_id":"0.0-7.0"},{"response_times":[1056.7649999866262,850.8650000003399,823.9849999954458,795.8050000015646,3965.635000000475],"keys_pressed":["leftarrow","leftarrow","rightarrow","leftarrow","leftarrow"],"horizon":5,"forced_choices":["leftarrow","leftarrow","rightarrow","leftarrow"],"right_color":"lightblue","left_color":"orange","left_mu":40,"right_mu":28,"left_numbers":[33,27,43,47,54],"right_numbers":[32,21,30,36,23],"points_earned":191,"trial_type":"horizons-task","trial_index":12,"time_elapsed":371272,"internal_node_id":"0.0-8.0"},{"response_times":[750.2299999905517,602.5799999915762,846.9400000030873,964.590000003227,9112.334999997984],"keys_pressed":["leftarrow","rightarrow","rightarrow","leftarrow","leftarrow"],"horizon":5,"forced_choices":["leftarrow","rightarrow","rightarrow","leftarrow"],"right_color":"orange","left_color":"lightblue","left_mu":60,"right_mu":52,"left_numbers":[67,57,62,74,62],"right_numbers":[69,52,58,49,60],"points_earned":313,"trial_type":"horizons-task","trial_index":13,"time_elapsed":385053,"internal_node_id":"0.0-9.0"},{"response_times":[1089.1499999997905,542.474999994738,812.0950000011362,1083.6750000016764,1032.0500000088941],"keys_pressed":["leftarrow","rightarrow","leftarrow","leftarrow","rightarrow"],"horizon":5,"forced_choices":["leftarrow","rightarrow","leftarrow","leftarrow"],"right_color":"lightblue","left_color":"orange","left_mu":60,"right_mu":90,"left_numbers":[54,61,61,57,71],"right_numbers":[106,105,89,89,80],"points_earned":357,"trial_type":"horizons-task","trial_index":14,"time_elapsed":391119,"internal_node_id":"0.0-10.0"},{"response_times":[829.1749999916647,712.8850000008242,681.1349999916274,604.5849999936763,3730.4149999981746],"keys_pressed":["leftarrow","leftarrow","leftarrow","rightarrow","rightarrow"],"horizon":5,"forced_choices":["leftarrow","leftarrow","leftarrow","rightarrow"],"right_color":"orange","left_color":"lightblue","left_mu":40,"right_mu":52,"left_numbers":[36,32,38,54,32],"right_numbers":[47,41,32,60,39],"points_earned":205,"trial_type":"horizons-task","trial_index":15,"time_elapsed":399191,"internal_node_id":"0.0-11.0"},{"response_times":[991.4950000093086,624.4799999985844,615.445000003092,552.5550000020303,1535.1400000072317,1988.8150000042515,2309.800000002724,760.599999994156,2306.960000001709,2539.120000001276],"keys_pressed":["rightarrow","rightarrow","leftarrow","rightarrow","leftarrow","leftarrow","rightarrow","leftarrow","rightarrow","rightarrow"],"horizon":10,"forced_choices":["rightarrow","rightarrow","leftarrow","rightarrow"],"right_color":"orange","left_color":"lightblue","left_mu":60,"right_mu":48,"left_numbers":[56,57,65,50,51,57,64,55,55,63],"right_numbers":[39,56,42,52,45,53,47,39,67,45],"points_earned":534,"trial_type":"horizons-task","trial_index":16,"time_elapsed":414920,"internal_node_id":"0.0-12.0"},{"response_times":[624.7449999937089,441.6800000035437,725.2949999965494,622.6049999968382,674.7850000101607,1404.980000006617,1426.0450000001583,1111.6499999916414,1667.3599999921862,2297.2849999932805],"keys_pressed":["leftarrow","rightarrow","rightarrow","rightarrow","leftarrow","leftarrow","rightarrow","leftarrow","rightarrow","rightarrow"],"horizon":10,"forced_choices":["leftarrow","rightarrow","rightarrow","rightarrow"],"right_color":"lightblue","left_color":"orange","left_mu":40,"right_mu":44,"left_numbers":[49,40,43,35,47,36,42,41,47,41],"right_numbers":[45,40,35,41,44,43,47,39,54,36],"points_earned":426,"trial_type":"horizons-task","trial_index":17,"time_elapsed":427422,"internal_node_id":"0.0-13.0"},{"response_times":[786.645000000135,493.0449999956181,445.82500000251457,482.31000000669155,1496.0549999959767,1139.3700000044191,2356.084999992163,1233.9199999987613,954.3600000033621,774.2049999942537],"keys_pressed":["leftarrow","rightarrow","leftarrow","rightarrow","rightarrow","rightarrow","leftarrow","leftarrow","rightarrow","rightarrow"],"horizon":10,"forced_choices":["leftarrow","rightarrow","leftarrow","rightarrow"],"right_color":"orange","left_color":"lightblue","left_mu":60,"right_mu":80,"left_numbers":[62,38,42,72,49,65,77,55,51,60],"right_numbers":[74,80,76,70,88,78,84,77,82,81],"points_earned":715,"trial_type":"horizons-task","trial_index":18,"time_elapsed":439086,"internal_node_id":"0.0-14.0"},{"response_times":[727.100000003702,557.7699999994365,578.1649999989895,578.1049999932293,1749.6400000090944],"keys_pressed":["rightarrow","rightarrow","leftarrow","rightarrow","leftarrow"],"horizon":5,"forced_choices":["rightarrow","rightarrow","leftarrow","rightarrow"],"right_color":"lightblue","left_color":"orange","left_mu":60,"right_mu":40,"left_numbers":[69,49,51,57,63],"right_numbers":[54,38,50,36,35],"points_earned":242,"trial_type":"horizons-task","trial_index":19,"time_elapsed":444781,"internal_node_id":"0.0-15.0"},{"response_times":[669.4449999922654,690.4199999989942,777.8099999995902,582.0950000052107,1676.7649999965215,816.1799999943469,1059.6800000057556,931.0949999926379,995.695000005071,668.2199999922886],"keys_pressed":["rightarrow","leftarrow","leftarrow","rightarrow","leftarrow","rightarrow","leftarrow","rightarrow","leftarrow","rightarrow"],"horizon":10,"forced_choices":["rightarrow","leftarrow","leftarrow","rightarrow"],"right_color":"lightblue","left_color":"orange","left_mu":40,"right_mu":60,"left_numbers":[42,51,38,23,30,39,24,33,31,46],"right_numbers":[70,50,56,58,68,58,75,48,52,62],"points_earned":470,"trial_type":"horizons-task","trial_index":20,"time_elapsed":455155,"internal_node_id":"0.0-16.0"},{"response_times":[842.2649999993155,569.6350000071106,852.9649999982212,780.9850000048755,7568.270000003395],"keys_pressed":["leftarrow","leftarrow","rightarrow","rightarrow","rightarrow"],"horizon":5,"forced_choices":["leftarrow","leftarrow","rightarrow","rightarrow"],"right_color":"lightblue","left_color":"orange","left_mu":40,"right_mu":44,"left_numbers":[45,29,36,37,53],"right_numbers":[53,51,56,44,45],"points_earned":219,"trial_type":"horizons-task","trial_index":21,"time_elapsed":467271,"internal_node_id":"0.0-17.0"},{"response_times":[673.3750000130385,461.94500000274274,893.3200000028592,529.9300000042422,2185.684999989462,763.1499999988591,637.4499999947147,764.710000003106,727.3799999966286,1993.4049999865238],"keys_pressed":["rightarrow","leftarrow","leftarrow","rightarrow","leftarrow","rightarrow","leftarrow","rightarrow","leftarrow","leftarrow"],"horizon":10,"forced_choices":["rightarrow","leftarrow","leftarrow","rightarrow"],"right_color":"orange","left_color":"lightblue","left_mu":60,"right_mu":40,"left_numbers":[65,63,54,60,53,73,68,58,68,53],"right_numbers":[50,36,45,30,34,43,50,43,25,28],"points_earned":525,"trial_type":"horizons-task","trial_index":22,"time_elapsed":478404,"internal_node_id":"0.0-18.0"},{"response_times":[704.9799999949755,562.7850000018952,485.9149999974761,615.9349999943515,3191.0099999950035],"keys_pressed":["leftarrow","rightarrow","leftarrow","rightarrow","leftarrow"],"horizon":5,"forced_choices":["leftarrow","rightarrow","leftarrow","rightarrow"],"right_color":"lightblue","left_color":"orange","left_mu":60,"right_mu":30,"left_numbers":[63,65,43,44,58],"right_numbers":[26,28,26,35,33],"points_earned":227,"trial_type":"horizons-task","trial_index":23,"time_elapsed":485469,"internal_node_id":"0.0-19.0"},{"response_times":[930.2000000025146,529.5299999997951,474.08000001451,575.6249999976717,2298.355000006268,481.6900000005262,605.9200000017881,567.9700000036974,677.1250000019791,6485.029999996186],"keys_pressed":["leftarrow","rightarrow","leftarrow","rightarrow","leftarrow","rightarrow","leftarrow","rightarrow","leftarrow","leftarrow"],"horizon":10,"forced_choices":["leftarrow","rightarrow","leftarrow","rightarrow"],"right_color":"lightblue","left_color":"orange","left_mu":60,"right_mu":52,"left_numbers":[54,45,54,66,60,65,60,53,51,62],"right_numbers":[51,52,49,45,57,59,44,60,46,52],"points_earned":557,"trial_type":"horizons-task","trial_index":24,"time_elapsed":500596,"internal_node_id":"0.0-20.0"},{"response_times":[698.355000000447,602.6600000041071,865.8800000121119,600.2250000019558,2500.9599999903003,677.510000008624,613.2849999994505,641.764999993029,1029.9599999998463,740.8649999997579],"keys_pressed":["rightarrow","leftarrow","leftarrow","rightarrow","rightarrow","leftarrow","rightarrow","leftarrow","rightarrow","leftarrow"],"horizon":10,"forced_choices":["rightarrow","leftarrow","leftarrow","rightarrow"],"right_color":"lightblue","left_color":"orange","left_mu":40,"right_mu":20,"left_numbers":[42,30,30,39,39,42,52,48,28,36],"right_numbers":[18,18,26,13,18,6,24,15,21,31],"points_earned":280,"trial_type":"horizons-task","trial_index":25,"time_elapsed":511075,"internal_node_id":"0.0-21.0"},{"response_times":[685.4800000000978,694.9150000000373,626.7950000037672,1389.6050000039395,1816.6400000045542],"keys_pressed":["rightarrow","leftarrow","rightarrow","leftarrow","rightarrow"],"horizon":5,"forced_choices":["rightarrow","leftarrow","rightarrow","leftarrow"],"right_color":"orange","left_color":"lightblue","left_mu":40,"right_mu":70,"left_numbers":[39,52,45,40,39],"right_numbers":[70,82,80,64,59],"points_earned":301,"trial_type":"horizons-task","trial_index":26,"time_elapsed":517791,"internal_node_id":"0.0-22.0"},{"response_times":[697.889999995823,564.2250000091735,788.0699999950593,803.7849999964237,1540.0850000005448,535.8249999990221,555.0749999965774,612.1400000120047,846.4449999883072,1613.1250000034925],"keys_pressed":["leftarrow","leftarrow","rightarrow","rightarrow","leftarrow","rightarrow","leftarrow","rightarrow","leftarrow","rightarrow"],"horizon":10,"forced_choices":["leftarrow","leftarrow","rightarrow","rightarrow"],"right_color":"orange","left_color":"lightblue","left_mu":40,"right_mu":48,"left_numbers":[40,44,39,35,43,30,39,34,33,37],"right_numbers":[49,47,43,54,34,62,45,38,49,44],"points_earned":440,"trial_type":"horizons-task","trial_index":27,"time_elapsed":527851,"internal_node_id":"0.0-23.0"},{"response_times":[613.8349999964703,560.5950000026496,590.1050000102259,923.9650000090478,1446.7049999948358,474.18000000470784,518.6699999903794,512.12499999383,571.0050000052433,2223.0649999983143],"keys_pressed":["leftarrow","rightarrow","leftarrow","leftarrow","rightarrow","leftarrow","rightarrow","leftarrow","rightarrow","leftarrow"],"horizon":10,"forced_choices":["leftarrow","rightarrow","leftarrow","leftarrow"],"right_color":"lightblue","left_color":"orange","left_mu":60,"right_mu":48,"left_numbers":[60,59,53,46,55,62,55,47,43,60],"right_numbers":[39,58,52,46,69,52,40,65,46,51],"points_earned":541,"trial_type":"horizons-task","trial_index":28,"time_elapsed":537789,"internal_node_id":"0.0-24.0"},{"response_times":[641.3699999975506,514.7350000042934,1168.760000000475,656.0400000016671,978.8799999951152,645.9699999977602,1025.9700000024168,418.6550000013085,651.0500000003958,5479.414999994333],"keys_pressed":["leftarrow","rightarrow","rightarrow","leftarrow","rightarrow","leftarrow","rightarrow","leftarrow","rightarrow","leftarrow"],"horizon":10,"forced_choices":["leftarrow","rightarrow","rightarrow","leftarrow"],"right_color":"orange","left_color":"lightblue","left_mu":40,"right_mu":32,"left_numbers":[41,46,42,34,32,48,41,39,47,39],"right_numbers":[41,42,41,21,28,23,23,22,31,29],"points_earned":366,"trial_type":"horizons-task","trial_index":29,"time_elapsed":551477,"internal_node_id":"0.0-25.0"},{"response_times":[626.6349999932572,386.1099999921862,501.7999999981839,849.2399999959162,1689.8500000097556],"keys_pressed":["leftarrow","rightarrow","leftarrow","leftarrow","rightarrow"],"horizon":5,"forced_choices":["leftarrow","rightarrow","leftarrow","leftarrow"],"right_color":"lightblue","left_color":"orange","left_mu":40,"right_mu":20,"left_numbers":[40,39,37,33,33],"right_numbers":[25,31,22,27,7],"points_earned":148,"trial_type":"horizons-task","trial_index":30,"time_elapsed":557037,"internal_node_id":"0.0-26.0"},{"response_times":[887.6750000054017,585.1849999889964,583.3199999906356,776.9649999972899,1341.4349999948172],"keys_pressed":["rightarrow","rightarrow","rightarrow","leftarrow","leftarrow"],"horizon":5,"forced_choices":["rightarrow","rightarrow","rightarrow","leftarrow"],"right_color":"orange","left_color":"lightblue","left_mu":60,"right_mu":80,"left_numbers":[59,59,60,69,65],"right_numbers":[65,72,61,75,73],"points_earned":332,"trial_type":"horizons-task","trial_index":31,"time_elapsed":562714,"internal_node_id":"0.0-27.0"},{"response_times":[722.1800000115763,473.9350000018021,507.7049999963492,754.7300000005635,869.6000000054482,372.6150000002235,477.84500000125263,434.2399999877671,880.9299999993527,1091.534999999567],"keys_pressed":["rightarrow","leftarrow","rightarrow","rightarrow","leftarrow","rightarrow","leftarrow","rightarrow","leftarrow","rightarrow"],"horizon":10,"forced_choices":["rightarrow","leftarrow","rightarrow","rightarrow"],"right_color":"lightblue","left_color":"orange","left_mu":40,"right_mu":70,"left_numbers":[32,48,37,40,42,44,44,45,38,45],"right_numbers":[81,81,68,62,83,76,68,57,74,68],"points_earned":584,"trial_type":"horizons-task","trial_index":32,"time_elapsed":570802,"internal_node_id":"0.0-28.0"},{"response_times":[639.8749999934807,522.8800000040792,412.17999999935273,1055.9999999968568,1032.1899999980815,322.78500001120847,408.7100000033388,321.88000000314787,789.069999998901,2603.750000009313],"keys_pressed":["rightarrow","leftarrow","rightarrow","rightarrow","leftarrow","rightarrow","leftarrow","rightarrow","leftarrow","leftarrow"],"horizon":10,"forced_choices":["rightarrow","leftarrow","rightarrow","rightarrow"],"right_color":"orange","left_color":"lightblue","left_mu":40,"right_mu":32,"left_numbers":[37,33,25,50,51,33,38,36,48,30],"right_numbers":[29,29,24,31,37,36,28,20,38,41],"points_earned":340,"trial_type":"horizons-task","trial_index":33,"time_elapsed":580416,"internal_node_id":"0.0-29.0"},{"response_times":[736.5700000082143,496.6850000055274,860.2050000044983,675.6299999979092,1579.9299999926006],"keys_pressed":["rightarrow","leftarrow","leftarrow","leftarrow","leftarrow"],"horizon":5,"forced_choices":["rightarrow","leftarrow","leftarrow","leftarrow"],"right_color":"lightblue","left_color":"orange","left_mu":40,"right_mu":20,"left_numbers":[44,36,45,41,20],"right_numbers":[20,15,19,19,15],"points_earned":162,"trial_type":"horizons-task","trial_index":34,"time_elapsed":586267,"internal_node_id":"0.0-30.0"},{"response_times":[625.4300000000512,420.6899999990128,393.1250000023283,492.64499999117106,2788.3399999991525],"keys_pressed":["leftarrow","rightarrow","leftarrow","rightarrow","leftarrow"],"horizon":5,"forced_choices":["leftarrow","rightarrow","leftarrow","rightarrow"],"right_color":"orange","left_color":"lightblue","left_mu":60,"right_mu":80,"left_numbers":[63,63,67,59,68],"right_numbers":[67,71,88,84,84],"points_earned":353,"trial_type":"horizons-task","trial_index":35,"time_elapsed":592490,"internal_node_id":"0.0-31.0"},{"response_times":[691.1049999907846,391.6250000038417,874.1949999966891,518.3900000120047,778.6449999985052,349.659999992582,398.4249999921303,422.88499999267515,674.9199999903794,1161.4149999950314],"keys_pressed":["rightarrow","leftarrow","leftarrow","rightarrow","leftarrow","rightarrow","leftarrow","rightarrow","leftarrow","rightarrow"],"horizon":10,"forced_choices":["rightarrow","leftarrow","leftarrow","rightarrow"],"right_color":"orange","left_color":"lightblue","left_mu":40,"right_mu":70,"left_numbers":[51,38,28,41,40,49,35,40,39,28],"right_numbers":[80,74,75,63,54,79,72,62,72,63],"points_earned":527,"trial_type":"horizons-task","trial_index":36,"time_elapsed":600257,"internal_node_id":"0.0-32.0"},{"response_times":[589.1850000043632,434.89999999292195,377.7600000030361,551.869999995688,2310.1650000025984],"keys_pressed":["leftarrow","rightarrow","leftarrow","rightarrow","leftarrow"],"horizon":5,"forced_choices":["leftarrow","rightarrow","leftarrow","rightarrow"],"right_color":"orange","left_color":"lightblue","left_mu":60,"right_mu":68,"left_numbers":[57,53,68,51,63],"right_numbers":[75,64,68,62,69],"points_earned":314,"trial_type":"horizons-task","trial_index":37,"time_elapsed":606027,"internal_node_id":"0.0-33.0"},{"response_times":[702.145000002929,673.8449999975273,609.9700000049779,860.6799999979557,1240.7700000039767],"keys_pressed":["rightarrow","rightarrow","leftarrow","leftarrow","leftarrow"],"horizon":5,"forced_choices":["rightarrow","rightarrow","leftarrow","leftarrow"],"right_color":"orange","left_color":"lightblue","left_mu":40,"right_mu":20,"left_numbers":[38,29,43,48,39],"right_numbers":[18,12,23,17,30],"points_earned":160,"trial_type":"horizons-task","trial_index":38,"time_elapsed":611617,"internal_node_id":"0.0-34.0"},{"response_times":[550.7250000082422,414.6749999927124,671.0299999976996,713.1650000083027,3559.2999999935273],"keys_pressed":["leftarrow","rightarrow","rightarrow","rightarrow","rightarrow"],"horizon":5,"forced_choices":["leftarrow","rightarrow","rightarrow","rightarrow"],"right_color":"orange","left_color":"lightblue","left_mu":40,"right_mu":60,"left_numbers":[37,44,56,39,31],"right_numbers":[60,62,53,49,53],"points_earned":254,"trial_type":"horizons-task","trial_index":39,"time_elapsed":619031,"internal_node_id":"0.0-35.0"},{"response_times":[705.1700000010896,533.8599999959115,585.7800000085263,621.9399999972666,1218.9849999995204],"keys_pressed":["leftarrow","leftarrow","rightarrow","rightarrow","leftarrow"],"horizon":5,"forced_choices":["leftarrow","leftarrow","rightarrow","rightarrow"],"right_color":"orange","left_color":"lightblue","left_mu":40,"right_mu":20,"left_numbers":[30,39,39,32,32],"right_numbers":[40,18,15,20,8],"points_earned":136,"trial_type":"horizons-task","trial_index":40,"time_elapsed":624203,"internal_node_id":"0.0-36.0"},{"response_times":[694.9049999966519,566.6550000023562,517.0899999939138,484.6699999907287,1386.3199999905191,325.0750000006519,384.4550000067102,380.94999999157153,421.88000000896864,3173.915000006673],"keys_pressed":["rightarrow","rightarrow","leftarrow","rightarrow","leftarrow","rightarrow","leftarrow","rightarrow","leftarrow","rightarrow"],"horizon":10,"forced_choices":["rightarrow","rightarrow","leftarrow","rightarrow"],"right_color":"orange","left_color":"lightblue","left_mu":60,"right_mu":68,"left_numbers":[76,50,68,70,58,55,49,51,79,68],"right_numbers":[72,70,78,65,65,67,60,79,62,72],"points_earned":679,"trial_type":"horizons-task","trial_index":41,"time_elapsed":634043,"internal_node_id":"0.0-37.0"},{"response_times":[629.9049999943236,596.495000005234,571.9850000023143,637.8450000047451,1625.8099999977276,412.44499999447726,429.6749999921303,556.2900000077207,738.1849999947008,860.5349999997998],"keys_pressed":["rightarrow","rightarrow","rightarrow","leftarrow","rightarrow","leftarrow","rightarrow","leftarrow","rightarrow","rightarrow"],"horizon":10,"forced_choices":["rightarrow","rightarrow","rightarrow","leftarrow"],"right_color":"lightblue","left_color":"orange","left_mu":60,"right_mu":90,"left_numbers":[50,41,60,63,49,52,64,46,67,51],"right_numbers":[110,95,87,80,90,106,82,85,83,100],"points_earned":808,"trial_type":"horizons-task","trial_index":42,"time_elapsed":642606,"internal_node_id":"0.0-38.0"},{"response_times":[620.0600000011036,518.8800000032643,920.975000000908,489.0099999902304,675.6999999925029,368.0400000012014,631.4249999995809,464.1350000019884,538.2649999955902,741.5899999905378],"keys_pressed":["rightarrow","leftarrow","leftarrow","rightarrow","leftarrow","rightarrow","leftarrow","rightarrow","leftarrow","rightarrow"],"horizon":10,"forced_choices":["rightarrow","leftarrow","leftarrow","rightarrow"],"right_color":"lightblue","left_color":"orange","left_mu":40,"right_mu":44,"left_numbers":[43,44,41,41,25,45,51,41,39,42],"right_numbers":[45,51,36,53,59,52,32,37,40,57],"points_earned":444,"trial_type":"horizons-task","trial_index":43,"time_elapsed":650082,"internal_node_id":"0.0-39.0"},{"response_times":[598.8950000028126,432.5799999933224,759.009999994305,491.03000000468455,1977.1699999982957],"keys_pressed":["rightarrow","leftarrow","leftarrow","rightarrow","rightarrow"],"horizon":5,"forced_choices":["rightarrow","leftarrow","leftarrow","rightarrow"],"right_color":"orange","left_color":"lightblue","left_mu":40,"right_mu":48,"left_numbers":[46,49,36,54,44],"right_numbers":[34,48,32,61,52],"points_earned":232,"trial_type":"horizons-task","trial_index":44,"time_elapsed":655846,"internal_node_id":"0.0-40.0"},{"response_times":[663.3050000091316,586.3700000045355,590.2799999894341,515.0100000028033,2110.759999995935],"keys_pressed":["leftarrow","leftarrow","rightarrow","leftarrow","rightarrow"],"horizon":5,"forced_choices":["leftarrow","leftarrow","rightarrow","leftarrow"],"right_color":"orange","left_color":"lightblue","left_mu":40,"right_mu":70,"left_numbers":[47,37,45,25,27],"right_numbers":[59,66,77,68,66],"points_earned":252,"trial_type":"horizons-task","trial_index":45,"time_elapsed":661814,"internal_node_id":"0.0-41.0"},{"response_times":[726.265000004787,481.58500000135973,592.1999999991385,517.7249999978812,532.2350000060396,769.9799999973038,603.7349999969592,486.8599999899743,478.0249999894295,2324.9400000058813],"keys_pressed":["leftarrow","rightarrow","rightarrow","leftarrow","rightarrow","leftarrow","rightarrow","leftarrow","rightarrow","rightarrow"],"horizon":10,"forced_choices":["leftarrow","rightarrow","rightarrow","leftarrow"],"right_color":"lightblue","left_color":"orange","left_mu":40,"right_mu":60,"left_numbers":[26,35,30,33,27,50,42,31,31,29],"right_numbers":[54,55,64,62,49,71,48,58,51,60],"points_earned":467,"trial_type":"horizons-task","trial_index":46,"time_elapsed":670835,"internal_node_id":"0.0-42.0"},{"response_times":[728.2949999935227,421.64499999489635,610.9900000010384,561.9000000006054,2759.2449999938253],"keys_pressed":["leftarrow","rightarrow","rightarrow","rightarrow","leftarrow"],"horizon":5,"forced_choices":["leftarrow","rightarrow","rightarrow","rightarrow"],"right_color":"orange","left_color":"lightblue","left_mu":40,"right_mu":60,"left_numbers":[49,48,51,26,24],"right_numbers":[56,58,61,59,70],"points_earned":251,"trial_type":"horizons-task","trial_index":47,"time_elapsed":677424,"internal_node_id":"0.0-43.0"},{"response_times":[724.6650000015507,528.9849999971921,586.8900000059512,609.1949999972712,1901.9649999972899],"keys_pressed":["leftarrow","leftarrow","rightarrow","rightarrow","leftarrow"],"horizon":5,"forced_choices":["leftarrow","leftarrow","rightarrow","rightarrow"],"right_color":"orange","left_color":"lightblue","left_mu":60,"right_mu":80,"left_numbers":[56,69,67,52,56],"right_numbers":[77,55,78,84,77],"points_earned":343,"trial_type":"horizons-task","trial_index":48,"time_elapsed":683281,"internal_node_id":"0.0-44.0"},{"view_history":"[{\"page_index\":0,\"viewing_time\":2148.5650000104215},{\"page_index\":1,\"viewing_time\":1963.0699999979697}]","rt":4111.950000005891,"trial_type":"instructions","trial_index":49,"time_elapsed":687394,"internal_node_id":"0.0-45.0"},{"response_times":[1280.350000000908,481.66000000492204,437.9649999900721,419.3949999898905,3068.039999998291,306.23499999637716,320.0700000015786,343.90500000154134,358.684999999241,786.3550000038231],"keys_pressed":["leftarrow","rightarrow","leftarrow","rightarrow","leftarrow","rightarrow","leftarrow","rightarrow","leftarrow","rightarrow"],"horizon":10,"forced_choices":["leftarrow","rightarrow","leftarrow","rightarrow"],"right_color":"orange","left_color":"lightblue","left_mu":40,"right_mu":52,"left_numbers":[38,45,40,30,30,46,31,54,31,47],"right_numbers":[52,53,48,60,42,56,48,59,54,55],"points_earned":453,"trial_type":"horizons-task","trial_index":50,"time_elapsed":696702,"internal_node_id":"0.0-46.0"},{"response_times":[638.8000000006286,581.5700000093784,549.9999999883585,472.9149999911897,2825.2449999999953],"keys_pressed":["rightarrow","rightarrow","leftarrow","rightarrow","rightarrow"],"horizon":5,"forced_choices":["rightarrow","rightarrow","leftarrow","rightarrow"],"right_color":"orange","left_color":"lightblue","left_mu":40,"right_mu":20,"left_numbers":[29,46,21,53,24],"right_numbers":[27,17,18,24,26],"points_earned":115,"trial_type":"horizons-task","trial_index":51,"time_elapsed":703273,"internal_node_id":"0.0-47.0"},{"response_times":[577.3100000078557,585.3449999995064,652.1899999934249,659.1649999900255,1294.2600000096718],"keys_pressed":["leftarrow","leftarrow","rightarrow","rightarrow","rightarrow"],"horizon":5,"forced_choices":["leftarrow","leftarrow","rightarrow","rightarrow"],"right_color":"lightblue","left_color":"orange","left_mu":60,"right_mu":72,"left_numbers":[51,56,58,75,49],"right_numbers":[74,57,59,73,89],"points_earned":328,"trial_type":"horizons-task","trial_index":52,"time_elapsed":708548,"internal_node_id":"0.0-48.0"},{"response_times":[564.4250000041211,385.085000001709,390.95000000088476,946.9299999909708,1870.214999988093],"keys_pressed":["rightarrow","leftarrow","rightarrow","rightarrow","leftarrow"],"horizon":5,"forced_choices":["rightarrow","leftarrow","rightarrow","rightarrow"],"right_color":"lightblue","left_color":"orange","left_mu":40,"right_mu":32,"left_numbers":[46,36,37,49,49],"right_numbers":[42,33,35,35,26],"points_earned":197,"trial_type":"horizons-task","trial_index":53,"time_elapsed":714210,"internal_node_id":"0.0-49.0"},{"response_times":[657.91999999783,459.7700000012992,658.8600000104634,798.8749999931315,2620.2249999914784],"keys_pressed":["rightarrow","leftarrow","leftarrow","leftarrow","rightarrow"],"horizon":5,"forced_choices":["rightarrow","leftarrow","leftarrow","leftarrow"],"right_color":"lightblue","left_color":"orange","left_mu":60,"right_mu":68,"left_numbers":[53,62,60,54,63],"right_numbers":[62,60,63,60,69],"points_earned":307,"trial_type":"horizons-task","trial_index":54,"time_elapsed":720909,"internal_node_id":"0.0-50.0"},{"response_times":[765.8799999917392,583.7900000042282,558.6199999961536,633.1599999975879,1213.1099999969592,680.915000004461,1790.949999995064,2407.675000009476,816.8900000018766,952.5850000063656],"keys_pressed":["rightarrow","rightarrow","rightarrow","leftarrow","rightarrow","leftarrow","leftarrow","leftarrow","rightarrow","leftarrow"],"horizon":10,"forced_choices":["rightarrow","rightarrow","rightarrow","leftarrow"],"right_color":"orange","left_color":"lightblue","left_mu":60,"right_mu":52,"left_numbers":[64,64,63,63,55,68,39,75,85,60],"right_numbers":[43,52,53,37,59,68,64,49,53,57],"points_earned":565,"trial_type":"horizons-task","trial_index":55,"time_elapsed":732818,"internal_node_id":"0.0-51.0"},{"response_times":[658.995000005234,547.709999998915,1114.144999999553,488.8199999986682,2589.1199999896344,382.6999999873806,437.7799999929266,462.3049999936484,517.1149999951012,1971.2350000045262],"keys_pressed":["leftarrow","leftarrow","rightarrow","leftarrow","rightarrow","leftarrow","rightarrow","leftarrow","rightarrow","rightarrow"],"horizon":10,"forced_choices":["leftarrow","leftarrow","rightarrow","leftarrow"],"right_color":"orange","left_color":"lightblue","left_mu":40,"right_mu":70,"left_numbers":[52,48,44,28,32,52,43,60,41,25],"right_numbers":[76,71,76,61,59,64,59,70,80,63],"points_earned":577,"trial_type":"horizons-task","trial_index":56,"time_elapsed":743491,"internal_node_id":"0.0-52.0"},{"response_times":[610.2600000012899,468.26000000874046,432.03000001085456,524.8400000127731,2721.3400000036927],"keys_pressed":["leftarrow","rightarrow","leftarrow","rightarrow","leftarrow"],"horizon":5,"forced_choices":["leftarrow","rightarrow","leftarrow","rightarrow"],"right_color":"orange","left_color":"lightblue","left_mu":40,"right_mu":36,"left_numbers":[31,30,44,49,29],"right_numbers":[36,20,31,42,37],"points_earned":166,"trial_type":"horizons-task","trial_index":57,"time_elapsed":749755,"internal_node_id":"0.0-53.0"},{"response_times":[703.4699999931036,432.5899999967078,786.0700000019278,633.7499999935972,2528.600000005099],"keys_pressed":["rightarrow","leftarrow","leftarrow","rightarrow","leftarrow"],"horizon":5,"forced_choices":["rightarrow","leftarrow","leftarrow","rightarrow"],"right_color":"orange","left_color":"lightblue","left_mu":40,"right_mu":28,"left_numbers":[37,41,42,40,57],"right_numbers":[24,36,38,17,42],"points_earned":181,"trial_type":"horizons-task","trial_index":58,"time_elapsed":756343,"internal_node_id":"0.0-54.0"},{"response_times":[585.014999989653,398.4200000122655,634.7800000075949,588.2600000040838,2179.8800000105985],"keys_pressed":["leftarrow","rightarrow","rightarrow","rightarrow","leftarrow"],"horizon":5,"forced_choices":["leftarrow","rightarrow","rightarrow","rightarrow"],"right_color":"orange","left_color":"lightblue","left_mu":40,"right_mu":60,"left_numbers":[50,44,32,42,27],"right_numbers":[62,59,52,75,61],"points_earned":263,"trial_type":"horizons-task","trial_index":59,"time_elapsed":762235,"internal_node_id":"0.0-55.0"},{"response_times":[486.27000000851694,621.0050000081537,443.5949999897275,465.9899999969639,567.1500000025844],"keys_pressed":["rightarrow","rightarrow","leftarrow","rightarrow","leftarrow"],"horizon":5,"forced_choices":["rightarrow","rightarrow","leftarrow","rightarrow"],"right_color":"orange","left_color":"lightblue","left_mu":40,"right_mu":10,"left_numbers":[41,46,43,31,29],"right_numbers":[15,12,0,1,30],"points_earned":100,"trial_type":"horizons-task","trial_index":60,"time_elapsed":766321,"internal_node_id":"0.0-56.0"},{"response_times":[653.890000001411,463.7700000021141,593.9050000015413,627.4649999977555,710.109999999986,316.9250000064494,1026.3449999911245,298.86500000429805,2447.214999992866,1356.9399999978486],"keys_pressed":["leftarrow","rightarrow","rightarrow","rightarrow","leftarrow","rightarrow","leftarrow","leftarrow","leftarrow","leftarrow"],"horizon":10,"forced_choices":["leftarrow","rightarrow","rightarrow","rightarrow"],"right_color":"orange","left_color":"lightblue","left_mu":40,"right_mu":10,"left_numbers":[32,48,42,37,43,50,40,41,40,26],"right_numbers":[7,18,5,22,0,19,0,0,8,13],"points_earned":286,"trial_type":"horizons-task","trial_index":61,"time_elapsed":776324,"internal_node_id":"0.0-57.0"},{"response_times":[752.055000004475,558.5950000095181,611.1749999981839,733.7399999960326,673.9049999887357,907.1049999911338,356.55499999120366,380.0850000116043,408.8550000014948,1935.2900000085356],"keys_pressed":["rightarrow","rightarrow","leftarrow","leftarrow","rightarrow","leftarrow","rightarrow","leftarrow","rightarrow","leftarrow"],"horizon":10,"forced_choices":["rightarrow","rightarrow","leftarrow","leftarrow"],"right_color":"lightblue","left_color":"orange","left_mu":40,"right_mu":20,"left_numbers":[38,55,29,54,38,39,24,26,34,45],"right_numbers":[15,13,28,25,14,34,9,29,23,22],"points_earned":267,"trial_type":"horizons-task","trial_index":62,"time_elapsed":785148,"internal_node_id":"0.0-58.0"},{"response_times":[619.8000000003958,490.46000000089407,504.5699999900535,710.0550000031944,2391.1800000059884],"keys_pressed":["rightarrow","leftarrow","rightarrow","rightarrow","rightarrow"],"horizon":5,"forced_choices":["rightarrow","leftarrow","rightarrow","rightarrow"],"right_color":"lightblue","left_color":"orange","left_mu":40,"right_mu":60,"left_numbers":[49,45,59,30,38],"right_numbers":[50,53,53,48,56],"points_earned":252,"trial_type":"horizons-task","trial_index":63,"time_elapsed":791371,"internal_node_id":"0.0-59.0"},{"response_times":[621.8649999937043,664.1400000080466,539.1950000048382,501.1299999896437,7404.0899999963585,365.25000000256114,497.7800000051502,603.1899999943562,702.3300000000745,1743.9350000058766],"keys_pressed":["leftarrow","leftarrow","rightarrow","leftarrow","rightarrow","leftarrow","rightarrow","leftarrow","rightarrow","leftarrow"],"horizon":10,"forced_choices":["leftarrow","leftarrow","rightarrow","leftarrow"],"right_color":"orange","left_color":"lightblue","left_mu":40,"right_mu":36,"left_numbers":[38,47,46,50,29,37,46,23,42,32],"right_numbers":[39,34,37,30,24,32,49,17,36,43],"points_earned":373,"trial_type":"horizons-task","trial_index":64,"time_elapsed":806519,"internal_node_id":"0.0-60.0"},{"response_times":[712.1449999976903,487.75499999464955,511.87499999650754,854.7900000121444,1263.489999997546,2320.819999993546,398.9749999891501,387.1300000027986,406.48000000510365,1544.7600000043167],"keys_pressed":["rightarrow","leftarrow","rightarrow","rightarrow","leftarrow","rightarrow","leftarrow","rightarrow","leftarrow","leftarrow"],"horizon":10,"forced_choices":["rightarrow","leftarrow","rightarrow","rightarrow"],"right_color":"orange","left_color":"lightblue","left_mu":40,"right_mu":20,"left_numbers":[32,45,45,25,34,28,43,42,40,33],"right_numbers":[18,18,28,26,29,8,23,37,19,16],"points_earned":312,"trial_type":"horizons-task","trial_index":65,"time_elapsed":816919,"internal_node_id":"0.0-61.0"},{"response_times":[706.9000000046799,501.13499999861233,737.089999995078,569.8149999952875,1029.965000008815,432.58000000787433,406.46000001288485,452.48500000161584,6766.115000005811,1641.9299999979557],"keys_pressed":["leftarrow","rightarrow","rightarrow","leftarrow","rightarrow","leftarrow","rightarrow","leftarrow","rightarrow","leftarrow"],"horizon":10,"forced_choices":["leftarrow","rightarrow","rightarrow","leftarrow"],"right_color":"lightblue","left_color":"orange","left_mu":60,"right_mu":40,"left_numbers":[68,63,53,65,66,71,66,58,60,44],"right_numbers":[34,29,51,42,49,44,32,38,37,53],"points_earned":504,"trial_type":"horizons-task","trial_index":66,"time_elapsed":831677,"internal_node_id":"0.0-62.0"},{"response_times":[650.1349999889499,532.164999996894,771.5650000027381,651.7849999945611,5053.495000000112,318.4200000105193,406.4199999993434,413.09499999624677,432.86499999521766,548.9150000066729],"keys_pressed":["rightarrow","rightarrow","leftarrow","leftarrow","rightarrow","leftarrow","rightarrow","leftarrow","rightarrow","rightarrow"],"horizon":10,"forced_choices":["rightarrow","rightarrow","leftarrow","leftarrow"],"right_color":"orange","left_color":"lightblue","left_mu":60,"right_mu":90,"left_numbers":[52,59,64,56,53,51,57,47,67,67],"right_numbers":[97,95,94,102,91,84,92,95,84,89],"points_earned":766,"trial_type":"horizons-task","trial_index":67,"time_elapsed":842964,"internal_node_id":"0.0-63.0"},{"response_times":[588.4249999944586,459.70500000112224,440.13999999151565,516.1050000024261,1014.5950000005541,401.8300000025192,344.0349999873433,536.9749999954365,408.3249999966938,3988.15000000468],"keys_pressed":["rightarrow","leftarrow","rightarrow","leftarrow","rightarrow","leftarrow","rightarrow","leftarrow","rightarrow","rightarrow"],"horizon":10,"forced_choices":["rightarrow","leftarrow","rightarrow","leftarrow"],"right_color":"lightblue","left_color":"orange","left_mu":40,"right_mu":44,"left_numbers":[30,43,36,34,31,49,40,39,37,40],"right_numbers":[37,45,54,32,49,50,35,37,36,47],"points_earned":423,"trial_type":"horizons-task","trial_index":68,"time_elapsed":853171,"internal_node_id":"0.0-64.0"},{"response_times":[875.9849999914877,425.90499999641906,881.9400000065798,633.6950000113575,834.2549999943003,860.6650000001537,637.8550000081304,797.9300000006333,1231.5400000079535,3950.750000003609],"keys_pressed":["rightarrow","leftarrow","leftarrow","leftarrow","rightarrow","rightarrow","rightarrow","leftarrow","leftarrow","leftarrow"],"horizon":10,"forced_choices":["rightarrow","leftarrow","leftarrow","leftarrow"],"right_color":"orange","left_color":"lightblue","left_mu":60,"right_mu":52,"left_numbers":[57,58,50,58,55,67,53,70,67,63],"right_numbers":[68,48,70,43,58,50,62,43,49,43],"points_earned":604,"trial_type":"horizons-task","trial_index":69,"time_elapsed":865809,"internal_node_id":"0.0-65.0"},{"response_times":[836.1349999904633,478.0250000039814,472.68000000622123,543.9499999920372,1672.9449999984354],"keys_pressed":["leftarrow","rightarrow","leftarrow","rightarrow","rightarrow"],"horizon":5,"forced_choices":["leftarrow","rightarrow","leftarrow","rightarrow"],"right_color":"lightblue","left_color":"orange","left_mu":60,"right_mu":90,"left_numbers":[50,48,60,74,50],"right_numbers":[94,89,94,86,86],"points_earned":371,"trial_type":"horizons-task","trial_index":70,"time_elapsed":871316,"internal_node_id":"0.0-66.0"},{"response_times":[757.6899999985471,436.7350000102306,709.8200000036741,601.555000001099,2348.599999997532,1307.4049999995623,4135.00500000373,383.2249999977648,434.5900000043912,4158.8100000080885],"keys_pressed":["rightarrow","leftarrow","leftarrow","leftarrow","rightarrow","rightarrow","leftarrow","rightarrow","leftarrow","leftarrow"],"horizon":10,"forced_choices":["rightarrow","leftarrow","leftarrow","leftarrow"],"right_color":"orange","left_color":"lightblue","left_mu":40,"right_mu":28,"left_numbers":[45,48,55,40,37,47,41,35,34,26],"right_numbers":[31,26,28,30,38,33,35,27,27,36],"points_earned":373,"trial_type":"horizons-task","trial_index":71,"time_elapsed":888096,"internal_node_id":"0.0-67.0"},{"response_times":[816.3749999948777,856.4649999898393,406.44500000053085,745.1599999913014,742.2099999967031,1896.1050000070827,432.63999999908265,1274.7899999958463,415.0999999983469,2800.1799999910872],"keys_pressed":["leftarrow","rightarrow","leftarrow","leftarrow","rightarrow","rightarrow","leftarrow","rightarrow","leftarrow","rightarrow"],"horizon":10,"forced_choices":["leftarrow","rightarrow","leftarrow","leftarrow"],"right_color":"orange","left_color":"lightblue","left_mu":60,"right_mu":80,"left_numbers":[67,61,62,51,42,79,57,67,58,53],"right_numbers":[62,77,74,91,79,86,68,76,73,87],"points_earned":700,"trial_type":"horizons-task","trial_index":72,"time_elapsed":899988,"internal_node_id":"0.0-68.0"},{"response_times":[583.7150000006659,741.5550000005169,550.8750000008149,604.9849999981234,2964.915000004112],"keys_pressed":["rightarrow","rightarrow","rightarrow","leftarrow","leftarrow"],"horizon":5,"forced_choices":["rightarrow","rightarrow","rightarrow","leftarrow"],"right_color":"orange","left_color":"lightblue","left_mu":40,"right_mu":32,"left_numbers":[48,32,37,47,42],"right_numbers":[22,22,29,33,37],"points_earned":162,"trial_type":"horizons-task","trial_index":73,"time_elapsed":906951,"internal_node_id":"0.0-69.0"},{"response_times":[600.8550000115065,521.8499999900814,437.70999999833293,704.9800000095274,1584.80499999132],"keys_pressed":["leftarrow","rightarrow","leftarrow","rightarrow","rightarrow"],"horizon":5,"forced_choices":["leftarrow","rightarrow","leftarrow","rightarrow"],"right_color":"lightblue","left_color":"orange","left_mu":40,"right_mu":32,"left_numbers":[25,41,27,53,43],"right_numbers":[26,32,22,33,24],"points_earned":141,"trial_type":"horizons-task","trial_index":74,"time_elapsed":912308,"internal_node_id":"0.0-70.0"},{"response_times":[691.4399999950547,477.27499999746215,421.88500000338536,450.1200000086101,761.67500000156,420.21500000555534,449.720000004163,449.93000000249594,436.2750000000233,3388.844999994035],"keys_pressed":["leftarrow","rightarrow","leftarrow","rightarrow","leftarrow","rightarrow","leftarrow","rightarrow","leftarrow","leftarrow"],"horizon":10,"forced_choices":["leftarrow","rightarrow","leftarrow","rightarrow"],"right_color":"lightblue","left_color":"orange","left_mu":60,"right_mu":64,"left_numbers":[65,59,64,68,74,53,69,57,53,71],"right_numbers":[54,49,65,56,69,53,71,68,66,59],"points_earned":622,"trial_type":"horizons-task","trial_index":75,"time_elapsed":921760,"internal_node_id":"0.0-71.0"},{"response_times":[620.0450000033015,389.8800000024494,440.0949999981094,948.7349999981234,492.12499998975545,491.729999994277,506.0349999985192,5218.1799999962095,395.26499999919906,2312.130000005709],"keys_pressed":["rightarrow","leftarrow","rightarrow","rightarrow","leftarrow","rightarrow","leftarrow","leftarrow","leftarrow","rightarrow"],"horizon":10,"forced_choices":["rightarrow","leftarrow","rightarrow","rightarrow"],"right_color":"orange","left_color":"lightblue","left_mu":40,"right_mu":70,"left_numbers":[32,40,54,48,36,35,35,22,34,46],"right_numbers":[71,83,70,61,84,86,72,67,68,46],"points_earned":501,"trial_type":"horizons-task","trial_index":76,"time_elapsed":935077,"internal_node_id":"0.0-72.0"},{"response_times":[938.9300000038929,522.609999999986,710.1800000091316,2259.7699999896577,1584.4300000026124],"keys_pressed":["leftarrow","rightarrow","rightarrow","rightarrow","leftarrow"],"horizon":5,"forced_choices":["leftarrow","rightarrow","rightarrow","rightarrow"],"right_color":"orange","left_color":"lightblue","left_mu":60,"right_mu":48,"left_numbers":[55,53,54,44,63],"right_numbers":[46,52,42,65,43],"points_earned":277,"trial_type":"horizons-task","trial_index":77,"time_elapsed":942600,"internal_node_id":"0.0-73.0"},{"response_times":[686.2250000122003,520.924999989802,597.1099999878788,473.824999993667,867.8749999962747,3418.6749999935273,1708.1900000048336,803.3750000031432,603.2850000046892,1334.0850000095088],"keys_pressed":["leftarrow","rightarrow","rightarrow","leftarrow","rightarrow","leftarrow","leftarrow","rightarrow","leftarrow","leftarrow"],"horizon":10,"forced_choices":["leftarrow","rightarrow","rightarrow","leftarrow"],"right_color":"lightblue","left_color":"orange","left_mu":60,"right_mu":56,"left_numbers":[54,55,63,68,84,47,58,55,63,55],"right_numbers":[47,49,53,61,60,66,60,58,50,52],"points_earned":565,"trial_type":"horizons-task","trial_index":78,"time_elapsed":955116,"internal_node_id":"0.0-74.0"},{"response_times":[778.904999999213,454.0199999901233,428.8349999987986,459.4500000093831,1480.054999992717],"keys_pressed":["rightarrow","leftarrow","rightarrow","leftarrow","rightarrow"],"horizon":5,"forced_choices":["rightarrow","leftarrow","rightarrow","leftarrow"],"right_color":"lightblue","left_color":"orange","left_mu":60,"right_mu":80,"left_numbers":[51,65,62,62,67],"right_numbers":[81,76,83,69,75],"points_earned":366,"trial_type":"horizons-task","trial_index":79,"time_elapsed":960220,"internal_node_id":"0.0-75.0"},{"response_times":[936.44000000495,548.2799999881536,537.6350000005914,601.0749999986729,810.0249999988591,277.72500000719447,349.80999999970663,358.85000000416767,355.584999997518,697.5950000050943],"keys_pressed":["leftarrow","leftarrow","rightarrow","rightarrow","leftarrow","rightarrow","leftarrow","rightarrow","leftarrow","rightarrow"],"horizon":10,"forced_choices":["leftarrow","leftarrow","rightarrow","rightarrow"],"right_color":"lightblue","left_color":"orange","left_mu":60,"right_mu":90,"left_numbers":[67,59,56,53,44,67,63,67,54,59],"right_numbers":[97,83,86,92,107,107,83,91,97,99],"points_earned":762,"trial_type":"horizons-task","trial_index":80,"time_elapsed":967196,"internal_node_id":"0.0-76.0"},{"response_times":[660.9599999937927,672.7350000001024,667.9000000003725,603.3800000004703,1059.3949999893084],"keys_pressed":["leftarrow","leftarrow","rightarrow","leftarrow","rightarrow"],"horizon":5,"forced_choices":["leftarrow","leftarrow","rightarrow","leftarrow"],"right_color":"lightblue","left_color":"orange","left_mu":40,"right_mu":70,"left_numbers":[33,29,49,44,62],"right_numbers":[80,79,69,61,71],"points_earned":246,"trial_type":"horizons-task","trial_index":81,"time_elapsed":972363,"internal_node_id":"0.0-77.0"},{"response_times":[810.299999997369,529.7149999969406,643.0050000053598,646.7950000078417,5029.760000004899,845.115000003716,828.815000000759,381.93000000319444,520.924999989802,3180.159999988973],"keys_pressed":["leftarrow","rightarrow","rightarrow","leftarrow","rightarrow","leftarrow","rightarrow","leftarrow","rightarrow","leftarrow"],"horizon":10,"forced_choices":["leftarrow","rightarrow","rightarrow","leftarrow"],"right_color":"orange","left_color":"lightblue","left_mu":60,"right_mu":48,"left_numbers":[60,65,59,53,60,70,66,60,62,72],"right_numbers":[53,61,49,41,54,40,47,46,48,49],"points_earned":574,"trial_type":"horizons-task","trial_index":82,"time_elapsed":987286,"internal_node_id":"0.0-78.0"},{"response_times":[721.3349999947241,432.9600000055507,464.31999999913387,497.0200000097975,1591.0649999859743],"keys_pressed":["leftarrow","rightarrow","leftarrow","rightarrow","rightarrow"],"horizon":5,"forced_choices":["leftarrow","rightarrow","leftarrow","rightarrow"],"right_color":"orange","left_color":"lightblue","left_mu":60,"right_mu":64,"left_numbers":[58,67,63,60,54],"right_numbers":[69,74,72,72,58],"points_earned":325,"trial_type":"horizons-task","trial_index":83,"time_elapsed":992498,"internal_node_id":"0.0-79.0"},{"response_times":[680.4549999942537,483.9300000021467,435.78499999421183,617.2799999912968,3019.029999995837,436.58499998855405,538.910000002943,506.1249999998836,483.8049999962095,2477.295000004233],"keys_pressed":["leftarrow","rightarrow","leftarrow","leftarrow","rightarrow","rightarrow","leftarrow","rightarrow","leftarrow","leftarrow"],"horizon":10,"forced_choices":["leftarrow","rightarrow","leftarrow","leftarrow"],"right_color":"lightblue","left_color":"orange","left_mu":60,"right_mu":52,"left_numbers":[56,67,69,64,52,67,64,55,68,50],"right_numbers":[58,47,53,56,57,55,60,65,55,56],"points_earned":595,"trial_type":"horizons-task","trial_index":84,"time_elapsed":1003682,"internal_node_id":"0.0-80.0"},{"response_times":[649.1749999986496,555.7899999985239,954.9800000095274,523.8099999987753,3566.164999996545],"keys_pressed":["rightarrow","leftarrow","leftarrow","rightarrow","rightarrow"],"horizon":5,"forced_choices":["rightarrow","leftarrow","leftarrow","rightarrow"],"right_color":"lightblue","left_color":"orange","left_mu":40,"right_mu":70,"left_numbers":[52,37,28,32,51],"right_numbers":[72,72,71,63,67],"points_earned":267,"trial_type":"horizons-task","trial_index":85,"time_elapsed":1011437,"internal_node_id":"0.0-81.0"},{"response_times":[589.8450000095181,525.2550000004703,584.0800000005402,1315.1150000048801,1304.8949999938486],"keys_pressed":["leftarrow","leftarrow","leftarrow","rightarrow","rightarrow"],"horizon":5,"forced_choices":["leftarrow","leftarrow","leftarrow","rightarrow"],"right_color":"lightblue","left_color":"orange","left_mu":40,"right_mu":32,"left_numbers":[49,44,42,42,51],"right_numbers":[37,30,35,34,18],"points_earned":187,"trial_type":"horizons-task","trial_index":86,"time_elapsed":1017260,"internal_node_id":"0.0-82.0"},{"response_times":[659.509999997681,416.5450000000419,785.5249999993248,567.8349999943748,1892.3349999968195,374.5199999975739,504.02999999641906,571.8049999995856,1428.1300000002375,3883.735000010347],"keys_pressed":["rightarrow","leftarrow","leftarrow","leftarrow","rightarrow","rightarrow","rightarrow","leftarrow","leftarrow","leftarrow"],"horizon":10,"forced_choices":["rightarrow","leftarrow","leftarrow","leftarrow"],"right_color":"lightblue","left_color":"orange","left_mu":40,"right_mu":48,"left_numbers":[41,38,43,32,43,45,33,45,42,33],"right_numbers":[34,32,47,52,54,33,35,33,51,44],"points_earned":389,"trial_type":"horizons-task","trial_index":87,"time_elapsed":1029848,"internal_node_id":"0.0-83.0"},{"response_times":[588.3249999897089,401.624999998603,335.1249999977881,794.5199999958277,2671.2700000061886,367.69499999354593,395.85999998962507,423.1350000045495,561.0350000060862,748.554999998305],"keys_pressed":["rightarrow","leftarrow","rightarrow","rightarrow","leftarrow","leftarrow","rightarrow","leftarrow","rightarrow","rightarrow"],"horizon":10,"forced_choices":["rightarrow","leftarrow","rightarrow","rightarrow"],"right_color":"orange","left_color":"lightblue","left_mu":60,"right_mu":80,"left_numbers":[59,51,61,62,40,68,50,58,74,66],"right_numbers":[71,80,75,79,79,87,79,75,66,65],"points_earned":652,"trial_type":"horizons-task","trial_index":88,"time_elapsed":1038638,"internal_node_id":"0.0-84.0"},{"response_times":[617.4400000018068,629.9650000000838,506.0949999897275,405.58999999484513,751.8199999904027,296.8200000032084,406.3449999957811,397.8449999995064,470.00000000116415,571.73499999044],"keys_pressed":["leftarrow","rightarrow","leftarrow","rightarrow","leftarrow","rightarrow","leftarrow","rightarrow","leftarrow","leftarrow"],"horizon":10,"forced_choices":["leftarrow","rightarrow","leftarrow","rightarrow"],"right_color":"orange","left_color":"lightblue","left_mu":40,"right_mu":20,"left_numbers":[47,35,29,33,40,37,37,41,53,34],"right_numbers":[15,24,21,3,20,14,35,7,25,7],"points_earned":288,"trial_type":"horizons-task","trial_index":89,"time_elapsed":1045198,"internal_node_id":"0.0-85.0"},{"rt":16805.43999999645,"responses":{"age":"22","gender-categorical":"Female","gender-free-response":"","ethnicity":"Not Hispanic or Latino","race":["Asian"],"language":"Yes","fluency":"Very well"},"survey":"demographics","trial_type":"survey-demo","trial_index":90,"time_elapsed":1062007,"internal_node_id":"0.0-86.0"},{"rt":37091.929999995045,"responses":{"difficulty":"4","fun":"4","clarity":"5","strategy":"try to have same number of known and unknown numbers for the two slots","feedback":"none"},"survey":"debrief","trial_type":"survey-debrief","trial_index":91,"time_elapsed":1099106,"internal_node_id":"0.0-87.0","interactions":"[{\"event\":\"blur\",\"trial\":66,\"time\":823328},{\"event\":\"focus\",\"trial\":66,\"time\":824177},{\"event\":\"blur\",\"trial\":66,\"time\":824357},{\"event\":\"focus\",\"trial\":66,\"time\":827042}]"}]