[{"view_history":"[{\"page_index\":0,\"viewing_time\":1226.9050000004427}]","rt":1227.2649999995338,"trial_type":"instructions","trial_index":0,"time_elapsed":1232,"internal_node_id":"0.0-0.0"},{"item_order":[9,7,0,3,1,10,12,2,15,5,4,16,8,11,6,13,14],"responses":{"Q10":"3","Q08":"3","Q01":"2","Q04":"3","Q02":"2","Q11":"2","Q13":"3","Q03":"3","Q16":"3","Q06":"3","Q05":"3","Q17":"0","Q09":"3","Q12":"3","Q07":"2","Q14":"2","Q15":"2"},"radio_events":[5835.729999999785,8900.279999999839,9788.19999999996,10643.519999999626,11739.89999999958,13459.850000000188,15244.399999999587,18499.735000000328,20907.71500000028,24301.0349999995,27955.75000000008,28443.975000000137,31067.855000000236,33003.78999999975,33827.8049999999,35131.76000000021,36013.339999999516],"key_events":[],"mouse_events":[0.08999999954539817,4851.649999999609,5316.4349999997285,5835.729999999785,8900.279999999839,9788.19999999996,10643.519999999626,11092.034999999669,11739.89999999958,13459.850000000188,15244.399999999587,17827.339999999822,18499.735000000328,20907.71500000028,24301.0349999995,26276.49999999994,27955.75000000008,28443.975000000137,31067.855000000236,33003.78999999975,33827.8049999999,34572.245000000294,35131.76000000021,36013.339999999516,37212.524999999914],"rt":37216.48499999992,"survey":"pswq","trial_type":"survey-template","trial_index":1,"time_elapsed":38453,"internal_node_id":"0.0-1.0"},{"item_order":[6,0,8,7,11,12,5,4,9,10,1,3,2],"responses":{"Q07":"3","Q01":"2","Q09":"2","Q08":"2","Q12":"3","Q13":"4","Q06":"3","Q05":"3","Q10":"3","Q11":"4","Q02":"3","Q04":"4","Q03":"4"},"radio_events":[3967.055000000073,4486.565000000155,5958.695000000262,6399.309999999787,7686.924999999974,9102.380000000267,11278.22500000002,14022.829999999885,16702.084999999897,17158.00500000023,18167.18000000037,18870.574999999917,20382.050000000163],"key_events":[],"mouse_events":[3046.769999999924,3967.055000000073,4486.565000000155,4806.384999999864,5118.449999999939,5958.695000000262,6399.309999999787,6831.135000000359,7222.334999999475,7686.924999999974,9102.380000000267,11278.22500000002,12983.005000000048,13366.25499999991,14022.829999999885,14390.924999999697,15438.594999999623,16062.979999999698,16702.084999999897,17158.00500000023,17566.350000000057,18167.18000000037,18870.574999999917,19214.28999999989,19822.659999999814,20382.050000000163,20910.930000000008],"rt":20913.63999999976,"survey":"ius12","trial_type":"survey-template","trial_index":2,"time_elapsed":59370,"internal_node_id":"0.0-2.0"},{"view_history":"[{\"page_index\":0,\"viewing_time\":1587.3949999995602},{\"page_index\":1,\"viewing_time\":1152.6250000006257},{\"page_index\":2,\"viewing_time\":3222.1499999996013},{\"page_index\":3,\"viewing_time\":784.450000000099},{\"page_index\":4,\"viewing_time\":1112.4049999998533},{\"page_index\":5,\"viewing_time\":1967.6250000002328},{\"page_index\":6,\"viewing_time\":1088.2700000001932},{\"page_index\":7,\"viewing_time\":895.7949999994598},{\"page_index\":8,\"viewing_time\":504.2400000001944},{\"page_index\":9,\"viewing_time\":2247.6349999997183}]","rt":14563.285000000185,"trial_type":"instructions","trial_index":3,"time_elapsed":73935,"internal_node_id":"0.0-3.0-0.0"},{"response_times":[1705.789999999979,551.6499999994121,2331.3750000006694,838.8999999997468,732.744999999326],"keys_pressed":["rightarrow","leftarrow","rightarrow","rightarrow","leftarrow"],"horizon":5,"forced_choices":["rightarrow","leftarrow","rightarrow","rightarrow"],"right_color":"lightblue","left_color":"orange","left_mu":40,"right_mu":20,"left_numbers":[48,46,39,50,42],"right_numbers":[8,25,32,18,14],"points_earned":146,"trial_type":"horizons-task","trial_index":4,"time_elapsed":81608,"internal_node_id":"0.0-3.0-1.0"},{"response_times":[1192.7299999997485,721.9700000005105,524.5750000003754,548.2150000007096,430.8000000000902,667.2400000006601,11.830000000380096,651.7450000001263,14.369999999878928,566.3649999996851],"keys_pressed":["leftarrow","leftarrow","rightarrow","rightarrow","leftarrow","leftarrow","rightarrow","leftarrow","rightarrow","leftarrow"],"horizon":10,"forced_choices":["leftarrow","leftarrow","rightarrow","rightarrow"],"right_color":"orange","left_color":"lightblue","left_mu":60,"right_mu":70,"left_numbers":[74,63,64,61,66,62,54,67,63,58],"right_numbers":[76,64,65,60,68,70,62,73,64,68],"points_earned":641,"trial_type":"horizons-task","trial_index":5,"time_elapsed":88441,"internal_node_id":"0.0-3.0-2.0"},{"view_history":"[{\"page_index\":0,\"viewing_time\":2092.105000000636},{\"page_index\":1,\"viewing_time\":824.2599999994127},{\"page_index\":2,\"viewing_time\":1071.5700000000652},{\"page_index\":3,\"viewing_time\":984.5000000004802}]","rt":4972.625000000349,"trial_type":"instructions","trial_index":6,"time_elapsed":93414,"internal_node_id":"0.0-3.0-3.0"},{"responses":["true","false","true","true"],"num_errors":1,"rt":9014.714999999327,"trial_type":"horizons-comprehension","trial_index":7,"time_elapsed":102432,"internal_node_id":"0.0-3.0-4.0"},{"view_history":"[{\"page_index\":0,\"viewing_time\":1250.8049999996729},{\"page_index\":1,\"viewing_time\":1616.9349999999977}]","rt":2867.949999999837,"trial_type":"instructions","trial_index":8,"time_elapsed":105303,"internal_node_id":"0.0-4.0"},{"response_times":[1350.0349999994796,748.6300000000483,529.625000000131,392.8799999994226,540.8749999996944],"keys_pressed":["rightarrow","rightarrow","rightarrow","leftarrow","leftarrow"],"horizon":5,"forced_choices":["rightarrow","rightarrow","rightarrow","leftarrow"],"right_color":"lightblue","left_color":"orange","left_mu":60,"right_mu":90,"left_numbers":[51,66,52,58,60],"right_numbers":[83,89,89,100,91],"points_earned":379,"trial_type":"horizons-task","trial_index":9,"time_elapsed":110371,"internal_node_id":"0.0-5.0"},{"response_times":[816.8850000001839,306.7399999999907,325.7800000001298,548.2700000002224,446.4149999994406,11.819999999715947,572.8550000003597,17.920000000216532,509.21499999913794,9.820000000210712],"keys_pressed":["leftarrow","rightarrow","leftarrow","leftarrow","leftarrow","rightarrow","leftarrow","rightarrow","leftarrow","rightarrow"],"horizon":10,"forced_choices":["leftarrow","rightarrow","leftarrow","leftarrow"],"right_color":"orange","left_color":"lightblue","left_mu":60,"right_mu":56,"left_numbers":[63,68,59,72,69,56,52,56,51,44],"right_numbers":[82,51,66,58,65,60,62,64,50,52],"points_earned":593,"trial_type":"horizons-task","trial_index":10,"time_elapsed":115440,"internal_node_id":"0.0-6.0"},{"response_times":[601.5250000000524,352.56000000027416,530.5650000000314,522.5499999996828,336.0600000005361],"keys_pressed":["leftarrow","rightarrow","rightarrow","leftarrow","leftarrow"],"horizon":5,"forced_choices":["leftarrow","rightarrow","rightarrow","leftarrow"],"right_color":"lightblue","left_color":"orange","left_mu":40,"right_mu":44,"left_numbers":[45,41,44,35,34],"right_numbers":[48,47,58,33,49],"points_earned":219,"trial_type":"horizons-task","trial_index":11,"time_elapsed":119286,"internal_node_id":"0.0-7.0"},{"response_times":[605.2399999998743,348.9250000002212,512.0649999998859,380.5549999997311,352.874999999578],"keys_pressed":["rightarrow","leftarrow","leftarrow","rightarrow","leftarrow"],"horizon":5,"forced_choices":["rightarrow","leftarrow","leftarrow","rightarrow"],"right_color":"orange","left_color":"lightblue","left_mu":40,"right_mu":28,"left_numbers":[33,29,43,51,40],"right_numbers":[32,28,24,30,22],"points_earned":174,"trial_type":"horizons-task","trial_index":12,"time_elapsed":122988,"internal_node_id":"0.0-8.0"},{"response_times":[1198.1399999995047,498.93999999947846,526.625000000422,430.09500000061234,497.4300000003568,10.655000000042492,695.4550000000454,11.690000000264263,501.2499999993597,12.329999999550637],"keys_pressed":["leftarrow","rightarrow","rightarrow","leftarrow","leftarrow","rightarrow","leftarrow","rightarrow","rightarrow","leftarrow"],"horizon":10,"forced_choices":["leftarrow","rightarrow","rightarrow","leftarrow"],"right_color":"orange","left_color":"lightblue","left_mu":60,"right_mu":40,"left_numbers":[65,63,66,66,46,65,56,54,55,55],"right_numbers":[53,40,41,40,37,36,49,33,25,50],"points_earned":463,"trial_type":"horizons-task","trial_index":13,"time_elapsed":128874,"internal_node_id":"0.0-9.0"},{"response_times":[548.2350000002189,284.9399999995512,455.06500000008964,603.0200000004552,90.09000000060769],"keys_pressed":["rightarrow","leftarrow","leftarrow","leftarrow","rightarrow"],"horizon":5,"forced_choices":["rightarrow","leftarrow","leftarrow","leftarrow"],"right_color":"lightblue","left_color":"orange","left_mu":40,"right_mu":36,"left_numbers":[41,42,41,39,36],"right_numbers":[39,29,49,49,28],"points_earned":189,"trial_type":"horizons-task","trial_index":14,"time_elapsed":132359,"internal_node_id":"0.0-10.0"},{"response_times":[1127.4050000001735,262.915000000241,454.75999999960186,464.2599999997183,85.90000000005239],"keys_pressed":["rightarrow","leftarrow","leftarrow","rightarrow","leftarrow"],"horizon":5,"forced_choices":["rightarrow","leftarrow","leftarrow","rightarrow"],"right_color":"orange","left_color":"lightblue","left_mu":60,"right_mu":48,"left_numbers":[67,61,51,56,51],"right_numbers":[42,48,56,53,35],"points_earned":258,"trial_type":"horizons-task","trial_index":15,"time_elapsed":136256,"internal_node_id":"0.0-11.0"},{"response_times":[507.21499999961816,274.79500000027474,458.47499999945285,625.1249999995634,274.46499999953085],"keys_pressed":["leftarrow","rightarrow","rightarrow","rightarrow","rightarrow"],"horizon":5,"forced_choices":["leftarrow","rightarrow","rightarrow","rightarrow"],"right_color":"lightblue","left_color":"orange","left_mu":60,"right_mu":40,"left_numbers":[68,62,56,62,52],"right_numbers":[37,58,38,55,54],"points_earned":273,"trial_type":"horizons-task","trial_index":16,"time_elapsed":139899,"internal_node_id":"0.0-12.0"},{"response_times":[895.3800000008487,255.52500000048894,304.33999999970547,347.89000000001397,423.8550000000105,16.690000000380678,420.34999999939464,12.29499999951804,371.17000000033295,11.03500000044005],"keys_pressed":["rightarrow","leftarrow","rightarrow","leftarrow","leftarrow","rightarrow","rightarrow","leftarrow","rightarrow","leftarrow"],"horizon":10,"forced_choices":["rightarrow","leftarrow","rightarrow","leftarrow"],"right_color":"orange","left_color":"lightblue","left_mu":60,"right_mu":72,"left_numbers":[41,63,68,57,67,61,62,49,64,59],"right_numbers":[80,80,86,61,72,67,69,88,60,72],"points_earned":657,"trial_type":"horizons-task","trial_index":17,"time_elapsed":144460,"internal_node_id":"0.0-13.0"},{"response_times":[827.560000000638,431.4199999998964,372.3649999992631,533.4100000000035,363.94999999995343],"keys_pressed":["leftarrow","leftarrow","rightarrow","rightarrow","rightarrow"],"horizon":5,"forced_choices":["leftarrow","leftarrow","rightarrow","rightarrow"],"right_color":"orange","left_color":"lightblue","left_mu":60,"right_mu":30,"left_numbers":[70,46,55,59,67],"right_numbers":[23,22,37,32,30],"points_earned":215,"trial_type":"horizons-task","trial_index":18,"time_elapsed":148491,"internal_node_id":"0.0-14.0"},{"response_times":[661.5799999999581,298.6050000008545,295.42000000039116,454.86499999969965,429.62499999976717,11.78499999968335,429.4250000002794,10.874999999941792,369.61500000051456,35.974999999802094],"keys_pressed":["rightarrow","leftarrow","rightarrow","rightarrow","rightarrow","leftarrow","rightarrow","leftarrow","rightarrow","leftarrow"],"horizon":10,"forced_choices":["rightarrow","leftarrow","rightarrow","rightarrow"],"right_color":"lightblue","left_color":"orange","left_mu":60,"right_mu":40,"left_numbers":[49,56,69,69,72,62,73,52,75,59],"right_numbers":[38,50,34,47,43,43,37,35,41,49],"points_earned":469,"trial_type":"horizons-task","trial_index":19,"time_elapsed":152990,"internal_node_id":"0.0-15.0"},{"response_times":[559.4750000000349,411.1750000001921,486.37499999947613,603.8150000004098,590.6850000001141,11.370000000169966,424.5000000000873,23.255000000062864,395.55999999991036,11.454999999841675],"keys_pressed":["rightarrow","rightarrow","leftarrow","leftarrow","rightarrow","leftarrow","rightarrow","leftarrow","rightarrow","leftarrow"],"horizon":10,"forced_choices":["rightarrow","rightarrow","leftarrow","leftarrow"],"right_color":"orange","left_color":"lightblue","left_mu":60,"right_mu":80,"left_numbers":[43,53,54,65,64,56,59,70,47,72],"right_numbers":[90,87,83,92,75,83,86,83,80,75],"points_earned":735,"trial_type":"horizons-task","trial_index":20,"time_elapsed":158012,"internal_node_id":"0.0-16.0"},{"response_times":[532.2549999991606,287.0300000004063,393.0099999997765,336.5450000001292,10.500000000320142,591.1499999992666,15.769999999960419,412.53500000038184,10.284999999363208,442.14999999987776],"keys_pressed":["rightarrow","leftarrow","leftarrow","rightarrow","leftarrow","rightarrow","leftarrow","rightarrow","leftarrow","leftarrow"],"horizon":10,"forced_choices":["rightarrow","leftarrow","leftarrow","rightarrow"],"right_color":"lightblue","left_color":"orange","left_mu":60,"right_mu":56,"left_numbers":[56,61,55,69,74,49,54,61,79,55],"right_numbers":[66,55,60,55,57,52,62,70,51,63],"points_earned":621,"trial_type":"horizons-task","trial_index":21,"time_elapsed":162546,"internal_node_id":"0.0-17.0"},{"response_times":[635.7250000000931,437.0150000004214,295.5449999999546,397.675000000163,497.72500000018044,1100.7649999992282,306.9550000000163,199.53000000078464,129.2149999999092,117.33999999979278],"keys_pressed":["leftarrow","rightarrow","leftarrow","rightarrow","leftarrow","rightarrow","leftarrow","rightarrow","leftarrow","rightarrow"],"horizon":10,"forced_choices":["leftarrow","rightarrow","leftarrow","rightarrow"],"right_color":"lightblue","left_color":"orange","left_mu":40,"right_mu":52,"left_numbers":[29,47,29,29,45,43,26,44,29,30],"right_numbers":[58,63,51,54,57,50,43,40,62,52],"points_earned":417,"trial_type":"horizons-task","trial_index":22,"time_elapsed":168166,"internal_node_id":"0.0-18.0"},{"response_times":[461.1500000000815,565.6349999999511,378.2550000005285,368.0349999995087,118.02499999976135,124.17000000004191,123.35000000076252,352.81499999927473,89.68499999991036,103.81000000052154],"keys_pressed":["leftarrow","leftarrow","leftarrow","rightarrow","leftarrow","rightarrow","leftarrow","rightarrow","leftarrow","rightarrow"],"horizon":10,"forced_choices":["leftarrow","leftarrow","leftarrow","rightarrow"],"right_color":"lightblue","left_color":"orange","left_mu":60,"right_mu":90,"left_numbers":[58,56,56,75,55,75,61,66,64,46],"right_numbers":[96,88,81,85,87,84,102,88,96,75],"points_earned":682,"trial_type":"horizons-task","trial_index":23,"time_elapsed":172352,"internal_node_id":"0.0-19.0"},{"response_times":[480.4899999999034,88.44999999928405,77.9599999996426,148.93000000028405,105.01000000021304,80.70999999926426,78.0299999996787,79.42499999993015,80.46499999999651,77.52499999967404],"keys_pressed":["leftarrow","rightarrow","leftarrow","leftarrow","rightarrow","leftarrow","rightarrow","leftarrow","rightarrow","leftarrow"],"horizon":10,"forced_choices":["leftarrow","rightarrow","leftarrow","leftarrow"],"right_color":"lightblue","left_color":"orange","left_mu":60,"right_mu":48,"left_numbers":[61,47,53,55,65,48,61,60,71,51],"right_numbers":[50,45,41,51,46,62,44,42,51,44],"points_earned":514,"trial_type":"horizons-task","trial_index":24,"time_elapsed":175152,"internal_node_id":"0.0-20.0"},{"response_times":[544.2600000005914,318.48999999964144,288.51000000032946,328.3850000007078,486.9950000002282,143.70500000039465,140.98500000001513,147.03499999994528,148.9350000001432,90.22999999980675],"keys_pressed":["rightarrow","rightarrow","leftarrow","leftarrow","leftarrow","leftarrow","leftarrow","rightarrow","rightarrow","leftarrow"],"horizon":10,"forced_choices":["rightarrow","rightarrow","leftarrow","leftarrow"],"right_color":"orange","left_color":"lightblue","left_mu":40,"right_mu":32,"left_numbers":[33,19,32,43,42,41,34,50,27,40],"right_numbers":[40,31,39,31,38,29,22,33,36,50],"points_earned":372,"trial_type":"horizons-task","trial_index":25,"time_elapsed":179293,"internal_node_id":"0.0-21.0"},{"response_times":[411.22999999969034,208.18999999939115,214.22999999960302,61.21499999973457,254.73499999954947,343.56500000011874,268.88500000041677,297.3649999994377,159.33000000042375,120.42999999993481],"keys_pressed":["rightarrow","rightarrow","rightarrow","leftarrow","rightarrow","rightarrow","rightarrow","rightarrow","rightarrow","rightarrow"],"horizon":10,"forced_choices":["rightarrow","rightarrow","rightarrow","leftarrow"],"right_color":"lightblue","left_color":"orange","left_mu":60,"right_mu":90,"left_numbers":[52,54,68,56,77,55,50,67,55,60],"right_numbers":[98,101,93,84,77,96,88,78,80,79],"points_earned":846,"trial_type":"horizons-task","trial_index":26,"time_elapsed":183136,"internal_node_id":"0.0-22.0"},{"response_times":[749.5899999994435,280.52999999996973,374.6949999995122,588.9749999996566,325.13999999992666,517.5350000008475,318.2800000004354,447.9649999993853,465.61999999993714,733.5549999997893],"keys_pressed":["leftarrow","leftarrow","rightarrow","rightarrow","leftarrow","leftarrow","leftarrow","leftarrow","leftarrow","leftarrow"],"horizon":10,"forced_choices":["leftarrow","leftarrow","rightarrow","rightarrow"],"right_color":"lightblue","left_color":"orange","left_mu":40,"right_mu":28,"left_numbers":[27,32,42,30,45,41,40,56,42,38],"right_numbers":[21,26,26,37,24,31,29,17,21,18],"points_earned":384,"trial_type":"horizons-task","trial_index":27,"time_elapsed":189441,"internal_node_id":"0.0-23.0"},{"response_times":[585.979999999865,464.3849999993108,667.5899999999965,642.7299999995739,473.83999999964726],"keys_pressed":["leftarrow","rightarrow","rightarrow","leftarrow","leftarrow"],"horizon":5,"forced_choices":["leftarrow","rightarrow","rightarrow","leftarrow"],"right_color":"lightblue","left_color":"orange","left_mu":40,"right_mu":10,"left_numbers":[31,36,36,33,28],"right_numbers":[8,0,3,3,9],"points_earned":95,"trial_type":"horizons-task","trial_index":28,"time_elapsed":193778,"internal_node_id":"0.0-24.0"},{"response_times":[607.1749999992026,180.37000000005355,460.8699999998789,614.054999999993,546.0899999998219,371.9350000001141,376.91999999969266,391.4949999998789,164.34000000025844,149.74999999959255],"keys_pressed":["rightarrow","leftarrow","rightarrow","rightarrow","rightarrow","leftarrow","leftarrow","leftarrow","leftarrow","leftarrow"],"horizon":10,"forced_choices":["rightarrow","leftarrow","rightarrow","rightarrow"],"right_color":"lightblue","left_color":"orange","left_mu":60,"right_mu":64,"left_numbers":[66,74,64,70,72,52,64,62,50,62],"right_numbers":[61,75,57,62,59,72,77,58,67,70],"points_earned":603,"trial_type":"horizons-task","trial_index":29,"time_elapsed":199145,"internal_node_id":"0.0-25.0"},{"response_times":[537.6849999993283,140.6749999996391,305.4000000001979,343.1650000002119,246.9350000001141,251.9700000002631,84.18500000063796,264.82500000018626,195.98500000030617,150.24499999982072],"keys_pressed":["leftarrow","leftarrow","rightarrow","rightarrow","rightarrow","rightarrow","leftarrow","rightarrow","rightarrow","leftarrow"],"horizon":10,"forced_choices":["leftarrow","leftarrow","rightarrow","rightarrow"],"right_color":"orange","left_color":"lightblue","left_mu":40,"right_mu":52,"left_numbers":[36,34,46,37,26,26,49,49,33,34],"right_numbers":[43,34,53,53,55,53,48,43,31,57],"points_earned":441,"trial_type":"horizons-task","trial_index":30,"time_elapsed":203170,"internal_node_id":"0.0-26.0"},{"response_times":[321.8550000001269,165.44999999951688,226.30500000013853,111.37999999936437,192.69499999974505],"keys_pressed":["rightarrow","rightarrow","leftarrow","rightarrow","rightarrow"],"horizon":5,"forced_choices":["rightarrow","rightarrow","leftarrow","rightarrow"],"right_color":"orange","left_color":"lightblue","left_mu":40,"right_mu":52,"left_numbers":[44,47,51,44,41],"right_numbers":[48,53,56,63,45],"points_earned":260,"trial_type":"horizons-task","trial_index":31,"time_elapsed":205690,"internal_node_id":"0.0-27.0"},{"response_times":[394.84499999979744,197.6999999996915,123.40999999924679,115.5149999994901,86.01499999986845],"keys_pressed":["rightarrow","leftarrow","rightarrow","leftarrow","rightarrow"],"horizon":5,"forced_choices":["rightarrow","leftarrow","rightarrow","leftarrow"],"right_color":"orange","left_color":"lightblue","left_mu":40,"right_mu":28,"left_numbers":[31,31,44,30,43],"right_numbers":[31,23,32,24,28],"points_earned":152,"trial_type":"horizons-task","trial_index":32,"time_elapsed":208110,"internal_node_id":"0.0-28.0"},{"response_times":[379.9650000000838,318.18000000019674,330.17500000004657,602.570000000007,187.48000000050524,250.57500000001164,132.50000000064028,141.7549999996554,135.38499999957276,139.30999999959022],"keys_pressed":["leftarrow","rightarrow","rightarrow","rightarrow","leftarrow","leftarrow","leftarrow","leftarrow","leftarrow","leftarrow"],"horizon":10,"forced_choices":["leftarrow","rightarrow","rightarrow","rightarrow"],"right_color":"lightblue","left_color":"orange","left_mu":60,"right_mu":40,"left_numbers":[73,54,54,63,50,44,60,64,78,57],"right_numbers":[45,40,37,40,48,44,47,36,34,37],"points_earned":543,"trial_type":"horizons-task","trial_index":33,"time_elapsed":212230,"internal_node_id":"0.0-29.0"},{"response_times":[464.9399999998568,207.07500000027358,97.53999999974621,55.39499999937834,96.86499999952503,92.59000000020023,64.55999999979394,69.5649999997695,60.26500000007218,168.3600000005681],"keys_pressed":["leftarrow","rightarrow","leftarrow","rightarrow","leftarrow","rightarrow","leftarrow","rightarrow","leftarrow","leftarrow"],"horizon":10,"forced_choices":["leftarrow","rightarrow","leftarrow","rightarrow"],"right_color":"lightblue","left_color":"orange","left_mu":40,"right_mu":32,"left_numbers":[28,51,39,37,52,46,47,59,43,39],"right_numbers":[31,40,32,24,43,27,34,53,22,34],"points_earned":392,"trial_type":"horizons-task","trial_index":34,"time_elapsed":215111,"internal_node_id":"0.0-30.0"},{"response_times":[190.08500000016647,88.17999999976018,95.11499999914668,543.8649999996414,180.5549999999057,109.82000000055996,60.735000000015134,153.53499999945052,112.93000000022585,118.70499999987078],"keys_pressed":["leftarrow","rightarrow","leftarrow","rightarrow","leftarrow","rightarrow","leftarrow","leftarrow","leftarrow","rightarrow"],"horizon":10,"forced_choices":["leftarrow","rightarrow","leftarrow","rightarrow"],"right_color":"orange","left_color":"lightblue","left_mu":40,"right_mu":28,"left_numbers":[33,42,37,46,45,35,38,48,43,41],"right_numbers":[14,26,46,32,13,27,18,32,32,20],"points_earned":349,"trial_type":"horizons-task","trial_index":35,"time_elapsed":218268,"internal_node_id":"0.0-31.0"},{"response_times":[156.50499999994645,94.57500000006985,89.46500000002561,169.93000000002212,90.03499999924679,97.58499999952619,85.29499999986729,111.88499999933993,55.40500000005704,92.4199999999255],"keys_pressed":["rightarrow","leftarrow","rightarrow","rightarrow","leftarrow","rightarrow","leftarrow","rightarrow","leftarrow","rightarrow"],"horizon":10,"forced_choices":["rightarrow","leftarrow","rightarrow","rightarrow"],"right_color":"lightblue","left_color":"orange","left_mu":60,"right_mu":52,"left_numbers":[63,53,50,68,61,61,52,65,65,63],"right_numbers":[44,44,59,40,50,48,62,39,47,45],"points_earned":506,"trial_type":"horizons-task","trial_index":36,"time_elapsed":220813,"internal_node_id":"0.0-32.0"},{"response_times":[444.48499999998603,239.78500000067288,254.09499999930267,504.2149999999092,500.8349999998172],"keys_pressed":["rightarrow","leftarrow","rightarrow","rightarrow","rightarrow"],"horizon":5,"forced_choices":["rightarrow","leftarrow","rightarrow","rightarrow"],"right_color":"orange","left_color":"lightblue","left_mu":60,"right_mu":72,"left_numbers":[55,50,63,53,61],"right_numbers":[79,57,73,73,74],"points_earned":349,"trial_type":"horizons-task","trial_index":37,"time_elapsed":224259,"internal_node_id":"0.0-33.0"},{"response_times":[981.2300000003306,455.070000000007,482.1799999999639,394.2350000006554,465.00500000003376],"keys_pressed":["rightarrow","leftarrow","leftarrow","rightarrow","leftarrow"],"horizon":5,"forced_choices":["rightarrow","leftarrow","leftarrow","rightarrow"],"right_color":"lightblue","left_color":"orange","left_mu":60,"right_mu":40,"left_numbers":[50,66,49,62,58],"right_numbers":[46,15,38,38,36],"points_earned":257,"trial_type":"horizons-task","trial_index":38,"time_elapsed":228540,"internal_node_id":"0.0-34.0"},{"response_times":[380.14500000007683,389.15999999971245,420.5199999996694,360.515000000305,436.2650000002759],"keys_pressed":["rightarrow","leftarrow","leftarrow","rightarrow","leftarrow"],"horizon":5,"forced_choices":["rightarrow","leftarrow","leftarrow","rightarrow"],"right_color":"orange","left_color":"lightblue","left_mu":60,"right_mu":56,"left_numbers":[61,54,44,63,56],"right_numbers":[62,54,55,59,52],"points_earned":275,"trial_type":"horizons-task","trial_index":39,"time_elapsed":232031,"internal_node_id":"0.0-35.0"},{"response_times":[515.6950000000652,136.99499999984982,464.93000000010943,457.09499999973923,220.92999999949825],"keys_pressed":["leftarrow","rightarrow","rightarrow","rightarrow","leftarrow"],"horizon":5,"forced_choices":["leftarrow","rightarrow","rightarrow","rightarrow"],"right_color":"orange","left_color":"lightblue","left_mu":40,"right_mu":70,"left_numbers":[41,44,38,38,32],"right_numbers":[64,71,70,78,70],"points_earned":292,"trial_type":"horizons-task","trial_index":40,"time_elapsed":235331,"internal_node_id":"0.0-36.0"},{"response_times":[470.7099999996135,322.6050000002724,515.265000000014,299.4749999998021,275.98500000021886],"keys_pressed":["leftarrow","rightarrow","rightarrow","leftarrow","rightarrow"],"horizon":5,"forced_choices":["leftarrow","rightarrow","rightarrow","leftarrow"],"right_color":"lightblue","left_color":"orange","left_mu":40,"right_mu":20,"left_numbers":[46,36,42,41,48],"right_numbers":[28,33,11,21,11],"points_earned":142,"trial_type":"horizons-task","trial_index":41,"time_elapsed":238717,"internal_node_id":"0.0-37.0"},{"response_times":[541.2449999994133,230.22500000026776,173.11499999958323,319.8350000002247,353.6999999996624],"keys_pressed":["leftarrow","rightarrow","rightarrow","leftarrow","rightarrow"],"horizon":5,"forced_choices":["leftarrow","rightarrow","rightarrow","leftarrow"],"right_color":"orange","left_color":"lightblue","left_mu":40,"right_mu":52,"left_numbers":[38,36,34,39,24],"right_numbers":[51,56,54,48,55],"points_earned":242,"trial_type":"horizons-task","trial_index":42,"time_elapsed":241838,"internal_node_id":"0.0-38.0"},{"response_times":[445.8100000001432,310.24999999953434,247.5199999999022,78.91500000003725,142.41000000038184],"keys_pressed":["leftarrow","rightarrow","leftarrow","rightarrow","leftarrow"],"horizon":5,"forced_choices":["leftarrow","rightarrow","leftarrow","rightarrow"],"right_color":"lightblue","left_color":"orange","left_mu":60,"right_mu":30,"left_numbers":[51,58,47,53,82],"right_numbers":[35,24,37,33,32],"points_earned":237,"trial_type":"horizons-task","trial_index":43,"time_elapsed":244566,"internal_node_id":"0.0-39.0"},{"response_times":[246.47000000005937,132.44000000029337,198.71499999953085,82.10500000041793,135.38499999957276,188.31000000046333,160.92500000013388,476.0550000000803,60.92999999964377,69.40999999915948],"keys_pressed":["leftarrow","leftarrow","rightarrow","leftarrow","leftarrow","leftarrow","leftarrow","leftarrow","rightarrow","leftarrow"],"horizon":10,"forced_choices":["leftarrow","leftarrow","rightarrow","leftarrow"],"right_color":"orange","left_color":"lightblue","left_mu":40,"right_mu":36,"left_numbers":[20,48,30,46,40,47,41,48,56,36],"right_numbers":[34,31,40,37,30,33,40,36,26,46],"points_earned":392,"trial_type":"horizons-task","trial_index":44,"time_elapsed":247821,"internal_node_id":"0.0-40.0"},{"response_times":[416.97500000009313,125.28999999994994,98.3800000003539,58.93000000016764,210.48499999957858],"keys_pressed":["leftarrow","leftarrow","rightarrow","leftarrow","rightarrow"],"horizon":5,"forced_choices":["leftarrow","leftarrow","rightarrow","leftarrow"],"right_color":"orange","left_color":"lightblue","left_mu":60,"right_mu":64,"left_numbers":[66,75,65,59,71],"right_numbers":[62,58,73,57,75],"points_earned":348,"trial_type":"horizons-task","trial_index":45,"time_elapsed":250233,"internal_node_id":"0.0-41.0"},{"response_times":[330.19500000047265,315.23500000004424,181.37500000011642,74.59500000003027,79.55500000025495,189.02500000060536,221.45499999987078,129.3800000002957,162.8049999999348,132.82999999957974],"keys_pressed":["leftarrow","rightarrow","rightarrow","leftarrow","rightarrow","leftarrow","rightarrow","rightarrow","rightarrow","rightarrow"],"horizon":10,"forced_choices":["leftarrow","rightarrow","rightarrow","leftarrow"],"right_color":"orange","left_color":"lightblue","left_mu":40,"right_mu":70,"left_numbers":[31,43,30,39,35,47,40,33,20,45],"right_numbers":[55,65,79,70,75,71,77,71,73,76],"points_earned":633,"trial_type":"horizons-task","trial_index":46,"time_elapsed":253553,"internal_node_id":"0.0-42.0"},{"response_times":[708.3350000002538,519.7800000005518,330.810000000376,529.0899999999965,397.3200000000361],"keys_pressed":["leftarrow","rightarrow","leftarrow","leftarrow","rightarrow"],"horizon":5,"forced_choices":["leftarrow","rightarrow","leftarrow","leftarrow"],"right_color":"lightblue","left_color":"orange","left_mu":40,"right_mu":52,"left_numbers":[44,45,31,54,32],"right_numbers":[57,45,53,51,49],"points_earned":223,"trial_type":"horizons-task","trial_index":47,"time_elapsed":257541,"internal_node_id":"0.0-43.0"},{"response_times":[342.7650000003341,211.69999999983702,163.66500000003725,388.56500000020606,104.37499999988358,143.70499999952153,101.59500000008848,91.26999999990221,183.71500000014203,305.4799999999814],"keys_pressed":["leftarrow","leftarrow","leftarrow","rightarrow","leftarrow","leftarrow","rightarrow","leftarrow","leftarrow","leftarrow"],"horizon":10,"forced_choices":["leftarrow","leftarrow","leftarrow","rightarrow"],"right_color":"orange","left_color":"lightblue","left_mu":60,"right_mu":56,"left_numbers":[51,58,65,55,61,72,48,53,51,54],"right_numbers":[55,56,44,52,68,58,39,46,43,57],"points_earned":556,"trial_type":"horizons-task","trial_index":48,"time_elapsed":261080,"internal_node_id":"0.0-44.0"},{"view_history":"[{\"page_index\":0,\"viewing_time\":2116.5750000000116},{\"page_index\":1,\"viewing_time\":1631.7900000003283}]","rt":3748.70000000007,"trial_type":"instructions","trial_index":49,"time_elapsed":264830,"internal_node_id":"0.0-45.0"},{"response_times":[1010.3049999998184,339.5950000003795,195.2399999999907,75.77500000025611,402.57500000006985,92.29499999951804,95.69999999983702,95.23999999969965,96.01500000007218,446.35000000015134],"keys_pressed":["rightarrow","leftarrow","leftarrow","rightarrow","rightarrow","leftarrow","rightarrow","leftarrow","rightarrow","leftarrow"],"horizon":10,"forced_choices":["rightarrow","leftarrow","leftarrow","rightarrow"],"right_color":"lightblue","left_color":"orange","left_mu":40,"right_mu":32,"left_numbers":[41,24,44,34,25,30,23,44,38,39],"right_numbers":[38,22,24,14,37,33,22,33,37,45],"points_earned":329,"trial_type":"horizons-task","trial_index":50,"time_elapsed":269186,"internal_node_id":"0.0-46.0"},{"response_times":[328.8750000001746,509.0949999994482,253.60000000003492,98.50499999994645,56.49499999982072,263.9399999998277,207.58500000007916,176.26500000007218,146.30500000022585,58.3800000003539],"keys_pressed":["rightarrow","leftarrow","rightarrow","leftarrow","rightarrow","rightarrow","leftarrow","leftarrow","rightarrow","leftarrow"],"horizon":10,"forced_choices":["rightarrow","leftarrow","rightarrow","leftarrow"],"right_color":"lightblue","left_color":"orange","left_mu":60,"right_mu":40,"left_numbers":[60,53,57,54,65,72,76,54,78,56],"right_numbers":[49,45,44,33,39,27,39,30,29,34],"points_earned":481,"trial_type":"horizons-task","trial_index":51,"time_elapsed":272788,"internal_node_id":"0.0-47.0"},{"response_times":[271.1699999999837,157.59499999968102,229.04000000015367,777.5099999998929,210.53000000026077],"keys_pressed":["leftarrow","leftarrow","leftarrow","rightarrow","leftarrow"],"horizon":5,"forced_choices":["leftarrow","leftarrow","leftarrow","rightarrow"],"right_color":"orange","left_color":"lightblue","left_mu":40,"right_mu":44,"left_numbers":[37,32,49,38,48],"right_numbers":[40,27,38,45,36],"points_earned":211,"trial_type":"horizons-task","trial_index":52,"time_elapsed":275937,"internal_node_id":"0.0-48.0"},{"response_times":[301.2100000005448,98.05500000040047,165.07999999972526,209.78000000014435,67.34999999933643,90.39499999926193,77.87999999983003,95.31499999953667,67.19999999948777,151.32499999983702],"keys_pressed":["leftarrow","leftarrow","rightarrow","rightarrow","leftarrow","rightarrow","leftarrow","rightarrow","leftarrow","leftarrow"],"horizon":10,"forced_choices":["leftarrow","leftarrow","rightarrow","rightarrow"],"right_color":"orange","left_color":"lightblue","left_mu":40,"right_mu":32,"left_numbers":[26,36,48,43,51,33,50,34,28,43],"right_numbers":[29,35,39,30,26,31,33,46,44,27],"points_earned":380,"trial_type":"horizons-task","trial_index":53,"time_elapsed":278763,"internal_node_id":"0.0-49.0"},{"response_times":[342.7899999997462,91.69500000006519,68.75000000034925,137.96999999979744,97.66500000021188],"keys_pressed":["leftarrow","rightarrow","leftarrow","leftarrow","rightarrow"],"horizon":5,"forced_choices":["leftarrow","rightarrow","leftarrow","leftarrow"],"right_color":"lightblue","left_color":"orange","left_mu":60,"right_mu":40,"left_numbers":[45,68,58,60,55],"right_numbers":[36,37,33,48,41],"points_earned":241,"trial_type":"horizons-task","trial_index":54,"time_elapsed":281005,"internal_node_id":"0.0-50.0"},{"response_times":[438.83499999996275,166.30499999970198,85.7700000006007,106.31999999983236,304.1849999999977],"keys_pressed":["rightarrow","rightarrow","leftarrow","rightarrow","rightarrow"],"horizon":5,"forced_choices":["rightarrow","rightarrow","leftarrow","rightarrow"],"right_color":"orange","left_color":"lightblue","left_mu":40,"right_mu":48,"left_numbers":[37,48,40,35,50],"right_numbers":[46,46,61,38,29],"points_earned":199,"trial_type":"horizons-task","trial_index":55,"time_elapsed":283609,"internal_node_id":"0.0-51.0"},{"response_times":[427.5299999999115,131.84499999985565,112.51999999966938,569.2799999997369,477.44999999942956],"keys_pressed":["leftarrow","leftarrow","rightarrow","leftarrow","rightarrow"],"horizon":5,"forced_choices":["leftarrow","leftarrow","rightarrow","leftarrow"],"right_color":"lightblue","left_color":"orange","left_mu":60,"right_mu":64,"left_numbers":[45,55,64,54,52],"right_numbers":[63,59,64,58,57],"points_earned":275,"trial_type":"horizons-task","trial_index":56,"time_elapsed":286830,"internal_node_id":"0.0-52.0"},{"response_times":[398.210000000312,374.77000000030966,409.8949999997858,411.9000000000233,272.13500000012573,121.11999999982072,172.48499999917112,153.72500000009313,158.5050000002957,156.14500000083353],"keys_pressed":["leftarrow","rightarrow","rightarrow","rightarrow","rightarrow","leftarrow","leftarrow","leftarrow","leftarrow","leftarrow"],"horizon":10,"forced_choices":["leftarrow","rightarrow","rightarrow","rightarrow"],"right_color":"lightblue","left_color":"orange","left_mu":40,"right_mu":28,"left_numbers":[49,45,38,38,34,27,34,33,44,42],"right_numbers":[27,13,41,26,28,38,24,20,17,10],"points_earned":337,"trial_type":"horizons-task","trial_index":57,"time_elapsed":290963,"internal_node_id":"0.0-53.0"},{"response_times":[483.65499999996973,311.5150000003632,504.5350000000326,198.91999999980908,309.565000000468],"keys_pressed":["leftarrow","rightarrow","rightarrow","leftarrow","leftarrow"],"horizon":5,"forced_choices":["leftarrow","rightarrow","rightarrow","leftarrow"],"right_color":"lightblue","left_color":"orange","left_mu":40,"right_mu":60,"left_numbers":[45,48,33,42,32],"right_numbers":[70,65,35,62,54],"points_earned":219,"trial_type":"horizons-task","trial_index":58,"time_elapsed":294274,"internal_node_id":"0.0-54.0"},{"response_times":[751.2100000003702,291.65500000002794,122.55499999993481,33.30999999982305,114.86499999952503,78.24999999959255,74.41500000003725,69.26500000007218,82.39000000047963,134.24000000033993],"keys_pressed":["leftarrow","rightarrow","leftarrow","rightarrow","leftarrow","rightarrow","leftarrow","rightarrow","leftarrow","leftarrow"],"horizon":10,"forced_choices":["leftarrow","rightarrow","leftarrow","rightarrow"],"right_color":"lightblue","left_color":"orange","left_mu":60,"right_mu":48,"left_numbers":[46,63,67,70,72,70,69,71,44,57],"right_numbers":[39,53,41,55,69,53,38,60,48,42],"points_earned":576,"trial_type":"horizons-task","trial_index":59,"time_elapsed":297530,"internal_node_id":"0.0-55.0"},{"response_times":[852.6149999997579,263.60499999916647,313.05000000068685,312.92000000033295,96.90499999944586,69.48499999998603,169.18500000063796,10.760000000125729,199.61499999952503,163.504999999539],"keys_pressed":["leftarrow","rightarrow","rightarrow","rightarrow","leftarrow","rightarrow","leftarrow","rightarrow","rightarrow","leftarrow"],"horizon":10,"forced_choices":["leftarrow","rightarrow","rightarrow","rightarrow"],"right_color":"lightblue","left_color":"orange","left_mu":40,"right_mu":10,"left_numbers":[38,41,55,31,31,55,51,36,49,39],"right_numbers":[5,7,12,1,15,9,5,10,12,20],"points_earned":210,"trial_type":"horizons-task","trial_index":60,"time_elapsed":301485,"internal_node_id":"0.0-56.0"},{"response_times":[423.27999999996973,237.75000000023283,128.40500000037719,167.19499999994878,109.07500000030268,105.86999999941327,164.94500000047265,108.98999999975786,86.94999999989523,164.10500000073807],"keys_pressed":["rightarrow","rightarrow","leftarrow","leftarrow","rightarrow","leftarrow","leftarrow","rightarrow","leftarrow","leftarrow"],"horizon":10,"forced_choices":["rightarrow","rightarrow","leftarrow","leftarrow"],"right_color":"orange","left_color":"lightblue","left_mu":60,"right_mu":68,"left_numbers":[75,67,65,56,60,70,69,54,60,63],"right_numbers":[63,72,69,70,61,62,70,75,72,70],"points_earned":654,"trial_type":"horizons-task","trial_index":61,"time_elapsed":304685,"internal_node_id":"0.0-57.0"},{"response_times":[324.3149999998277,236.2499999999418,262.9749999996857,80.89500000001863,84.58000000059837,80.38999999919906,88.48500000021886,62.3349999996135,95.39499999937834,187.29499999975087],"keys_pressed":["rightarrow","rightarrow","rightarrow","leftarrow","rightarrow","leftarrow","rightarrow","leftarrow","rightarrow","rightarrow"],"horizon":10,"forced_choices":["rightarrow","rightarrow","rightarrow","leftarrow"],"right_color":"lightblue","left_color":"orange","left_mu":60,"right_mu":80,"left_numbers":[60,64,62,45,61,61,58,57,56,54],"right_numbers":[90,73,96,76,67,85,82,76,71,80],"points_earned":722,"trial_type":"horizons-task","trial_index":62,"time_elapsed":307690,"internal_node_id":"0.0-58.0"},{"response_times":[411.7850000002654,242.5699999994249,50.06000000052154,217.56000000005588,88.48500000021886],"keys_pressed":["rightarrow","leftarrow","rightarrow","rightarrow","leftarrow"],"horizon":5,"forced_choices":["rightarrow","leftarrow","rightarrow","rightarrow"],"right_color":"lightblue","left_color":"orange","left_mu":40,"right_mu":20,"left_numbers":[26,38,41,32,30],"right_numbers":[46,16,24,20,19],"points_earned":158,"trial_type":"horizons-task","trial_index":63,"time_elapsed":310205,"internal_node_id":"0.0-59.0"},{"response_times":[440.5350000006147,155.35499999986496,216.10500000044703,103.11999999976251,94.26499999972293,78.2449999997043,112.55999999959022,56.630000000062864,50.31000000052154,332.6600000000326],"keys_pressed":["leftarrow","leftarrow","rightarrow","leftarrow","rightarrow","leftarrow","rightarrow","leftarrow","rightarrow","rightarrow"],"horizon":10,"forced_choices":["leftarrow","leftarrow","rightarrow","leftarrow"],"right_color":"lightblue","left_color":"orange","left_mu":40,"right_mu":28,"left_numbers":[45,43,45,33,38,34,40,27,40,31],"right_numbers":[24,28,24,34,30,27,34,31,32,22],"points_earned":324,"trial_type":"horizons-task","trial_index":64,"time_elapsed":313348,"internal_node_id":"0.0-60.0"},{"response_times":[494.1449999996694,549.3099999994156,193.4499999997206,162.41499999980442,115.70500000013271],"keys_pressed":["rightarrow","rightarrow","leftarrow","rightarrow","leftarrow"],"horizon":5,"forced_choices":["rightarrow","rightarrow","leftarrow","rightarrow"],"right_color":"lightblue","left_color":"orange","left_mu":60,"right_mu":56,"left_numbers":[61,72,58,47,60],"right_numbers":[59,57,51,57,42],"points_earned":291,"trial_type":"horizons-task","trial_index":65,"time_elapsed":316365,"internal_node_id":"0.0-61.0"},{"response_times":[298.64000000001397,272.1799999999348,674.3649999998743,429.62499999976717,446.73499999952037],"keys_pressed":["rightarrow","rightarrow","leftarrow","leftarrow","leftarrow"],"horizon":5,"forced_choices":["rightarrow","rightarrow","leftarrow","leftarrow"],"right_color":"lightblue","left_color":"orange","left_mu":60,"right_mu":48,"left_numbers":[52,52,64,61,64],"right_numbers":[37,50,57,30,50],"points_earned":276,"trial_type":"horizons-task","trial_index":66,"time_elapsed":319988,"internal_node_id":"0.0-62.0"},{"response_times":[431.85499999980675,495.1049999999814,439.96499999955995,653.699999999837,421.3799999997718,182.35000000003492,254.33999999950174,159.87500000029104,340.0449999999255,314.66999999975087],"keys_pressed":["rightarrow","rightarrow","leftarrow","rightarrow","leftarrow","rightarrow","rightarrow","rightarrow","rightarrow","rightarrow"],"horizon":10,"forced_choices":["rightarrow","rightarrow","leftarrow","rightarrow"],"right_color":"lightblue","left_color":"orange","left_mu":60,"right_mu":68,"left_numbers":[41,63,55,75,65,61,65,51,55,70],"right_numbers":[69,78,76,56,55,57,68,71,71,69],"points_earned":659,"trial_type":"horizons-task","trial_index":67,"time_elapsed":325186,"internal_node_id":"0.0-63.0"},{"response_times":[414.35499999992317,564.3650000002235,336.2699999997858,405.75999999966007,1339.5250000003143],"keys_pressed":["leftarrow","leftarrow","leftarrow","rightarrow","leftarrow"],"horizon":5,"forced_choices":["leftarrow","leftarrow","leftarrow","rightarrow"],"right_color":"lightblue","left_color":"orange","left_mu":60,"right_mu":72,"left_numbers":[66,56,42,65,67],"right_numbers":[66,62,75,63,70],"points_earned":294,"trial_type":"horizons-task","trial_index":68,"time_elapsed":329749,"internal_node_id":"0.0-64.0"},{"response_times":[556.4150000000373,519.2499999994179,359.73999999987427,476.8700000004028,208.12999999994645],"keys_pressed":["leftarrow","rightarrow","leftarrow","rightarrow","rightarrow"],"horizon":5,"forced_choices":["leftarrow","rightarrow","leftarrow","rightarrow"],"right_color":"orange","left_color":"lightblue","left_mu":60,"right_mu":80,"left_numbers":[77,56,63,64,73],"right_numbers":[75,87,76,87,77],"points_earned":391,"trial_type":"horizons-task","trial_index":69,"time_elapsed":333372,"internal_node_id":"0.0-65.0"},{"response_times":[489.6699999999255,429.86000000021886,284.0399999995134,321.46999999985565,409.43999999942025],"keys_pressed":["leftarrow","rightarrow","leftarrow","rightarrow","leftarrow"],"horizon":5,"forced_choices":["leftarrow","rightarrow","leftarrow","rightarrow"],"right_color":"lightblue","left_color":"orange","left_mu":60,"right_mu":80,"left_numbers":[70,83,71,59,52],"right_numbers":[71,91,88,86,69],"points_earned":370,"trial_type":"horizons-task","trial_index":70,"time_elapsed":336810,"internal_node_id":"0.0-66.0"},{"response_times":[370.44500000053085,239.00999999931082,288.91500000009546,240.1449999997858,108.81499999959487,75.40499999956228,182.38000000017928,144.339999999851,105.49999999970896,149.9100000000908],"keys_pressed":["leftarrow","rightarrow","leftarrow","rightarrow","leftarrow","rightarrow","rightarrow","rightarrow","rightarrow","rightarrow"],"horizon":10,"forced_choices":["leftarrow","rightarrow","leftarrow","rightarrow"],"right_color":"orange","left_color":"lightblue","left_mu":60,"right_mu":80,"left_numbers":[50,53,28,48,71,67,58,40,64,65],"right_numbers":[75,87,65,75,68,78,74,79,91,76],"points_earned":709,"trial_type":"horizons-task","trial_index":71,"time_elapsed":340218,"internal_node_id":"0.0-67.0"},{"response_times":[539.2400000001071,125.0350000000326,857.0100000006496,126.23000000079628,171.47999999998137],"keys_pressed":["rightarrow","rightarrow","leftarrow","rightarrow","rightarrow"],"horizon":5,"forced_choices":["rightarrow","rightarrow","leftarrow","rightarrow"],"right_color":"orange","left_color":"lightblue","left_mu":60,"right_mu":90,"left_numbers":[67,48,53,61,66],"right_numbers":[101,86,103,84,90],"points_earned":414,"trial_type":"horizons-task","trial_index":72,"time_elapsed":343540,"internal_node_id":"0.0-68.0"},{"response_times":[342.6800000006915,311.45000000018626,192.86999999982072,96.87000000034459,209.7049999993178],"keys_pressed":["leftarrow","leftarrow","leftarrow","rightarrow","rightarrow"],"horizon":5,"forced_choices":["leftarrow","leftarrow","leftarrow","rightarrow"],"right_color":"orange","left_color":"lightblue","left_mu":60,"right_mu":80,"left_numbers":[38,52,48,49,56],"right_numbers":[65,77,82,85,84],"points_earned":307,"trial_type":"horizons-task","trial_index":73,"time_elapsed":346195,"internal_node_id":"0.0-69.0"},{"response_times":[387.1349999999511,492.78500000038184,136.8849999998929,577.5400000002119,187.7150000000256],"keys_pressed":["rightarrow","leftarrow","rightarrow","rightarrow","rightarrow"],"horizon":5,"forced_choices":["rightarrow","leftarrow","rightarrow","rightarrow"],"right_color":"orange","left_color":"lightblue","left_mu":40,"right_mu":44,"left_numbers":[41,28,42,39,47],"right_numbers":[58,41,45,50,70],"points_earned":251,"trial_type":"horizons-task","trial_index":74,"time_elapsed":349478,"internal_node_id":"0.0-70.0"},{"response_times":[344.530000000319,319.72500000026776,150.20999999978812,88.8349999995553,99.37499999976717],"keys_pressed":["leftarrow","leftarrow","leftarrow","rightarrow","leftarrow"],"horizon":5,"forced_choices":["leftarrow","leftarrow","leftarrow","rightarrow"],"right_color":"orange","left_color":"lightblue","left_mu":40,"right_mu":60,"left_numbers":[45,47,54,43,37],"right_numbers":[62,57,70,68,49],"points_earned":251,"trial_type":"horizons-task","trial_index":75,"time_elapsed":351983,"internal_node_id":"0.0-71.0"},{"response_times":[302.6550000004354,179.4999999993015,118.29500000021653,154.125,176.26999999996042,62.22499999968568,172.49999999970896,124.36499999969965,164.72499999962747,152.48999999946682],"keys_pressed":["leftarrow","rightarrow","leftarrow","leftarrow","leftarrow","rightarrow","rightarrow","rightarrow","leftarrow","leftarrow"],"horizon":10,"forced_choices":["leftarrow","rightarrow","leftarrow","leftarrow"],"right_color":"lightblue","left_color":"orange","left_mu":40,"right_mu":48,"left_numbers":[41,37,50,44,45,40,43,41,48,46],"right_numbers":[51,33,53,42,51,45,33,59,44,66],"points_earned":444,"trial_type":"horizons-task","trial_index":76,"time_elapsed":355093,"internal_node_id":"0.0-72.0"},{"response_times":[356.49499999999534,423.3350000004284,119.7400000001071,72.36000000016065,87.97000000055414],"keys_pressed":["rightarrow","leftarrow","rightarrow","leftarrow","rightarrow"],"horizon":5,"forced_choices":["rightarrow","leftarrow","rightarrow","leftarrow"],"right_color":"orange","left_color":"lightblue","left_mu":60,"right_mu":64,"left_numbers":[50,51,56,58,49],"right_numbers":[56,58,59,52,95],"points_earned":319,"trial_type":"horizons-task","trial_index":77,"time_elapsed":357657,"internal_node_id":"0.0-73.0"},{"response_times":[292.95000000001164,240.2400000001071,205.3699999996461,236.99000000028173,188.81000000052154,197.59500000055414,138.17000000015832,124.92999999999302,115.35499999992317,76.355000000156],"keys_pressed":["rightarrow","rightarrow","leftarrow","leftarrow","rightarrow","leftarrow","rightarrow","leftarrow","rightarrow","leftarrow"],"horizon":10,"forced_choices":["rightarrow","rightarrow","leftarrow","leftarrow"],"right_color":"lightblue","left_color":"orange","left_mu":40,"right_mu":44,"left_numbers":[27,36,36,44,43,29,51,43,36,30],"right_numbers":[44,39,40,53,54,40,61,53,32,30],"points_earned":412,"trial_type":"horizons-task","trial_index":78,"time_elapsed":360976,"internal_node_id":"0.0-74.0"},{"response_times":[396.66499999933876,63.49000000045635,86.06500000040978,168.23500000010245,91.8499999998021,67.7700000005425,79.92499999998836,87.56999999971595,82.7900000003865,384.9000000000233],"keys_pressed":["rightarrow","leftarrow","rightarrow","rightarrow","leftarrow","rightarrow","leftarrow","rightarrow","leftarrow","leftarrow"],"horizon":10,"forced_choices":["rightarrow","leftarrow","rightarrow","rightarrow"],"right_color":"lightblue","left_color":"orange","left_mu":60,"right_mu":40,"left_numbers":[49,59,57,66,68,57,51,53,69,58],"right_numbers":[29,47,28,27,35,45,38,48,48,33],"points_earned":482,"trial_type":"horizons-task","trial_index":79,"time_elapsed":363988,"internal_node_id":"0.0-75.0"},{"response_times":[61.960000000020955,290.9500000005355,196.38500000018394,197.7100000003702,83.02000000001863,224.39500000019325,155.92500000004657,67.605000000156,127.22500000020955,283.7099999996717],"keys_pressed":["leftarrow","leftarrow","leftarrow","rightarrow","leftarrow","leftarrow","leftarrow","rightarrow","leftarrow","leftarrow"],"horizon":10,"forced_choices":["leftarrow","leftarrow","leftarrow","rightarrow"],"right_color":"orange","left_color":"lightblue","left_mu":60,"right_mu":56,"left_numbers":[61,61,57,64,60,59,52,68,57,46],"right_numbers":[60,56,58,52,44,60,56,58,66,69],"points_earned":563,"trial_type":"horizons-task","trial_index":80,"time_elapsed":367180,"internal_node_id":"0.0-76.0"},{"response_times":[376.80999999976484,79.20000000012806,58.410000000556465,81.64500000019325,64.39499999937834],"keys_pressed":["leftarrow","rightarrow","leftarrow","rightarrow","leftarrow"],"horizon":5,"forced_choices":["leftarrow","rightarrow","leftarrow","rightarrow"],"right_color":"orange","left_color":"lightblue","left_mu":40,"right_mu":52,"left_numbers":[35,38,50,46,31],"right_numbers":[49,63,51,44,57],"points_earned":223,"trial_type":"horizons-task","trial_index":81,"time_elapsed":369343,"internal_node_id":"0.0-77.0"},{"response_times":[300.03999999916414,166.2600000000093,511.6850000004051,229.47999999998137,193.6150000001071,90.68000000022585,255.17999999923632,185.65000000037253,51.62999999988824,122.44000000011874],"keys_pressed":["leftarrow","leftarrow","rightarrow","leftarrow","rightarrow","leftarrow","leftarrow","rightarrow","leftarrow","rightarrow"],"horizon":10,"forced_choices":["leftarrow","leftarrow","rightarrow","leftarrow"],"right_color":"lightblue","left_color":"orange","left_mu":60,"right_mu":72,"left_numbers":[48,66,59,63,55,75,62,51,57,56],"right_numbers":[63,78,68,66,72,80,85,66,71,76],"points_earned":653,"trial_type":"horizons-task","trial_index":82,"time_elapsed":372952,"internal_node_id":"0.0-78.0"},{"response_times":[333.050000000163,226.16500000003725,117.98999999975786,181.38000000000466,562.0349999999162],"keys_pressed":["rightarrow","rightarrow","leftarrow","leftarrow","leftarrow"],"horizon":5,"forced_choices":["rightarrow","rightarrow","leftarrow","leftarrow"],"right_color":"orange","left_color":"lightblue","left_mu":40,"right_mu":10,"left_numbers":[46,44,40,46,42],"right_numbers":[3,30,16,22,8],"points_earned":161,"trial_type":"horizons-task","trial_index":83,"time_elapsed":375875,"internal_node_id":"0.0-79.0"},{"response_times":[359.0750000003027,202.52999999956228,245.3450000002631,103.72499999991851,128.41500000015367,52.579999999608845,119.35999999963678,89.63499999936903,206.18499999999767,505.38499999942724],"keys_pressed":["leftarrow","leftarrow","rightarrow","leftarrow","rightarrow","leftarrow","rightarrow","leftarrow","leftarrow","leftarrow"],"horizon":10,"forced_choices":["leftarrow","leftarrow","rightarrow","leftarrow"],"right_color":"orange","left_color":"lightblue","left_mu":40,"right_mu":28,"left_numbers":[24,41,42,33,38,42,31,41,35,25],"right_numbers":[24,27,22,16,30,22,34,23,38,22],"points_earned":327,"trial_type":"horizons-task","trial_index":84,"time_elapsed":379390,"internal_node_id":"0.0-80.0"},{"response_times":[450.89999999979045,32.72999999986496,333.8450000001467,60.980000000214204,397.01500000047963],"keys_pressed":["leftarrow","rightarrow","rightarrow","leftarrow","leftarrow"],"horizon":5,"forced_choices":["leftarrow","rightarrow","rightarrow","leftarrow"],"right_color":"lightblue","left_color":"orange","left_mu":40,"right_mu":60,"left_numbers":[39,41,38,30,30],"right_numbers":[54,59,68,66,51],"points_earned":226,"trial_type":"horizons-task","trial_index":85,"time_elapsed":382167,"internal_node_id":"0.0-81.0"},{"response_times":[298.81499999924563,364.5500000002794,296.4499999997788,10.21499999932712,225.43000000040047,19.224999999976717,141.230000000156,12.67499999993015,123.03499999962514,10.764999999955762],"keys_pressed":["rightarrow","leftarrow","rightarrow","leftarrow","rightarrow","leftarrow","rightarrow","leftarrow","leftarrow","rightarrow"],"horizon":10,"forced_choices":["rightarrow","leftarrow","rightarrow","leftarrow"],"right_color":"orange","left_color":"lightblue","left_mu":60,"right_mu":40,"left_numbers":[56,62,59,78,74,54,57,48,71,68],"right_numbers":[39,45,43,51,50,46,46,44,46,31],"points_earned":522,"trial_type":"horizons-task","trial_index":86,"time_elapsed":385174,"internal_node_id":"0.0-82.0"},{"response_times":[382.7850000007311,201.35000000026776,83.9550000000745,106.90000000072177,108.98499999981141],"keys_pressed":["rightarrow","rightarrow","leftarrow","leftarrow","rightarrow"],"horizon":5,"forced_choices":["rightarrow","rightarrow","leftarrow","leftarrow"],"right_color":"orange","left_color":"lightblue","left_mu":60,"right_mu":30,"left_numbers":[61,57,32,66,57],"right_numbers":[26,30,34,26,41],"points_earned":195,"trial_type":"horizons-task","trial_index":87,"time_elapsed":387561,"internal_node_id":"0.0-83.0"},{"response_times":[281.6549999997951,268.8399999997346,777.7550000000629,204.81999999994878,533.4599999996717,138.63999999919906,463.7050000001327,110.3249999996624,127.9199999999255,114.02000000001863],"keys_pressed":["leftarrow","rightarrow","leftarrow","rightarrow","leftarrow","rightarrow","rightarrow","leftarrow","leftarrow","rightarrow"],"horizon":10,"forced_choices":["leftarrow","rightarrow","leftarrow","rightarrow"],"right_color":"lightblue","left_color":"orange","left_mu":40,"right_mu":32,"left_numbers":[31,46,27,43,47,19,28,27,37,33],"right_numbers":[35,42,34,33,17,31,28,37,33,38],"points_earned":341,"trial_type":"horizons-task","trial_index":88,"time_elapsed":392085,"internal_node_id":"0.0-84.0"},{"response_times":[434.565000000468,101.62500000023283,146.7400000001653,151.4649999999092,57.54000000067754],"keys_pressed":["rightarrow","leftarrow","leftarrow","leftarrow","rightarrow"],"horizon":5,"forced_choices":["rightarrow","leftarrow","leftarrow","leftarrow"],"right_color":"lightblue","left_color":"orange","left_mu":40,"right_mu":70,"left_numbers":[37,45,42,40,32],"right_numbers":[63,80,57,66,67],"points_earned":257,"trial_type":"horizons-task","trial_index":89,"time_elapsed":394480,"internal_node_id":"0.0-85.0"},{"rt":12294.965000000026,"responses":{"age":"21","gender-categorical":"Male","gender-free-response":"","ethnicity":"Not Hispanic or Latino","race":["White"],"language":"Yes","fluency":"Very well"},"survey":"demographics","trial_type":"survey-demo","trial_index":90,"time_elapsed":406779,"internal_node_id":"0.0-86.0"},{"rt":10104.459999999555,"responses":{"difficulty":"4","fun":"5","clarity":"5","strategy":"","feedback":""},"survey":"debrief","trial_type":"survey-debrief","trial_index":91,"time_elapsed":416887,"internal_node_id":"0.0-87.0","interactions":"[]"}]