[{"view_history":"[{\"page_index\":0,\"viewing_time\":2605.6700001936406}]","rt":2605.995000107214,"trial_type":"instructions","trial_index":0,"time_elapsed":2613,"internal_node_id":"0.0-0.0"},{"item_order":[16,1,5,4,9,12,7,13,3,10,15,8,2,0,11,14,6],"responses":{"Q17":"0","Q02":"2","Q06":"2","Q05":"2","Q10":"4","Q13":"3","Q08":"3","Q14":"2","Q04":"2","Q11":"2","Q16":"3","Q09":"2","Q03":"4","Q01":"3","Q12":"4","Q15":"3","Q07":"3"},"radio_events":[3825.355000095442,10707.524999976158,14416.54000012204,18319.494999945164,20903.530000010505,27402.615000028163,29210.49500000663,31594.969999976456,33990.22500007413,37127.994999988005,40312.99000000581,47585.81000007689,52320.42000000365,56416.45499994047,60274.440000066534,66651.54500002973,70053.94000001252,72054.11999998614,74226.47500014864],"key_events":[0.12500002048909664,3825.355000095442,10707.524999976158,14416.54000012204,18319.494999945164,20573.580000083894,20903.530000010505,27402.615000028163,29210.49500000663,31594.969999976456,33990.22500007413,37127.994999988005,40312.99000000581,47585.81000007689,52320.42000000365,56416.45499994047,60274.440000066534,66651.54500002973,70053.94000001252,72054.11999998614,74226.47500014864,74899.47500010021],"mouse_events":[],"rt":74901.44499996677,"survey":"pswq","trial_type":"survey-template","trial_index":1,"time_elapsed":77518,"internal_node_id":"0.0-1.0"},{"item_order":[6,5,0,7,4,12,10,8,2,11,1,3,9],"responses":{"Q07":"1","Q06":"1","Q01":"1","Q08":"1","Q05":"1","Q13":"4","Q11":"2","Q09":"2","Q03":"1","Q12":"1","Q02":"3","Q04":"2","Q10":"1"},"radio_events":[5614.390000002459,14117.80000012368,17116.334999911487,19728.305000113323,20653.450000099838,25109.345000004396,28780.229999916628,32289.35500001535,40743.13999991864,43796.28000012599,46875.95000001602,50429.759999969974,51548.40500000864,52659.2950001359,57602.565000066534,61843.26500003226,67341.17499995045,69935.19999994896],"key_events":[5614.390000002459,14117.80000012368,17116.334999911487,19728.305000113323,20653.450000099838,25109.345000004396,28780.229999916628,32289.35500001535,40743.13999991864,43796.28000012599,46875.95000001602,50429.759999969974,51548.40500000864,52659.2950001359,57602.565000066534,60205.30500006862,61843.26500003226,67019.12500010803,67341.17499995045,69935.19999994896,70701.17000001483],"mouse_events":[],"rt":70702.3750001099,"survey":"ius12","trial_type":"survey-template","trial_index":2,"time_elapsed":148223,"internal_node_id":"0.0-2.0"},{"view_history":"[{\"page_index\":0,\"viewing_time\":2882.2399999480695},{\"page_index\":1,\"viewing_time\":7048.955000005662},{\"page_index\":2,\"viewing_time\":11219.040000112727},{\"page_index\":3,\"viewing_time\":5758.924999972805},{\"page_index\":4,\"viewing_time\":4873.124999925494},{\"page_index\":5,\"viewing_time\":4140.295000048354},{\"page_index\":6,\"viewing_time\":5409.1199999675155},{\"page_index\":7,\"viewing_time\":7070.724999997765},{\"page_index\":8,\"viewing_time\":6445.640000049025},{\"page_index\":9,\"viewing_time\":6174.094999907538}]","rt":61022.80000015162,"trial_type":"instructions","trial_index":3,"time_elapsed":209247,"internal_node_id":"0.0-3.0-0.0"},{"response_times":[1204.5949997846037,661.7400001268834,669.9949998874217,660.1199998985976,4131.784999975935],"keys_pressed":["rightarrow","leftarrow","rightarrow","rightarrow","leftarrow"],"horizon":5,"forced_choices":["rightarrow","leftarrow","rightarrow","rightarrow"],"right_color":"lightblue","left_color":"orange","left_mu":40,"right_mu":20,"left_numbers":[36,38,41,34,32],"right_numbers":[23,23,25,16,22],"points_earned":134,"trial_type":"horizons-task","trial_index":4,"time_elapsed":218085,"internal_node_id":"0.0-3.0-1.0"},{"response_times":[1229.2600001674145,645.6050002016127,545.3249998390675,744.7399999946356,2509.2599999625236,1867.6899999845773,1473.7050000112504,631.7550002131611,542.7149999886751,862.6949999015778],"keys_pressed":["leftarrow","leftarrow","rightarrow","rightarrow","rightarrow","rightarrow","rightarrow","rightarrow","rightarrow","rightarrow"],"horizon":10,"forced_choices":["leftarrow","leftarrow","rightarrow","rightarrow"],"right_color":"orange","left_color":"lightblue","left_mu":60,"right_mu":70,"left_numbers":[57,69,60,74,62,55,57,62,52,59],"right_numbers":[62,68,76,64,72,70,76,74,61,75],"points_earned":694,"trial_type":"horizons-task","trial_index":5,"time_elapsed":230647,"internal_node_id":"0.0-3.0-2.0"},{"view_history":"[{\"page_index\":0,\"viewing_time\":2473.8499999511987},{\"page_index\":1,\"viewing_time\":2792.420000070706},{\"page_index\":2,\"viewing_time\":3362.574999919161},{\"page_index\":3,\"viewing_time\":3256.515000015497}]","rt":11885.595000116155,"trial_type":"instructions","trial_index":6,"time_elapsed":242533,"internal_node_id":"0.0-3.0-3.0"},{"responses":["true","false","false","true"],"num_errors":0,"rt":10771.949999965727,"trial_type":"horizons-comprehension","trial_index":7,"time_elapsed":253307,"internal_node_id":"0.0-3.0-4.0"},{"view_history":"[{\"page_index\":0,\"viewing_time\":1509.3800001777709},{\"page_index\":1,\"viewing_time\":3597.069999901578}]","rt":5106.660000048578,"trial_type":"instructions","trial_index":8,"time_elapsed":258416,"internal_node_id":"0.0-4.0"},{"response_times":[1659.3250001315027,733.8799999561161,899.3400000035763,646.0099997930229,863.3699999190867],"keys_pressed":["rightarrow","rightarrow","leftarrow","leftarrow","leftarrow"],"horizon":5,"forced_choices":["rightarrow","rightarrow","leftarrow","leftarrow"],"right_color":"orange","left_color":"lightblue","left_mu":40,"right_mu":10,"left_numbers":[46,36,44,41,42],"right_numbers":[23,10,10,15,3],"points_earned":160,"trial_type":"horizons-task","trial_index":9,"time_elapsed":264725,"internal_node_id":"0.0-5.0"},{"response_times":[1097.5200000684708,458.0650001298636,1085.9100001398474,775.9899999946356,6008.559999987483,2193.4849999379367,1323.9100000355393,1104.334999807179,581.6950001753867,471.97999991476536],"keys_pressed":["leftarrow","leftarrow","leftarrow","rightarrow","rightarrow","rightarrow","rightarrow","rightarrow","rightarrow","rightarrow"],"horizon":10,"forced_choices":["leftarrow","leftarrow","leftarrow","rightarrow"],"right_color":"orange","left_color":"lightblue","left_mu":60,"right_mu":68,"left_numbers":[76,63,57,47,59,52,50,52,62,58],"right_numbers":[61,65,71,58,78,75,68,68,72,81],"points_earned":696,"trial_type":"horizons-task","trial_index":10,"time_elapsed":281331,"internal_node_id":"0.0-6.0"},{"response_times":[872.0249999314547,383.4849998820573,540.6200001016259,2516.425000037998,4344.74500012584],"keys_pressed":["rightarrow","leftarrow","leftarrow","leftarrow","leftarrow"],"horizon":5,"forced_choices":["rightarrow","leftarrow","leftarrow","leftarrow"],"right_color":"lightblue","left_color":"orange","left_mu":60,"right_mu":40,"left_numbers":[56,57,54,49,59],"right_numbers":[38,35,38,29,41],"points_earned":257,"trial_type":"horizons-task","trial_index":11,"time_elapsed":291493,"internal_node_id":"0.0-7.0"},{"response_times":[1021.584999980405,731.8299999460578,678.0300000682473,529.9100000411272,2394.069999922067,908.6649999953806,745.2750001102686,417.97999991104007,366.04500003159046,470.5650000832975],"keys_pressed":["rightarrow","rightarrow","rightarrow","leftarrow","leftarrow","rightarrow","rightarrow","rightarrow","rightarrow","rightarrow"],"horizon":10,"forced_choices":["rightarrow","rightarrow","rightarrow","leftarrow"],"right_color":"lightblue","left_color":"orange","left_mu":60,"right_mu":90,"left_numbers":[65,78,61,62,57,68,63,74,63,60],"right_numbers":[94,82,78,102,80,89,87,88,90,93],"points_earned":820,"trial_type":"horizons-task","trial_index":12,"time_elapsed":301262,"internal_node_id":"0.0-8.0"},{"response_times":[852.4400000460446,517.920000012964,929.8449999187142,742.1349999494851,2347.105000168085],"keys_pressed":["leftarrow","rightarrow","rightarrow","rightarrow","rightarrow"],"horizon":5,"forced_choices":["leftarrow","rightarrow","rightarrow","rightarrow"],"right_color":"orange","left_color":"lightblue","left_mu":40,"right_mu":52,"left_numbers":[36,32,46,38,40],"right_numbers":[37,66,47,56,36],"points_earned":241,"trial_type":"horizons-task","trial_index":13,"time_elapsed":308156,"internal_node_id":"0.0-9.0"},{"response_times":[738.9249999541789,848.2299998868257,829.5749998651445,1040.2599999215454,2305.719999829307],"keys_pressed":["rightarrow","leftarrow","rightarrow","leftarrow","rightarrow"],"horizon":5,"forced_choices":["rightarrow","leftarrow","rightarrow","leftarrow"],"right_color":"lightblue","left_color":"orange","left_mu":60,"right_mu":72,"left_numbers":[57,49,63,55,53],"right_numbers":[80,65,69,84,84],"points_earned":337,"trial_type":"horizons-task","trial_index":14,"time_elapsed":315424,"internal_node_id":"0.0-10.0"},{"response_times":[609.0000001713634,709.925000090152,804.0449998807162,815.9499999601394,1446.2749999947846],"keys_pressed":["rightarrow","leftarrow","rightarrow","leftarrow","rightarrow"],"horizon":5,"forced_choices":["rightarrow","leftarrow","rightarrow","leftarrow"],"right_color":"orange","left_color":"lightblue","left_mu":40,"right_mu":70,"left_numbers":[50,46,34,44,46],"right_numbers":[76,68,84,69,68],"points_earned":318,"trial_type":"horizons-task","trial_index":15,"time_elapsed":321318,"internal_node_id":"0.0-11.0"},{"response_times":[697.0500000752509,482.5999999884516,811.5750001743436,477.5449999142438,2350.139999995008,771.0299999453127,892.920000012964,421.90499999560416,372.1600000280887,390.9950000233948],"keys_pressed":["rightarrow","leftarrow","leftarrow","rightarrow","leftarrow","leftarrow","leftarrow","leftarrow","leftarrow","leftarrow"],"horizon":10,"forced_choices":["rightarrow","leftarrow","leftarrow","rightarrow"],"right_color":"lightblue","left_color":"orange","left_mu":60,"right_mu":40,"left_numbers":[61,64,69,48,72,50,52,57,49,46],"right_numbers":[22,24,33,36,38,30,33,50,34,55],"points_earned":517,"trial_type":"horizons-task","trial_index":16,"time_elapsed":330496,"internal_node_id":"0.0-12.0"},{"response_times":[702.7449999004602,524.1050000768155,591.5500000119209,522.0550000667572,2042.5199999008328,487.33499995432794,480.0149998627603,395.92000003904104,394.18500009924173,359.7949999384582],"keys_pressed":["rightarrow","leftarrow","leftarrow","rightarrow","rightarrow","rightarrow","rightarrow","rightarrow","rightarrow","rightarrow"],"horizon":10,"forced_choices":["rightarrow","leftarrow","leftarrow","rightarrow"],"right_color":"lightblue","left_color":"orange","left_mu":40,"right_mu":70,"left_numbers":[39,42,29,39,43,30,38,44,48,45],"right_numbers":[57,72,67,72,71,63,60,74,79,77],"points_earned":624,"trial_type":"horizons-task","trial_index":17,"time_elapsed":338501,"internal_node_id":"0.0-13.0"},{"response_times":[811.5950000938028,1160.0150000303984,2410.0750000216067,1257.8099998645484,2482.1399999782443],"keys_pressed":["leftarrow","leftarrow","rightarrow","rightarrow","leftarrow"],"horizon":5,"forced_choices":["leftarrow","leftarrow","rightarrow","rightarrow"],"right_color":"lightblue","left_color":"orange","left_mu":60,"right_mu":52,"left_numbers":[55,69,54,65,66],"right_numbers":[43,52,49,67,45],"points_earned":306,"trial_type":"horizons-task","trial_index":18,"time_elapsed":348127,"internal_node_id":"0.0-14.0"},{"response_times":[674.1900001652539,480.3400000091642,401.8949999008328,439.6949999500066,2059.8400000017136,1230.005000019446,704.5899999793619,449.33500001206994,438.24499985203147,567.795000039041],"keys_pressed":["leftarrow","leftarrow","rightarrow","rightarrow","leftarrow","leftarrow","leftarrow","leftarrow","leftarrow","leftarrow"],"horizon":10,"forced_choices":["leftarrow","leftarrow","rightarrow","rightarrow"],"right_color":"orange","left_color":"lightblue","left_mu":60,"right_mu":48,"left_numbers":[68,61,42,68,59,60,61,61,54,42],"right_numbers":[47,45,51,49,44,39,38,53,44,73],"points_earned":566,"trial_type":"horizons-task","trial_index":19,"time_elapsed":357076,"internal_node_id":"0.0-15.0"},{"response_times":[611.900000134483,663.9749999158084,558.0049999989569,258.0150000285357,1059.984999941662,654.744999948889,471.2300000246614,397.94000005349517,619.8700000531971,514.0599999576807],"keys_pressed":["leftarrow","leftarrow","rightarrow","rightarrow","rightarrow","leftarrow","leftarrow","leftarrow","leftarrow","leftarrow"],"horizon":10,"forced_choices":["leftarrow","leftarrow","rightarrow","rightarrow"],"right_color":"orange","left_color":"lightblue","left_mu":40,"right_mu":20,"left_numbers":[48,53,40,47,42,48,40,29,37,43],"right_numbers":[16,10,14,24,18,19,19,8,23,20],"points_earned":354,"trial_type":"horizons-task","trial_index":20,"time_elapsed":364391,"internal_node_id":"0.0-16.0"},{"response_times":[732.7949998434633,463.9250000473112,1213.9300000853837,877.9050000011921,1758.1650000065565,658.8250000495464,433.2350001204759,453.80500005558133,607.9550001304597,510.9600001014769],"keys_pressed":["leftarrow","rightarrow","rightarrow","rightarrow","leftarrow","leftarrow","leftarrow","leftarrow","leftarrow","leftarrow"],"horizon":10,"forced_choices":["leftarrow","rightarrow","rightarrow","rightarrow"],"right_color":"orange","left_color":"lightblue","left_mu":40,"right_mu":20,"left_numbers":[20,40,47,25,37,33,28,53,44,35],"right_numbers":[13,16,27,21,11,24,25,17,22,18],"points_earned":314,"trial_type":"horizons-task","trial_index":21,"time_elapsed":373607,"internal_node_id":"0.0-17.0"},{"response_times":[581.2899998854846,383.97000008262694,984.1149998828769,795.8799998741597,1767.174999928102],"keys_pressed":["leftarrow","rightarrow","rightarrow","rightarrow","rightarrow"],"horizon":5,"forced_choices":["leftarrow","rightarrow","rightarrow","rightarrow"],"right_color":"lightblue","left_color":"orange","left_mu":60,"right_mu":72,"left_numbers":[51,53,68,59,57],"right_numbers":[58,78,70,67,60],"points_earned":326,"trial_type":"horizons-task","trial_index":22,"time_elapsed":379624,"internal_node_id":"0.0-18.0"},{"response_times":[656.0750000644475,566.9249999336898,624.4950001128018,647.5450000725687,3688.4749999735504],"keys_pressed":["rightarrow","leftarrow","leftarrow","leftarrow","leftarrow"],"horizon":5,"forced_choices":["rightarrow","leftarrow","leftarrow","leftarrow"],"right_color":"orange","left_color":"lightblue","left_mu":40,"right_mu":28,"left_numbers":[41,35,37,37,36],"right_numbers":[22,32,34,23,25],"points_earned":167,"trial_type":"horizons-task","trial_index":23,"time_elapsed":387313,"internal_node_id":"0.0-19.0"},{"response_times":[563.4000001009554,899.2650001309812,513.9699999708682,956.4300000201911,2423.485000152141],"keys_pressed":["rightarrow","rightarrow","leftarrow","rightarrow","rightarrow"],"horizon":5,"forced_choices":["rightarrow","rightarrow","leftarrow","rightarrow"],"right_color":"lightblue","left_color":"orange","left_mu":60,"right_mu":80,"left_numbers":[63,42,70,68,61],"right_numbers":[93,82,70,87,82],"points_earned":414,"trial_type":"horizons-task","trial_index":24,"time_elapsed":394181,"internal_node_id":"0.0-20.0"},{"response_times":[446.1000000592321,681.8350001703948,441.8399999849498,456.1399999074638,1587.6599999610335],"keys_pressed":["rightarrow","leftarrow","rightarrow","leftarrow","leftarrow"],"horizon":5,"forced_choices":["rightarrow","leftarrow","rightarrow","leftarrow"],"right_color":"lightblue","left_color":"orange","left_mu":40,"right_mu":44,"left_numbers":[34,37,30,43,45],"right_numbers":[29,40,34,52,33],"points_earned":188,"trial_type":"horizons-task","trial_index":25,"time_elapsed":399299,"internal_node_id":"0.0-21.0"},{"response_times":[544.1199999768287,445.84499998018146,547.9200000409037,506.1049999203533,5312.890000175685,738.7949998956174,1502.0899998489767,407.95499994419515,279.975000070408,507.8900000080466],"keys_pressed":["rightarrow","leftarrow","leftarrow","rightarrow","leftarrow","rightarrow","rightarrow","rightarrow","rightarrow","rightarrow"],"horizon":10,"forced_choices":["rightarrow","leftarrow","leftarrow","rightarrow"],"right_color":"lightblue","left_color":"orange","left_mu":40,"right_mu":36,"left_numbers":[37,32,25,27,37,35,39,36,27,50],"right_numbers":[44,30,44,35,36,36,46,51,28,49],"points_earned":383,"trial_type":"horizons-task","trial_index":26,"time_elapsed":411596,"internal_node_id":"0.0-22.0"},{"response_times":[876.2149999383837,365.9900000784546,1073.9800001028925,790.1099999435246,852.2549998015165],"keys_pressed":["leftarrow","rightarrow","rightarrow","rightarrow","rightarrow"],"horizon":5,"forced_choices":["leftarrow","rightarrow","rightarrow","rightarrow"],"right_color":"orange","left_color":"lightblue","left_mu":40,"right_mu":70,"left_numbers":[33,50,37,42,47],"right_numbers":[54,79,79,80,64],"points_earned":335,"trial_type":"horizons-task","trial_index":27,"time_elapsed":417059,"internal_node_id":"0.0-23.0"},{"response_times":[622.4599999841303,371.8850000295788,466.0300000105053,827.9250001069158,3622.050000121817],"keys_pressed":["rightarrow","leftarrow","leftarrow","rightarrow","leftarrow"],"horizon":5,"forced_choices":["rightarrow","leftarrow","leftarrow","rightarrow"],"right_color":"orange","left_color":"lightblue","left_mu":60,"right_mu":56,"left_numbers":[74,59,62,46,64],"right_numbers":[51,48,46,43,58],"points_earned":279,"trial_type":"horizons-task","trial_index":28,"time_elapsed":424474,"internal_node_id":"0.0-24.0"},{"response_times":[561.0950000118464,589.9799999315292,438.0850000306964,483.9399999473244,1786.0799999907613,1027.9899998567998,519.7850000113249,397.98000012524426,389.98500001616776,411.9750000536442],"keys_pressed":["rightarrow","rightarrow","rightarrow","leftarrow","leftarrow","leftarrow","leftarrow","leftarrow","leftarrow","leftarrow"],"horizon":10,"forced_choices":["rightarrow","rightarrow","rightarrow","leftarrow"],"right_color":"lightblue","left_color":"orange","left_mu":60,"right_mu":40,"left_numbers":[66,69,47,46,66,53,60,64,52,64],"right_numbers":[38,36,50,41,32,25,35,39,31,47],"points_earned":529,"trial_type":"horizons-task","trial_index":29,"time_elapsed":432586,"internal_node_id":"0.0-25.0"},{"response_times":[567.0549999922514,548.0100000277162,386.0100000165403,404.575000051409,1909.2749999836087,784.0199999045581,1408.1600001081824,449.78500017896295,248.8549998961389,143.12499994412065],"keys_pressed":["leftarrow","leftarrow","rightarrow","rightarrow","leftarrow","rightarrow","rightarrow","rightarrow","rightarrow","rightarrow"],"horizon":10,"forced_choices":["leftarrow","leftarrow","rightarrow","rightarrow"],"right_color":"orange","left_color":"lightblue","left_mu":40,"right_mu":48,"left_numbers":[33,51,26,35,44,46,40,28,45,60],"right_numbers":[57,46,54,52,57,49,54,47,47,58],"points_earned":489,"trial_type":"horizons-task","trial_index":30,"time_elapsed":440940,"internal_node_id":"0.0-26.0"},{"response_times":[596.8750000465661,555.6449999567121,720.475000096485,787.525000050664,1817.130000097677],"keys_pressed":["leftarrow","rightarrow","rightarrow","leftarrow","rightarrow"],"horizon":5,"forced_choices":["leftarrow","rightarrow","rightarrow","leftarrow"],"right_color":"lightblue","left_color":"orange","left_mu":40,"right_mu":60,"left_numbers":[44,33,39,41,31],"right_numbers":[64,46,52,42,61],"points_earned":244,"trial_type":"horizons-task","trial_index":31,"time_elapsed":446923,"internal_node_id":"0.0-27.0"},{"response_times":[937.4599999282509,1523.975000018254,459.7000000067055,580.1399999763817,2031.8050000350922,878.4749999176711,477.4350000079721,868.0200001690537,336.02500008419156,345.875000115484],"keys_pressed":["leftarrow","leftarrow","rightarrow","leftarrow","rightarrow","leftarrow","leftarrow","leftarrow","leftarrow","leftarrow"],"horizon":10,"forced_choices":["leftarrow","leftarrow","rightarrow","leftarrow"],"right_color":"lightblue","left_color":"orange","left_mu":40,"right_mu":20,"left_numbers":[51,44,42,46,25,28,46,44,40,37],"right_numbers":[17,34,17,15,30,7,16,7,26,1],"points_earned":383,"trial_type":"horizons-task","trial_index":32,"time_elapsed":456868,"internal_node_id":"0.0-28.0"},{"response_times":[686.7000001948327,587.5649999361485,718.0600001011044,835.8050000388175,1342.4450000748038,353.77500019967556,1067.6299999468029,314.11000015214086,246.73999985679984,457.04000000841916],"keys_pressed":["rightarrow","rightarrow","rightarrow","leftarrow","leftarrow","leftarrow","leftarrow","leftarrow","leftarrow","leftarrow"],"horizon":10,"forced_choices":["rightarrow","rightarrow","rightarrow","leftarrow"],"right_color":"lightblue","left_color":"orange","left_mu":60,"right_mu":48,"left_numbers":[67,63,82,62,67,64,63,65,67,70],"right_numbers":[53,53,50,42,42,45,45,60,53,44],"points_earned":614,"trial_type":"horizons-task","trial_index":33,"time_elapsed":464985,"internal_node_id":"0.0-29.0"},{"response_times":[577.3549999576062,451.0149999987334,521.635000128299,596.394999884069,1659.7499998752028],"keys_pressed":["leftarrow","leftarrow","leftarrow","rightarrow","leftarrow"],"horizon":5,"forced_choices":["leftarrow","leftarrow","leftarrow","rightarrow"],"right_color":"orange","left_color":"lightblue","left_mu":40,"right_mu":10,"left_numbers":[28,48,41,45,32],"right_numbers":[10,2,26,9,26],"points_earned":158,"trial_type":"horizons-task","trial_index":34,"time_elapsed":470296,"internal_node_id":"0.0-30.0"},{"response_times":[611.9099999777973,707.935000071302,497.98500002361834,913.9299998059869,1292.115000076592,517.9500000085682,1915.9600001294166,331.9699999410659,286.9100000243634,901.3549999799579],"keys_pressed":["leftarrow","rightarrow","leftarrow","rightarrow","leftarrow","rightarrow","rightarrow","rightarrow","rightarrow","rightarrow"],"horizon":10,"forced_choices":["leftarrow","rightarrow","leftarrow","rightarrow"],"right_color":"orange","left_color":"lightblue","left_mu":40,"right_mu":52,"left_numbers":[37,31,48,48,36,39,31,52,53,58],"right_numbers":[58,45,64,63,44,50,44,56,50,47],"points_earned":476,"trial_type":"horizons-task","trial_index":35,"time_elapsed":479779,"internal_node_id":"0.0-31.0"},{"response_times":[620.9549999330193,481.23000003397465,468.97000004537404,685.5499998200685,1330.3650000598282,408.10499992221594,4117.594999959692,340.3249999973923,243.5850000474602,215.9949999768287],"keys_pressed":["rightarrow","rightarrow","leftarrow","rightarrow","leftarrow","leftarrow","leftarrow","leftarrow","leftarrow","leftarrow"],"horizon":10,"forced_choices":["rightarrow","rightarrow","leftarrow","rightarrow"],"right_color":"orange","left_color":"lightblue","left_mu":40,"right_mu":32,"left_numbers":[52,32,31,39,37,48,50,22,32,44],"right_numbers":[47,34,46,29,45,31,37,33,30,33],"points_earned":374,"trial_type":"horizons-task","trial_index":36,"time_elapsed":490196,"internal_node_id":"0.0-32.0"},{"response_times":[600.0449999701232,638.0900000222027,571.6699999757111,668.5899998992682,2079.464999958873,300.2599999308586,1549.6900000143796,299.7749999631196,276.12000005319715,347.95500012114644],"keys_pressed":["rightarrow","rightarrow","leftarrow","leftarrow","leftarrow","rightarrow","leftarrow","leftarrow","leftarrow","leftarrow"],"horizon":10,"forced_choices":["rightarrow","rightarrow","leftarrow","leftarrow"],"right_color":"orange","left_color":"lightblue","left_mu":60,"right_mu":40,"left_numbers":[53,63,64,57,59,64,48,66,61,59],"right_numbers":[30,41,32,34,31,39,42,50,33,35],"points_earned":524,"trial_type":"horizons-task","trial_index":37,"time_elapsed":499033,"internal_node_id":"0.0-33.0"},{"response_times":[640.2149999048561,814.5850000437349,560.2250001393259,701.9599999766797,2555.7850000914186],"keys_pressed":["leftarrow","rightarrow","leftarrow","leftarrow","leftarrow"],"horizon":5,"forced_choices":["leftarrow","rightarrow","leftarrow","leftarrow"],"right_color":"lightblue","left_color":"orange","left_mu":40,"right_mu":48,"left_numbers":[48,37,27,62,58],"right_numbers":[40,30,51,48,49],"points_earned":225,"trial_type":"horizons-task","trial_index":38,"time_elapsed":505812,"internal_node_id":"0.0-34.0"},{"response_times":[474.3049999233335,462.66499999910593,441.334999864921,854.1700001806021,4949.925000080839],"keys_pressed":["leftarrow","rightarrow","leftarrow","leftarrow","rightarrow"],"horizon":5,"forced_choices":["leftarrow","rightarrow","leftarrow","leftarrow"],"right_color":"lightblue","left_color":"orange","left_mu":40,"right_mu":44,"left_numbers":[49,38,45,40,33],"right_numbers":[39,58,40,52,45],"points_earned":237,"trial_type":"horizons-task","trial_index":39,"time_elapsed":514499,"internal_node_id":"0.0-35.0"},{"response_times":[650.7000001147389,500.0599999912083,574.3100000545382,534.9799999967217,944.7449999861419,279.6499999240041,1116.2450001575053,236.9049999397248,215.85000003688037,191.88500009477139],"keys_pressed":["leftarrow","leftarrow","leftarrow","rightarrow","rightarrow","rightarrow","rightarrow","rightarrow","rightarrow","rightarrow"],"horizon":10,"forced_choices":["leftarrow","leftarrow","leftarrow","rightarrow"],"right_color":"lightblue","left_color":"orange","left_mu":40,"right_mu":70,"left_numbers":[37,41,38,25,39,32,36,49,41,41],"right_numbers":[68,67,66,58,72,78,59,70,77,78],"points_earned":608,"trial_type":"horizons-task","trial_index":40,"time_elapsed":521249,"internal_node_id":"0.0-36.0"},{"response_times":[859.12000015378,416.94500017911196,529.755000025034,248.27999994158745,1968.5249999165535,607.1349999401718,362.04499984160066,193.7049999833107,246.4349998626858,261.4649999886751],"keys_pressed":["rightarrow","rightarrow","leftarrow","leftarrow","rightarrow","rightarrow","rightarrow","rightarrow","rightarrow","rightarrow"],"horizon":10,"forced_choices":["rightarrow","rightarrow","leftarrow","leftarrow"],"right_color":"lightblue","left_color":"orange","left_mu":60,"right_mu":80,"left_numbers":[66,65,57,63,65,68,70,49,61,63],"right_numbers":[77,87,74,92,73,85,75,64,78,84],"points_earned":743,"trial_type":"horizons-task","trial_index":41,"time_elapsed":528462,"internal_node_id":"0.0-37.0"},{"response_times":[696.3649999815971,469.24000000581145,540.3599999845028,1091.3400000426918,4188.085000030696,328.0249999370426,1671.8049999326468,515.5199998989701,310.9150000382215,212.3600000049919],"keys_pressed":["leftarrow","leftarrow","rightarrow","leftarrow","rightarrow","rightarrow","leftarrow","leftarrow","leftarrow","leftarrow"],"horizon":10,"forced_choices":["leftarrow","leftarrow","rightarrow","leftarrow"],"right_color":"orange","left_color":"lightblue","left_mu":40,"right_mu":32,"left_numbers":[42,45,31,29,44,35,33,38,28,43],"right_numbers":[37,36,25,33,36,11,31,42,40,38],"points_earned":330,"trial_type":"horizons-task","trial_index":42,"time_elapsed":539991,"internal_node_id":"0.0-38.0"},{"response_times":[510.2199998218566,386.12000015564263,348.04999991320074,452.0350000821054,1906.6950001288205],"keys_pressed":["leftarrow","rightarrow","leftarrow","rightarrow","leftarrow"],"horizon":5,"forced_choices":["leftarrow","rightarrow","leftarrow","rightarrow"],"right_color":"orange","left_color":"lightblue","left_mu":40,"right_mu":28,"left_numbers":[49,27,29,45,35],"right_numbers":[35,22,39,44,12],"points_earned":179,"trial_type":"horizons-task","trial_index":43,"time_elapsed":545099,"internal_node_id":"0.0-39.0"},{"response_times":[426.56999989412725,519.8099999688566,443.9749999437481,692.2050002031028,1189.750000135973],"keys_pressed":["rightarrow","rightarrow","leftarrow","rightarrow","rightarrow"],"horizon":5,"forced_choices":["rightarrow","rightarrow","leftarrow","rightarrow"],"right_color":"orange","left_color":"lightblue","left_mu":40,"right_mu":60,"left_numbers":[46,46,44,44,46],"right_numbers":[63,64,61,59,68],"points_earned":298,"trial_type":"horizons-task","trial_index":44,"time_elapsed":549876,"internal_node_id":"0.0-40.0"},{"response_times":[520.2099999878556,683.8849999476224,483.95000002346933,476.16499988362193,385.90500014834106,444.2650000564754,1365.6899998895824,361.9699999690056,269.9800000991672,476.8300000578165],"keys_pressed":["rightarrow","rightarrow","rightarrow","leftarrow","leftarrow","leftarrow","leftarrow","leftarrow","leftarrow","leftarrow"],"horizon":10,"forced_choices":["rightarrow","rightarrow","rightarrow","leftarrow"],"right_color":"lightblue","left_color":"orange","left_mu":40,"right_mu":36,"left_numbers":[35,48,57,45,51,34,38,45,53,43],"right_numbers":[34,37,39,19,49,38,15,43,16,46],"points_earned":419,"trial_type":"horizons-task","trial_index":45,"time_elapsed":556849,"internal_node_id":"0.0-41.0"},{"response_times":[1195.0699998997152,419.7849999181926,746.1800000164658,696.7450000811368,1513.054999988526],"keys_pressed":["leftarrow","rightarrow","leftarrow","leftarrow","leftarrow"],"horizon":5,"forced_choices":["leftarrow","rightarrow","leftarrow","leftarrow"],"right_color":"lightblue","left_color":"orange","left_mu":60,"right_mu":52,"left_numbers":[60,69,64,58,51],"right_numbers":[31,56,52,46,41],"points_earned":289,"trial_type":"horizons-task","trial_index":46,"time_elapsed":562923,"internal_node_id":"0.0-42.0"},{"response_times":[738.9350000303239,836.4750000182539,489.69499999657273,514.1849999781698,896.0349999833852,985.8949999324977,982.0399999152869,997.2899998538196,864.850000012666,393.540000077337],"keys_pressed":["rightarrow","rightarrow","leftarrow","leftarrow","rightarrow","leftarrow","leftarrow","rightarrow","rightarrow","rightarrow"],"horizon":10,"forced_choices":["rightarrow","rightarrow","leftarrow","leftarrow"],"right_color":"lightblue","left_color":"orange","left_mu":60,"right_mu":68,"left_numbers":[62,67,50,59,59,68,46,63,61,61],"right_numbers":[73,72,69,63,48,64,72,66,69,61],"points_earned":612,"trial_type":"horizons-task","trial_index":47,"time_elapsed":572128,"internal_node_id":"0.0-43.0"},{"response_times":[446.08500017784536,342.8350000176579,593.1450000498444,553.8500000257045,820.0350000988692],"keys_pressed":["rightarrow","leftarrow","rightarrow","rightarrow","rightarrow"],"horizon":5,"forced_choices":["rightarrow","leftarrow","rightarrow","rightarrow"],"right_color":"orange","left_color":"lightblue","left_mu":60,"right_mu":80,"left_numbers":[69,55,63,69,60],"right_numbers":[75,77,83,81,86],"points_earned":380,"trial_type":"horizons-task","trial_index":48,"time_elapsed":576389,"internal_node_id":"0.0-44.0"},{"view_history":"[{\"page_index\":0,\"viewing_time\":2552.350000012666},{\"page_index\":1,\"viewing_time\":1630.9899999760091}]","rt":4183.680000016466,"trial_type":"instructions","trial_index":49,"time_elapsed":580574,"internal_node_id":"0.0-45.0"},{"response_times":[1943.3450000360608,377.09999992512167,438.1350001785904,929.1300000622869,1537.7400000579655],"keys_pressed":["leftarrow","rightarrow","rightarrow","rightarrow","leftarrow"],"horizon":5,"forced_choices":["leftarrow","rightarrow","rightarrow","rightarrow"],"right_color":"lightblue","left_color":"orange","left_mu":60,"right_mu":40,"left_numbers":[56,41,60,62,65],"right_numbers":[58,43,23,41,37],"points_earned":228,"trial_type":"horizons-task","trial_index":50,"time_elapsed":587307,"internal_node_id":"0.0-46.0"},{"response_times":[486.6900001652539,433.9900000486523,1124.2150000762194,691.7550000362098,1704.009999986738,272.78999984264374,569.7699999436736,269.36499984003603,206.00000000558794,365.92500004917383],"keys_pressed":["rightarrow","leftarrow","leftarrow","rightarrow","leftarrow","rightarrow","rightarrow","rightarrow","rightarrow","rightarrow"],"horizon":10,"forced_choices":["rightarrow","leftarrow","leftarrow","rightarrow"],"right_color":"lightblue","left_color":"orange","left_mu":60,"right_mu":90,"left_numbers":[62,56,65,55,59,50,67,58,63,62],"right_numbers":[112,85,101,79,93,95,94,82,105,100],"points_earned":847,"trial_type":"horizons-task","trial_index":51,"time_elapsed":594936,"internal_node_id":"0.0-47.0"},{"response_times":[611.8999999016523,308.6500000208616,471.8800000846386,503.87999997474253,1592.1049998141825],"keys_pressed":["leftarrow","rightarrow","rightarrow","leftarrow","leftarrow"],"horizon":5,"forced_choices":["leftarrow","rightarrow","rightarrow","leftarrow"],"right_color":"lightblue","left_color":"orange","left_mu":40,"right_mu":10,"left_numbers":[35,52,53,26,45],"right_numbers":[8,14,7,13,14],"points_earned":127,"trial_type":"horizons-task","trial_index":52,"time_elapsed":599933,"internal_node_id":"0.0-48.0"},{"response_times":[800.1649999059737,315.89500000700355,411.8749999906868,885.939999949187,1852.0149998366833],"keys_pressed":["leftarrow","rightarrow","leftarrow","rightarrow","leftarrow"],"horizon":5,"forced_choices":["leftarrow","rightarrow","leftarrow","rightarrow"],"right_color":"lightblue","left_color":"orange","left_mu":40,"right_mu":32,"left_numbers":[50,34,37,49,38],"right_numbers":[31,35,37,36,31],"points_earned":196,"trial_type":"horizons-task","trial_index":53,"time_elapsed":605705,"internal_node_id":"0.0-49.0"},{"response_times":[539.6249999757856,358.0199999269098,401.9049999769777,424.8800000641495,551.0700000450015],"keys_pressed":["rightarrow","leftarrow","rightarrow","leftarrow","rightarrow"],"horizon":5,"forced_choices":["rightarrow","leftarrow","rightarrow","leftarrow"],"right_color":"lightblue","left_color":"orange","left_mu":60,"right_mu":90,"left_numbers":[50,45,51,75,51],"right_numbers":[96,91,90,89,80],"points_earned":386,"trial_type":"horizons-task","trial_index":54,"time_elapsed":609485,"internal_node_id":"0.0-50.0"},{"response_times":[606.6250000149012,448.7600000575185,527.4299997836351,595.7599999383092,2079.989999998361,330.1699999719858,1013.9250000938773,209.95500008575618,194.0649999305606,369.8500001337379],"keys_pressed":["rightarrow","leftarrow","rightarrow","rightarrow","leftarrow","leftarrow","rightarrow","rightarrow","rightarrow","rightarrow"],"horizon":10,"forced_choices":["rightarrow","leftarrow","rightarrow","rightarrow"],"right_color":"orange","left_color":"lightblue","left_mu":60,"right_mu":90,"left_numbers":[64,53,83,53,52,53,68,75,55,62],"right_numbers":[101,85,98,98,105,85,88,93,83,92],"points_earned":811,"trial_type":"horizons-task","trial_index":55,"time_elapsed":617366,"internal_node_id":"0.0-51.0"},{"response_times":[601.2800000607967,322.07500003278255,949.7549999505281,658.3700000774115,1459.3750000931323,325.1299997791648,2370.9299999754876,278.15499994903803,177.7850000653416,380.0050001591444],"keys_pressed":["rightarrow","leftarrow","leftarrow","leftarrow","rightarrow","rightarrow","rightarrow","rightarrow","rightarrow","rightarrow"],"horizon":10,"forced_choices":["rightarrow","leftarrow","leftarrow","leftarrow"],"right_color":"orange","left_color":"lightblue","left_mu":60,"right_mu":72,"left_numbers":[61,78,57,63,56,54,64,59,50,69],"right_numbers":[87,74,75,73,75,67,83,77,92,75],"points_earned":754,"trial_type":"horizons-task","trial_index":56,"time_elapsed":626394,"internal_node_id":"0.0-52.0"},{"response_times":[678.6700000520796,365.4799999203533,515.974999871105,435.93500019051135,2056.034999899566],"keys_pressed":["leftarrow","rightarrow","leftarrow","rightarrow","rightarrow"],"horizon":5,"forced_choices":["leftarrow","rightarrow","leftarrow","rightarrow"],"right_color":"lightblue","left_color":"orange","left_mu":40,"right_mu":60,"left_numbers":[28,29,31,51,38],"right_numbers":[72,45,78,68,61],"points_earned":233,"trial_type":"horizons-task","trial_index":57,"time_elapsed":631950,"internal_node_id":"0.0-53.0"},{"response_times":[636.6900000721216,633.9150001294911,628.6799998488277,574.1200000047684,2457.765000173822,412.02499996870756,818.595000077039,351.40500008128583,1158.009999897331,6670.864999992773],"keys_pressed":["leftarrow","leftarrow","rightarrow","leftarrow","rightarrow","rightarrow","leftarrow","leftarrow","rightarrow","rightarrow"],"horizon":10,"forced_choices":["leftarrow","leftarrow","rightarrow","leftarrow"],"right_color":"lightblue","left_color":"orange","left_mu":40,"right_mu":32,"left_numbers":[46,36,37,54,46,40,24,40,51,29],"right_numbers":[33,29,27,22,45,34,36,44,39,39],"points_earned":384,"trial_type":"horizons-task","trial_index":58,"time_elapsed":647797,"internal_node_id":"0.0-54.0"},{"response_times":[547.0199999399483,526.0550000239164,479.9649999476969,227.72499988786876,1010.2049999404699,389.90000006742775,720.1800001785159,255.85999991744757,214.4600001629442,165.8350001089275],"keys_pressed":["rightarrow","rightarrow","leftarrow","leftarrow","rightarrow","leftarrow","rightarrow","rightarrow","rightarrow","rightarrow"],"horizon":10,"forced_choices":["rightarrow","rightarrow","leftarrow","leftarrow"],"right_color":"orange","left_color":"lightblue","left_mu":40,"right_mu":52,"left_numbers":[44,40,43,34,43,38,37,49,45,42],"right_numbers":[51,44,58,47,48,42,54,35,74,53],"points_earned":474,"trial_type":"horizons-task","trial_index":59,"time_elapsed":653839,"internal_node_id":"0.0-55.0"},{"response_times":[659.1849999967963,319.9399998411536,368.7050000298768,344.22499989159405,3318.714999826625,264.46500001475215,614.9449998047203,478.20000001229346,254.1350000537932,447.2950000781566],"keys_pressed":["leftarrow","rightarrow","leftarrow","rightarrow","leftarrow","rightarrow","rightarrow","rightarrow","rightarrow","rightarrow"],"horizon":10,"forced_choices":["leftarrow","rightarrow","leftarrow","rightarrow"],"right_color":"orange","left_color":"lightblue","left_mu":40,"right_mu":44,"left_numbers":[42,30,37,55,41,38,37,45,44,45],"right_numbers":[34,46,49,43,45,42,43,45,47,50],"points_earned":436,"trial_type":"horizons-task","trial_index":60,"time_elapsed":662415,"internal_node_id":"0.0-56.0"},{"response_times":[554.4400000944734,725.9499998763204,465.570000000298,531.5400001127273,4909.0350000187755],"keys_pressed":["leftarrow","leftarrow","rightarrow","rightarrow","rightarrow"],"horizon":5,"forced_choices":["leftarrow","leftarrow","rightarrow","rightarrow"],"right_color":"orange","left_color":"lightblue","left_mu":60,"right_mu":90,"left_numbers":[73,62,60,58,64],"right_numbers":[84,102,94,85,90],"points_earned":404,"trial_type":"horizons-task","trial_index":61,"time_elapsed":671108,"internal_node_id":"0.0-57.0"},{"response_times":[634.9449998233467,396.015000063926,492.0899998396635,627.064999891445,1383.4550001192838,339.3200000282377,639.9400001391768,191.9450000859797,162.5649998895824,143.489999929443],"keys_pressed":["leftarrow","rightarrow","leftarrow","leftarrow","rightarrow","rightarrow","rightarrow","rightarrow","rightarrow","rightarrow"],"horizon":10,"forced_choices":["leftarrow","rightarrow","leftarrow","leftarrow"],"right_color":"lightblue","left_color":"orange","left_mu":60,"right_mu":90,"left_numbers":[59,57,65,55,58,69,55,61,57,77],"right_numbers":[87,73,94,78,82,83,94,95,95,79],"points_earned":780,"trial_type":"horizons-task","trial_index":62,"time_elapsed":677625,"internal_node_id":"0.0-58.0"},{"response_times":[583.8500000536442,291.6999999433756,709.9649999290705,544.0050000324845,1159.9950001109391],"keys_pressed":["rightarrow","leftarrow","rightarrow","rightarrow","rightarrow"],"horizon":5,"forced_choices":["rightarrow","leftarrow","rightarrow","rightarrow"],"right_color":"orange","left_color":"lightblue","left_mu":60,"right_mu":72,"left_numbers":[70,46,46,67,52],"right_numbers":[79,81,67,71,70],"points_earned":333,"trial_type":"horizons-task","trial_index":63,"time_elapsed":682419,"internal_node_id":"0.0-59.0"},{"response_times":[709.1999999247491,349.97500013560057,357.9349999781698,570.0650000944734,2083.88499985449,394.3449999205768,4242.515000049025,689.5000000949949,349.7450000140816,472.28999994695187],"keys_pressed":["leftarrow","rightarrow","leftarrow","leftarrow","rightarrow","rightarrow","rightarrow","rightarrow","rightarrow","rightarrow"],"horizon":10,"forced_choices":["leftarrow","rightarrow","leftarrow","leftarrow"],"right_color":"orange","left_color":"lightblue","left_mu":40,"right_mu":48,"left_numbers":[46,43,47,55,47,30,36,47,37,30],"right_numbers":[51,51,44,47,49,51,56,40,52,51],"points_earned":498,"trial_type":"horizons-task","trial_index":64,"time_elapsed":694145,"internal_node_id":"0.0-60.0"},{"response_times":[624.1800000425428,362.8249999601394,642.6399999763817,423.36000013165176,1994.3099999800324,572.5600000005215,320.9899999201298,238.3150001987815,190.66499988548458,219.56499991938472],"keys_pressed":["rightarrow","leftarrow","leftarrow","rightarrow","leftarrow","leftarrow","leftarrow","leftarrow","leftarrow","leftarrow"],"horizon":10,"forced_choices":["rightarrow","leftarrow","leftarrow","rightarrow"],"right_color":"orange","left_color":"lightblue","left_mu":40,"right_mu":28,"left_numbers":[33,42,45,48,52,48,39,32,48,31],"right_numbers":[30,25,23,21,46,23,40,22,38,28],"points_earned":388,"trial_type":"horizons-task","trial_index":65,"time_elapsed":701243,"internal_node_id":"0.0-61.0"},{"response_times":[618.6649999581277,293.52499986998737,318.7700000125915,507.17999995686114,2864.1399999614805,463.9000000897795,249.90499997511506,192.1800000127405,257.8300000168383,341.8400001246482],"keys_pressed":["leftarrow","rightarrow","leftarrow","rightarrow","leftarrow","leftarrow","leftarrow","leftarrow","leftarrow","leftarrow"],"horizon":10,"forced_choices":["leftarrow","rightarrow","leftarrow","rightarrow"],"right_color":"lightblue","left_color":"orange","left_mu":60,"right_mu":30,"left_numbers":[63,55,65,65,52,50,49,57,68,49],"right_numbers":[36,26,29,32,21,32,21,37,32,33],"points_earned":511,"trial_type":"horizons-task","trial_index":66,"time_elapsed":708859,"internal_node_id":"0.0-62.0"},{"response_times":[614.2700000200421,273.8950001075864,380.00499992631376,1062.9350000526756,1534.0850001666695],"keys_pressed":["leftarrow","rightarrow","leftarrow","leftarrow","leftarrow"],"horizon":5,"forced_choices":["leftarrow","rightarrow","leftarrow","leftarrow"],"right_color":"orange","left_color":"lightblue","left_mu":40,"right_mu":10,"left_numbers":[45,46,39,46,43],"right_numbers":[0,4,19,12,9],"points_earned":177,"trial_type":"horizons-task","trial_index":67,"time_elapsed":714229,"internal_node_id":"0.0-63.0"},{"response_times":[565.8249999396503,574.0349998231977,859.1650000307709,1014.8549999576062,2297.1749999560416],"keys_pressed":["rightarrow","leftarrow","leftarrow","rightarrow","rightarrow"],"horizon":5,"forced_choices":["rightarrow","leftarrow","leftarrow","rightarrow"],"right_color":"lightblue","left_color":"orange","left_mu":40,"right_mu":36,"left_numbers":[19,56,34,40,31],"right_numbers":[55,43,40,40,34],"points_earned":219,"trial_type":"horizons-task","trial_index":68,"time_elapsed":721046,"internal_node_id":"0.0-64.0"},{"response_times":[499.24000003375113,514.4400000572205,400.49499995075166,720.0300002004951,1452.0449999254197],"keys_pressed":["rightarrow","rightarrow","leftarrow","rightarrow","rightarrow"],"horizon":5,"forced_choices":["rightarrow","rightarrow","leftarrow","rightarrow"],"right_color":"orange","left_color":"lightblue","left_mu":40,"right_mu":52,"left_numbers":[40,43,29,30,43],"right_numbers":[38,54,45,61,60],"points_earned":242,"trial_type":"horizons-task","trial_index":69,"time_elapsed":726138,"internal_node_id":"0.0-65.0"},{"response_times":[625.620000064373,526.1899998877198,395.81499993801117,295.96999986097217,845.90999991633,1153.944999910891,185.93999999575317,148.04999995976686,201.98500016704202,416.1300000268966],"keys_pressed":["leftarrow","leftarrow","rightarrow","rightarrow","rightarrow","rightarrow","rightarrow","rightarrow","rightarrow","rightarrow"],"horizon":10,"forced_choices":["leftarrow","leftarrow","rightarrow","rightarrow"],"right_color":"lightblue","left_color":"orange","left_mu":40,"right_mu":60,"left_numbers":[36,39,33,43,40,37,44,33,36,45],"right_numbers":[67,60,49,55,63,61,59,63,53,54],"points_earned":532,"trial_type":"horizons-task","trial_index":70,"time_elapsed":732438,"internal_node_id":"0.0-66.0"},{"response_times":[466.04999992996454,395.56000009179115,702.7799999341369,525.995000032708,1779.2299999855459],"keys_pressed":["leftarrow","rightarrow","rightarrow","rightarrow","leftarrow"],"horizon":5,"forced_choices":["leftarrow","rightarrow","rightarrow","rightarrow"],"right_color":"lightblue","left_color":"orange","left_mu":40,"right_mu":10,"left_numbers":[37,37,45,40,53],"right_numbers":[13,12,21,18,18],"points_earned":141,"trial_type":"horizons-task","trial_index":71,"time_elapsed":737833,"internal_node_id":"0.0-67.0"},{"response_times":[532.6849999837577,332.14999991469085,610.2100000716746,456.1300000641495,1765.8150000497699,1031.7999999970198,552.3900000844151,269.58999992348254,217.8450000938028,204.46999999694526],"keys_pressed":["rightarrow","leftarrow","leftarrow","leftarrow","leftarrow","rightarrow","leftarrow","leftarrow","leftarrow","leftarrow"],"horizon":10,"forced_choices":["rightarrow","leftarrow","leftarrow","leftarrow"],"right_color":"orange","left_color":"lightblue","left_mu":60,"right_mu":48,"left_numbers":[57,56,58,60,62,76,60,48,51,63],"right_numbers":[51,45,51,40,41,42,37,39,62,59],"points_earned":551,"trial_type":"horizons-task","trial_index":72,"time_elapsed":745328,"internal_node_id":"0.0-68.0"},{"response_times":[629.9499999731779,432.0650000590831,381.97499979287386,652.059999993071,3601.8449999392033,833.9299999643117,538.6250000447035,203.39999999850988,231.96500004269183,265.9799999091774],"keys_pressed":["leftarrow","leftarrow","rightarrow","leftarrow","rightarrow","leftarrow","rightarrow","rightarrow","rightarrow","rightarrow"],"horizon":10,"forced_choices":["leftarrow","leftarrow","rightarrow","leftarrow"],"right_color":"orange","left_color":"lightblue","left_mu":40,"right_mu":60,"left_numbers":[37,9,32,45,40,26,22,41,38,44],"right_numbers":[45,66,59,69,60,59,49,66,67,59],"points_earned":477,"trial_type":"horizons-task","trial_index":73,"time_elapsed":754604,"internal_node_id":"0.0-69.0"},{"response_times":[732.2149998508394,334.74499988369644,620.7449999637902,449.1050001233816,1125.2550000790507],"keys_pressed":["leftarrow","rightarrow","rightarrow","leftarrow","leftarrow"],"horizon":5,"forced_choices":["leftarrow","rightarrow","rightarrow","leftarrow"],"right_color":"lightblue","left_color":"orange","left_mu":40,"right_mu":28,"left_numbers":[35,47,31,40,31],"right_numbers":[37,24,23,35,24],"points_earned":153,"trial_type":"horizons-task","trial_index":74,"time_elapsed":759370,"internal_node_id":"0.0-70.0"},{"response_times":[586.2649998161942,425.53999996744096,496.64500006474555,597.5299999117851,2301.8800001591444],"keys_pressed":["rightarrow","rightarrow","leftarrow","leftarrow","leftarrow"],"horizon":5,"forced_choices":["rightarrow","rightarrow","leftarrow","leftarrow"],"right_color":"lightblue","left_color":"orange","left_mu":60,"right_mu":48,"left_numbers":[60,53,54,73,52],"right_numbers":[53,54,42,58,45],"points_earned":286,"trial_type":"horizons-task","trial_index":75,"time_elapsed":765283,"internal_node_id":"0.0-71.0"},{"response_times":[725.0800000037998,380.040000192821,481.81500006467104,425.95500010065734,1494.209999917075],"keys_pressed":["rightarrow","leftarrow","leftarrow","rightarrow","rightarrow"],"horizon":5,"forced_choices":["rightarrow","leftarrow","leftarrow","rightarrow"],"right_color":"orange","left_color":"lightblue","left_mu":40,"right_mu":60,"left_numbers":[40,32,38,28,16],"right_numbers":[58,53,62,57,78],"points_earned":263,"trial_type":"horizons-task","trial_index":76,"time_elapsed":770294,"internal_node_id":"0.0-72.0"},{"response_times":[587.3849999625236,396.2049998808652,421.6400000732392,407.9949997831136,1477.130000013858],"keys_pressed":["rightarrow","rightarrow","leftarrow","leftarrow","rightarrow"],"horizon":5,"forced_choices":["rightarrow","rightarrow","leftarrow","leftarrow"],"right_color":"orange","left_color":"lightblue","left_mu":60,"right_mu":68,"left_numbers":[63,73,63,59,46],"right_numbers":[67,74,64,61,83],"points_earned":346,"trial_type":"horizons-task","trial_index":77,"time_elapsed":775091,"internal_node_id":"0.0-73.0"},{"response_times":[583.7299998383969,454.12499993108213,390.4750000219792,491.2699998822063,1917.8650001995265,410.21499992348254,516.9850001111627,204.35000001452863,211.50000020861626,187.51999991945922],"keys_pressed":["rightarrow","leftarrow","rightarrow","rightarrow","leftarrow","leftarrow","leftarrow","leftarrow","leftarrow","leftarrow"],"horizon":10,"forced_choices":["rightarrow","leftarrow","rightarrow","rightarrow"],"right_color":"orange","left_color":"lightblue","left_mu":60,"right_mu":56,"left_numbers":[63,53,50,52,71,69,58,62,58,52],"right_numbers":[58,54,53,57,63,53,64,48,59,51],"points_earned":591,"trial_type":"horizons-task","trial_index":78,"time_elapsed":781970,"internal_node_id":"0.0-74.0"},{"response_times":[686.055000172928,311.93499988876283,640.2449999004602,565.6400001607835,827.9800000600517],"keys_pressed":["leftarrow","rightarrow","rightarrow","rightarrow","leftarrow"],"horizon":5,"forced_choices":["leftarrow","rightarrow","rightarrow","rightarrow"],"right_color":"orange","left_color":"lightblue","left_mu":40,"right_mu":20,"left_numbers":[22,45,37,44,44],"right_numbers":[14,16,15,15,19],"points_earned":112,"trial_type":"horizons-task","trial_index":79,"time_elapsed":786511,"internal_node_id":"0.0-75.0"},{"response_times":[447.6450001820922,481.33999994024634,577.5150000117719,532.8200000803918,1178.0250000301749],"keys_pressed":["rightarrow","leftarrow","rightarrow","rightarrow","rightarrow"],"horizon":5,"forced_choices":["rightarrow","leftarrow","rightarrow","rightarrow"],"right_color":"lightblue","left_color":"orange","left_mu":40,"right_mu":60,"left_numbers":[39,60,41,30,38],"right_numbers":[72,57,64,54,71],"points_earned":321,"trial_type":"horizons-task","trial_index":80,"time_elapsed":791232,"internal_node_id":"0.0-76.0"},{"response_times":[430.0300001632422,408.5899998899549,438.61999991349876,598.3750000596046,936.2399999517947,1364.2550001386553,873.6149999313056,396.25500002875924,187.11499986238778,402.2249998524785],"keys_pressed":["rightarrow","rightarrow","rightarrow","leftarrow","leftarrow","rightarrow","rightarrow","rightarrow","rightarrow","rightarrow"],"horizon":10,"forced_choices":["rightarrow","rightarrow","rightarrow","leftarrow"],"right_color":"orange","left_color":"lightblue","left_mu":40,"right_mu":52,"left_numbers":[41,25,31,30,37,33,43,24,51,40],"right_numbers":[56,58,47,50,62,39,37,55,62,47],"points_earned":468,"trial_type":"horizons-task","trial_index":81,"time_elapsed":798773,"internal_node_id":"0.0-77.0"},{"response_times":[1155.155000044033,402.57999999448657,623.5750000923872,463.76499999314547,1568.1249999906868,321.97499996982515,785.8549999073148,287.8900000359863,200.07000002078712,184.00000012479722],"keys_pressed":["leftarrow","rightarrow","rightarrow","leftarrow","leftarrow","rightarrow","rightarrow","rightarrow","rightarrow","rightarrow"],"horizon":10,"forced_choices":["leftarrow","rightarrow","rightarrow","leftarrow"],"right_color":"lightblue","left_color":"orange","left_mu":40,"right_mu":48,"left_numbers":[45,26,45,33,30,38,36,37,55,23],"right_numbers":[43,42,61,55,51,42,46,46,43,35],"points_earned":423,"trial_type":"horizons-task","trial_index":82,"time_elapsed":806280,"internal_node_id":"0.0-78.0"},{"response_times":[516.0199999809265,345.8799999207258,670.1649997849017,393.93999986350536,2067.9999999701977,357.8500000294298,292.3249998129904,253.6750000435859,251.91999995149672,339.9900000076741],"keys_pressed":["rightarrow","leftarrow","rightarrow","leftarrow","leftarrow","leftarrow","leftarrow","leftarrow","leftarrow","leftarrow"],"horizon":10,"forced_choices":["rightarrow","leftarrow","rightarrow","leftarrow"],"right_color":"orange","left_color":"lightblue","left_mu":40,"right_mu":10,"left_numbers":[35,42,37,33,48,31,44,42,33,29],"right_numbers":[9,0,5,11,6,6,17,14,8,17],"points_earned":316,"trial_type":"horizons-task","trial_index":83,"time_elapsed":813278,"internal_node_id":"0.0-79.0"},{"response_times":[601.299999980256,333.02500005811453,389.9300000630319,440.3800000436604,3491.5950000286102],"keys_pressed":["leftarrow","rightarrow","leftarrow","rightarrow","leftarrow"],"horizon":5,"forced_choices":["leftarrow","rightarrow","leftarrow","rightarrow"],"right_color":"orange","left_color":"lightblue","left_mu":60,"right_mu":64,"left_numbers":[60,61,66,51,71],"right_numbers":[64,63,61,45,75],"points_earned":305,"trial_type":"horizons-task","trial_index":84,"time_elapsed":820039,"internal_node_id":"0.0-80.0"},{"response_times":[486.9550000876188,336.15999994799495,423.7949999514967,480.1450001541525,3080.6899999734014,539.1400000080466,373.97499987855554,217.91999996639788,174.89000014029443,233.04000007919967],"keys_pressed":["rightarrow","leftarrow","leftarrow","leftarrow","rightarrow","rightarrow","leftarrow","leftarrow","leftarrow","leftarrow"],"horizon":10,"forced_choices":["rightarrow","leftarrow","leftarrow","leftarrow"],"right_color":"orange","left_color":"lightblue","left_mu":60,"right_mu":48,"left_numbers":[61,66,50,66,59,57,81,63,60,59],"right_numbers":[41,56,57,58,29,46,46,56,52,47],"points_earned":561,"trial_type":"horizons-task","trial_index":85,"time_elapsed":827891,"internal_node_id":"0.0-81.0"},{"response_times":[865.7500001136214,403.60999992117286,423.8950000144541,393.1799998972565,1940.8700000494719,523.914999794215,200.48499992117286,173.6900000832975,181.54999986290932,167.0650001615286],"keys_pressed":["rightarrow","leftarrow","leftarrow","rightarrow","rightarrow","rightarrow","rightarrow","rightarrow","rightarrow","rightarrow"],"horizon":10,"forced_choices":["rightarrow","leftarrow","leftarrow","rightarrow"],"right_color":"lightblue","left_color":"orange","left_mu":40,"right_mu":60,"left_numbers":[51,33,48,36,24,37,40,44,41,43],"right_numbers":[64,63,49,51,52,74,60,64,60,55],"points_earned":561,"trial_type":"horizons-task","trial_index":86,"time_elapsed":834669,"internal_node_id":"0.0-82.0"},{"response_times":[687.6650000922382,332.0299999322742,345.30499996617436,543.6450000852346,1156.25],"keys_pressed":["leftarrow","rightarrow","leftarrow","rightarrow","leftarrow"],"horizon":5,"forced_choices":["leftarrow","rightarrow","leftarrow","rightarrow"],"right_color":"lightblue","left_color":"orange","left_mu":40,"right_mu":20,"left_numbers":[32,35,28,44,43],"right_numbers":[18,17,23,25,19],"points_earned":145,"trial_type":"horizons-task","trial_index":87,"time_elapsed":839244,"internal_node_id":"0.0-83.0"},{"response_times":[566.4800000376999,324.98000003397465,706.9999999366701,532.2300000116229,1361.5550000686198,170.1400000602007,2936.2549998331815,509.6450001001358,312.02500010840595,225.90499999932945],"keys_pressed":["leftarrow","rightarrow","rightarrow","leftarrow","leftarrow","rightarrow","leftarrow","leftarrow","leftarrow","leftarrow"],"horizon":10,"forced_choices":["leftarrow","rightarrow","rightarrow","leftarrow"],"right_color":"orange","left_color":"lightblue","left_mu":60,"right_mu":52,"left_numbers":[62,88,58,51,59,64,70,42,52,62],"right_numbers":[60,33,69,48,51,49,53,66,48,41],"points_earned":549,"trial_type":"horizons-task","trial_index":88,"time_elapsed":848405,"internal_node_id":"0.0-84.0"},{"response_times":[601.4199999626726,405.96999996341765,468.05000002495944,1013.9899998903275,1381.9200000725687],"keys_pressed":["rightarrow","leftarrow","rightarrow","rightarrow","rightarrow"],"horizon":5,"forced_choices":["rightarrow","leftarrow","rightarrow","rightarrow"],"right_color":"orange","left_color":"lightblue","left_mu":60,"right_mu":72,"left_numbers":[69,54,57,61,59],"right_numbers":[84,74,78,78,50],"points_earned":344,"trial_type":"horizons-task","trial_index":89,"time_elapsed":853784,"internal_node_id":"0.0-85.0"},{"rt":22742.520000087097,"responses":{"age":"41","gender-categorical":"Male","gender-free-response":"","ethnicity":"Not Hispanic or Latino","race":["Asian"],"language":"Yes","fluency":"Very well"},"survey":"demographics","trial_type":"survey-demo","trial_index":90,"time_elapsed":876529,"internal_node_id":"0.0-86.0"},{"rt":24985.19999999553,"responses":{"difficulty":"5","fun":"4","clarity":"5","strategy":"No.","feedback":""},"survey":"debrief","trial_type":"survey-debrief","trial_index":91,"time_elapsed":901516,"internal_node_id":"0.0-87.0","interactions":"[]"}]