[{"view_history":"[{\"page_index\":0,\"viewing_time\":1290.9349999390543}]","rt":1291.2849998101592,"trial_type":"instructions","trial_index":0,"time_elapsed":1296,"internal_node_id":"0.0-0.0"},{"item_order":[0,15,10,4,13,6,12,8,5,9,7,2,16,3,1,11,14],"responses":{"Q01":"3","Q16":"3","Q11":"3","Q05":"2","Q14":"2","Q07":"2","Q13":"1","Q09":"3","Q06":"3","Q10":"4","Q08":"2","Q03":"3","Q17":"0","Q04":"2","Q02":"1","Q12":"2","Q15":"1"},"radio_events":[5588.149999966845,7276.10499993898,14299.569999799132,15124.044999945909,17092.1199999284,20971.749999793246,23003.879999974743,23340.304999845102,26324.049999937415,30691.899999976158,32619.594999821857,33779.98499991372,35404.12999992259,39947.87999987602,41140.00499993563,43627.60499981232,44452.04999996349],"key_events":[],"mouse_events":[0.2849998418241739,5588.149999966845,7276.10499993898,8395.844999933615,12755.67499990575,13204.11999989301,14299.569999799132,15124.044999945909,16371.694999979809,17092.1199999284,18635.444999905303,19355.52499978803,19843.93999981694,20971.749999793246,22220.054999925196,23003.879999974743,23340.304999845102,26324.049999937415,30691.899999976158,31772.08499982953,32619.594999821857,33779.98499991372,35404.12999992259,39947.87999987602,41140.00499993563,42828.029999975115,43627.60499981232,44452.04999996349,45540.11999978684],"rt":45543.04499994032,"survey":"pswq","trial_type":"survey-template","trial_index":1,"time_elapsed":46844,"internal_node_id":"0.0-1.0"},{"item_order":[5,12,7,6,1,0,11,9,4,8,2,10,3],"responses":{"Q06":"0","Q13":"4","Q08":"3","Q07":"3","Q02":"3","Q01":"3","Q12":"1","Q10":"0","Q05":"1","Q09":"0","Q03":"0","Q11":"2","Q04":"1"},"radio_events":[4753.395000007004,6881.885000038892,8161.640000063926,9353.309999918565,12497.609999962151,13329.385000048205,15641.665000002831,17825.674999970943,20577.520000049844,21801.04500008747,23577.44499994442,25113.63000003621,27593.61999994144],"key_events":[],"mouse_events":[4753.395000007004,6881.885000038892,8161.640000063926,9353.309999918565,10649.459999985993,11769.444999983534,12497.609999962151,13329.385000048205,15641.665000002831,17825.674999970943,19209.439999889582,20577.520000049844,21801.04500008747,23577.44499994442,25113.63000003621,27097.064999863505,27593.61999994144,28697.230000048876],"rt":28698.580000083894,"survey":"ius12","trial_type":"survey-template","trial_index":2,"time_elapsed":75545,"internal_node_id":"0.0-2.0"},{"view_history":"[{\"page_index\":0,\"viewing_time\":1685.6700000353158},{\"page_index\":1,\"viewing_time\":2455.8850000612438},{\"page_index\":2,\"viewing_time\":4663.759999908507},{\"page_index\":3,\"viewing_time\":3200.0300001818687},{\"page_index\":4,\"viewing_time\":2592.010000022128},{\"page_index\":5,\"viewing_time\":2288.219999987632},{\"page_index\":6,\"viewing_time\":4663.789999904111},{\"page_index\":7,\"viewing_time\":4159.76499998942},{\"page_index\":8,\"viewing_time\":2608.4300000220537},{\"page_index\":9,\"viewing_time\":2840.1099999900907}]","rt":31157.935000024736,"trial_type":"instructions","trial_index":3,"time_elapsed":106703,"internal_node_id":"0.0-3.0-0.0"},{"response_times":[2075.110000092536,897.374999942258,548.1449998915195,576.839999994263,4086.054999846965],"keys_pressed":["rightarrow","leftarrow","rightarrow","rightarrow","rightarrow"],"horizon":5,"forced_choices":["rightarrow","leftarrow","rightarrow","rightarrow"],"right_color":"lightblue","left_color":"orange","left_mu":40,"right_mu":20,"left_numbers":[42,18,50,25,31],"right_numbers":[11,20,14,37,10],"points_earned":90,"trial_type":"horizons-task","trial_index":4,"time_elapsed":116399,"internal_node_id":"0.0-3.0-1.0"},{"response_times":[822.3850000649691,492.545000044629,456.9900000933558,479.37000007368624,3842.570000095293,1232.2949999943376,739.4349998794496,1714.2799999564886,1558.26500011608,1232.6350000221282],"keys_pressed":["leftarrow","leftarrow","rightarrow","rightarrow","rightarrow","rightarrow","rightarrow","leftarrow","leftarrow","leftarrow"],"horizon":10,"forced_choices":["leftarrow","leftarrow","rightarrow","rightarrow"],"right_color":"orange","left_color":"lightblue","left_mu":60,"right_mu":70,"left_numbers":[66,54,52,49,52,52,42,61,64,64],"right_numbers":[76,67,79,69,77,70,61,77,70,71],"points_earned":665,"trial_type":"horizons-task","trial_index":5,"time_elapsed":130473,"internal_node_id":"0.0-3.0-2.0"},{"view_history":"[{\"page_index\":0,\"viewing_time\":2555.7750000152737},{\"page_index\":1,\"viewing_time\":1063.205000013113},{\"page_index\":2,\"viewing_time\":1041.3649999536574},{\"page_index\":3,\"viewing_time\":1139.0800001099706}]","rt":5799.9650000128895,"trial_type":"instructions","trial_index":6,"time_elapsed":136275,"internal_node_id":"0.0-3.0-3.0"},{"responses":["true","false","false","true"],"num_errors":0,"rt":8897.37999998033,"trial_type":"horizons-comprehension","trial_index":7,"time_elapsed":145176,"internal_node_id":"0.0-3.0-4.0"},{"view_history":"[{\"page_index\":0,\"viewing_time\":1028.334999922663},{\"page_index\":1,\"viewing_time\":1447.480000089854}]","rt":2476.0600000154227,"trial_type":"instructions","trial_index":8,"time_elapsed":147655,"internal_node_id":"0.0-4.0"},{"response_times":[1641.7149999178946,459.9550000857562,491.9600000139326,599.4499998632818,1123.6699998844415],"keys_pressed":["rightarrow","leftarrow","leftarrow","leftarrow","leftarrow"],"horizon":5,"forced_choices":["rightarrow","leftarrow","leftarrow","leftarrow"],"right_color":"lightblue","left_color":"orange","left_mu":60,"right_mu":40,"left_numbers":[64,57,64,62,65],"right_numbers":[35,47,41,35,28],"points_earned":283,"trial_type":"horizons-task","trial_index":9,"time_elapsed":153476,"internal_node_id":"0.0-5.0"},{"response_times":[617.6050000358373,376.9699998665601,406.74000000581145,434.2650000471622,1878.4900000318885,608.890000032261,1058.8899999856949,669.529999839142,470.37999983876944,605.5000000633299],"keys_pressed":["leftarrow","rightarrow","leftarrow","leftarrow","rightarrow","leftarrow","leftarrow","leftarrow","leftarrow","rightarrow"],"horizon":10,"forced_choices":["leftarrow","rightarrow","leftarrow","leftarrow"],"right_color":"lightblue","left_color":"orange","left_mu":40,"right_mu":32,"left_numbers":[28,31,36,41,39,27,31,36,32,32],"right_numbers":[29,46,31,41,26,32,20,39,27,34],"points_earned":337,"trial_type":"horizons-task","trial_index":10,"time_elapsed":162106,"internal_node_id":"0.0-6.0"},{"response_times":[614.5300001371652,314.24999982118607,328.6500000394881,482.0050001144409,1968.590000178665,455.16499993391335,466.50499990209937,513.4799999650568,329.4999999925494,215.08500003255904],"keys_pressed":["leftarrow","rightarrow","rightarrow","rightarrow","leftarrow","leftarrow","leftarrow","leftarrow","leftarrow","leftarrow"],"horizon":10,"forced_choices":["leftarrow","rightarrow","rightarrow","rightarrow"],"right_color":"orange","left_color":"lightblue","left_mu":60,"right_mu":52,"left_numbers":[56,67,78,66,62,65,59,75,56,61],"right_numbers":[55,55,44,54,50,50,63,70,49,40],"points_earned":587,"trial_type":"horizons-task","trial_index":11,"time_elapsed":169296,"internal_node_id":"0.0-7.0"},{"response_times":[591.2800000514835,417.1500001102686,420.3250000718981,377.2250001784414,2655.2200000733137,599.3649999145418,513.0900000222027,828.5000000614673,615.0100000668317,405.8099999092519],"keys_pressed":["rightarrow","leftarrow","leftarrow","rightarrow","leftarrow","leftarrow","leftarrow","rightarrow","leftarrow","leftarrow"],"horizon":10,"forced_choices":["rightarrow","leftarrow","leftarrow","rightarrow"],"right_color":"lightblue","left_color":"orange","left_mu":40,"right_mu":20,"left_numbers":[28,49,34,43,41,46,31,40,35,35],"right_numbers":[25,12,18,30,24,13,24,16,29,31],"points_earned":342,"trial_type":"horizons-task","trial_index":12,"time_elapsed":178222,"internal_node_id":"0.0-8.0"},{"response_times":[535.1750000845641,398.5549998469651,379.73499996587634,416.18499998003244,1507.32500012964,579.9950000364333,678.139999974519,670.3999999444932,654.0000000968575,517.4050000496209],"keys_pressed":["leftarrow","leftarrow","rightarrow","leftarrow","leftarrow","leftarrow","leftarrow","rightarrow","rightarrow","leftarrow"],"horizon":10,"forced_choices":["leftarrow","leftarrow","rightarrow","leftarrow"],"right_color":"orange","left_color":"lightblue","left_mu":40,"right_mu":28,"left_numbers":[37,31,52,60,39,36,37,39,42,32],"right_numbers":[30,22,36,19,33,18,46,38,22,9],"points_earned":368,"trial_type":"horizons-task","trial_index":13,"time_elapsed":186065,"internal_node_id":"0.0-9.0"},{"response_times":[536.6050000302494,389.2500000074506,439.72000014036894,408.1850000657141,458.5000001825392,1790.4250000137836,486.670000012964,427.79000010341406,189.62000007741153,149.32500012218952],"keys_pressed":["rightarrow","rightarrow","rightarrow","leftarrow","leftarrow","rightarrow","rightarrow","rightarrow","rightarrow","rightarrow"],"horizon":10,"forced_choices":["rightarrow","rightarrow","rightarrow","leftarrow"],"right_color":"orange","left_color":"lightblue","left_mu":60,"right_mu":72,"left_numbers":[48,63,53,64,68,57,71,60,53,56],"right_numbers":[79,72,62,64,71,69,74,77,66,78],"points_earned":709,"trial_type":"horizons-task","trial_index":14,"time_elapsed":192844,"internal_node_id":"0.0-10.0"},{"response_times":[469.2600001581013,374.06500009819865,435.6350000016391,446.13500009290874,1226.1149999685585],"keys_pressed":["rightarrow","leftarrow","leftarrow","rightarrow","leftarrow"],"horizon":5,"forced_choices":["rightarrow","leftarrow","leftarrow","rightarrow"],"right_color":"orange","left_color":"lightblue","left_mu":40,"right_mu":32,"left_numbers":[34,43,51,47,48],"right_numbers":[37,26,21,34,24],"points_earned":213,"trial_type":"horizons-task","trial_index":15,"time_elapsed":197309,"internal_node_id":"0.0-11.0"},{"response_times":[507.3299999348819,383.2700001075864,413.0900001619011,520.079999929294,1322.1450001001358],"keys_pressed":["rightarrow","leftarrow","leftarrow","rightarrow","rightarrow"],"horizon":5,"forced_choices":["rightarrow","leftarrow","leftarrow","rightarrow"],"right_color":"lightblue","left_color":"orange","left_mu":40,"right_mu":70,"left_numbers":[35,28,34,38,23],"right_numbers":[54,64,72,62,61],"points_earned":239,"trial_type":"horizons-task","trial_index":16,"time_elapsed":201958,"internal_node_id":"0.0-12.0"},{"response_times":[462.0099999010563,388.6150000616908,401.45999984815717,387.2550001833588,1015.3349998872727,529.829999897629,448.41499999165535,163.11499988660216,143.03999999538064,155.2699999883771],"keys_pressed":["leftarrow","leftarrow","leftarrow","rightarrow","leftarrow","leftarrow","leftarrow","leftarrow","leftarrow","leftarrow"],"horizon":10,"forced_choices":["leftarrow","leftarrow","leftarrow","rightarrow"],"right_color":"orange","left_color":"lightblue","left_mu":60,"right_mu":30,"left_numbers":[66,51,49,63,66,64,64,57,56,56],"right_numbers":[34,47,34,33,28,22,27,24,39,27],"points_earned":562,"trial_type":"horizons-task","trial_index":17,"time_elapsed":207556,"internal_node_id":"0.0-13.0"},{"response_times":[491.42000009305775,330.16499993391335,365.80000002868474,556.9299999624491,990.1149999350309,475.6499999202788,271.2949998676777,152.01500011608005,147.91500009596348,143.20499985478818],"keys_pressed":["leftarrow","rightarrow","rightarrow","rightarrow","leftarrow","leftarrow","leftarrow","leftarrow","leftarrow","leftarrow"],"horizon":10,"forced_choices":["leftarrow","rightarrow","rightarrow","rightarrow"],"right_color":"lightblue","left_color":"orange","left_mu":40,"right_mu":10,"left_numbers":[47,37,47,36,38,48,30,49,46,34],"right_numbers":[5,15,10,9,0,19,4,14,0,8],"points_earned":326,"trial_type":"horizons-task","trial_index":18,"time_elapsed":212983,"internal_node_id":"0.0-14.0"},{"response_times":[445.0799999758601,342.9649998433888,323.36500007659197,402.35999994911253,915.4700001236051],"keys_pressed":["leftarrow","rightarrow","leftarrow","rightarrow","rightarrow"],"horizon":5,"forced_choices":["leftarrow","rightarrow","leftarrow","rightarrow"],"right_color":"orange","left_color":"lightblue","left_mu":60,"right_mu":90,"left_numbers":[68,62,73,68,47],"right_numbers":[95,93,86,84,85],"points_earned":403,"trial_type":"horizons-task","trial_index":19,"time_elapsed":216915,"internal_node_id":"0.0-15.0"},{"response_times":[491.36499990709126,292.02000005170703,387.86500017158687,432.5749999843538,1510.634999955073,366.12999998033047,127.21500010229647,138.49500007927418,134.45000001229346,548.6899998504668],"keys_pressed":["leftarrow","rightarrow","rightarrow","rightarrow","rightarrow","rightarrow","rightarrow","rightarrow","rightarrow","rightarrow"],"horizon":10,"forced_choices":["leftarrow","rightarrow","rightarrow","rightarrow"],"right_color":"orange","left_color":"lightblue","left_mu":60,"right_mu":90,"left_numbers":[60,52,67,72,56,57,49,61,87,79],"right_numbers":[100,82,86,82,84,103,82,92,94,97],"points_earned":862,"trial_type":"horizons-task","trial_index":20,"time_elapsed":222847,"internal_node_id":"0.0-16.0"},{"response_times":[508.6900000460446,329.75499983876944,515.4600001405925,491.00999999791384,1095.9799999836832],"keys_pressed":["rightarrow","leftarrow","leftarrow","rightarrow","leftarrow"],"horizon":5,"forced_choices":["rightarrow","leftarrow","leftarrow","rightarrow"],"right_color":"lightblue","left_color":"orange","left_mu":60,"right_mu":40,"left_numbers":[60,53,58,73,64],"right_numbers":[37,32,33,40,35],"points_earned":252,"trial_type":"horizons-task","trial_index":21,"time_elapsed":227291,"internal_node_id":"0.0-17.0"},{"response_times":[457.73499994538724,394.47000017389655,495.52499991841614,449.1200000047684,924.1100000217557],"keys_pressed":["rightarrow","leftarrow","leftarrow","rightarrow","leftarrow"],"horizon":5,"forced_choices":["rightarrow","leftarrow","leftarrow","rightarrow"],"right_color":"orange","left_color":"lightblue","left_mu":40,"right_mu":20,"left_numbers":[40,38,51,41,31],"right_numbers":[20,30,20,12,15],"points_earned":152,"trial_type":"horizons-task","trial_index":22,"time_elapsed":231515,"internal_node_id":"0.0-18.0"},{"response_times":[438.01499996334314,341.0350000485778,375.5250000394881,633.2099998835474,956.7950000055134],"keys_pressed":["leftarrow","rightarrow","rightarrow","rightarrow","rightarrow"],"horizon":5,"forced_choices":["leftarrow","rightarrow","rightarrow","rightarrow"],"right_color":"orange","left_color":"lightblue","left_mu":60,"right_mu":72,"left_numbers":[67,68,63,70,81],"right_numbers":[75,65,78,60,66],"points_earned":336,"trial_type":"horizons-task","trial_index":23,"time_elapsed":235764,"internal_node_id":"0.0-19.0"},{"response_times":[523.6500001046807,464.8049999959767,621.7950000427663,532.0999999530613,2135.095000034198],"keys_pressed":["rightarrow","rightarrow","leftarrow","rightarrow","leftarrow"],"horizon":5,"forced_choices":["rightarrow","rightarrow","leftarrow","rightarrow"],"right_color":"lightblue","left_color":"orange","left_mu":60,"right_mu":48,"left_numbers":[57,48,54,58,74],"right_numbers":[43,36,51,51,44],"points_earned":258,"trial_type":"horizons-task","trial_index":24,"time_elapsed":241545,"internal_node_id":"0.0-20.0"},{"response_times":[488.6350000742823,286.2750000786036,340.1750000193715,391.55000005848706,1435.70000003092,362.17500013299286,142.36499997787178,138.19000008516014,140.89500019326806,147.4999999627471],"keys_pressed":["leftarrow","rightarrow","rightarrow","rightarrow","rightarrow","rightarrow","rightarrow","rightarrow","rightarrow","rightarrow"],"horizon":10,"forced_choices":["leftarrow","rightarrow","rightarrow","rightarrow"],"right_color":"lightblue","left_color":"orange","left_mu":60,"right_mu":68,"left_numbers":[49,55,46,62,56,51,54,55,71,56],"right_numbers":[65,60,66,82,71,75,63,72,66,58],"points_earned":662,"trial_type":"horizons-task","trial_index":25,"time_elapsed":246922,"internal_node_id":"0.0-21.0"},{"response_times":[496.77499989047647,385.6849998701364,366.3849998265505,447.9000000283122,2447.42999994196],"keys_pressed":["leftarrow","leftarrow","rightarrow","rightarrow","rightarrow"],"horizon":5,"forced_choices":["leftarrow","leftarrow","rightarrow","rightarrow"],"right_color":"lightblue","left_color":"orange","left_mu":40,"right_mu":44,"left_numbers":[38,42,36,40,43],"right_numbers":[46,42,50,40,30],"points_earned":200,"trial_type":"horizons-task","trial_index":26,"time_elapsed":252570,"internal_node_id":"0.0-22.0"},{"response_times":[718.8150000292808,387.7649998757988,703.8950000423938,382.10500008426607,1251.4499998651445,816.5299999527633,663.2000000681728,180.81000004895031,139.90500010550022,135.26999996975064],"keys_pressed":["rightarrow","rightarrow","rightarrow","leftarrow","rightarrow","rightarrow","rightarrow","rightarrow","rightarrow","rightarrow"],"horizon":10,"forced_choices":["rightarrow","rightarrow","rightarrow","leftarrow"],"right_color":"lightblue","left_color":"orange","left_mu":60,"right_mu":72,"left_numbers":[57,60,55,45,79,48,59,53,55,71],"right_numbers":[68,74,75,64,56,82,63,66,63,75],"points_earned":667,"trial_type":"horizons-task","trial_index":27,"time_elapsed":259454,"internal_node_id":"0.0-23.0"},{"response_times":[482.5750000309199,307.6650002039969,363.0150000099093,368.26499993912876,1214.8799998685718,729.0399998892099,511.78500009700656,155.0449999049306,145.00500005669892,472.98000007867813],"keys_pressed":["rightarrow","leftarrow","leftarrow","rightarrow","leftarrow","leftarrow","leftarrow","leftarrow","leftarrow","leftarrow"],"horizon":10,"forced_choices":["rightarrow","leftarrow","leftarrow","rightarrow"],"right_color":"lightblue","left_color":"orange","left_mu":40,"right_mu":36,"left_numbers":[39,34,34,29,44,52,38,20,45,36],"right_numbers":[39,48,33,38,25,23,42,48,30,37],"points_earned":380,"trial_type":"horizons-task","trial_index":28,"time_elapsed":265708,"internal_node_id":"0.0-24.0"},{"response_times":[507.28000001981854,381.6400000359863,412.76999982073903,527.4399998597801,876.7799998167902],"keys_pressed":["rightarrow","rightarrow","rightarrow","leftarrow","leftarrow"],"horizon":5,"forced_choices":["rightarrow","rightarrow","rightarrow","leftarrow"],"right_color":"lightblue","left_color":"orange","left_mu":60,"right_mu":30,"left_numbers":[60,47,50,54,69],"right_numbers":[37,26,36,40,13],"points_earned":222,"trial_type":"horizons-task","trial_index":29,"time_elapsed":269918,"internal_node_id":"0.0-25.0"},{"response_times":[475.50499998033047,334.63499997742474,372.0799998845905,482.0550000295043,1525.2549999859184],"keys_pressed":["rightarrow","leftarrow","rightarrow","rightarrow","rightarrow"],"horizon":5,"forced_choices":["rightarrow","leftarrow","rightarrow","rightarrow"],"right_color":"lightblue","left_color":"orange","left_mu":40,"right_mu":32,"left_numbers":[53,42,36,35,44],"right_numbers":[25,34,47,25,29],"points_earned":168,"trial_type":"horizons-task","trial_index":30,"time_elapsed":274611,"internal_node_id":"0.0-26.0"},{"response_times":[464.9999998509884,323.85000004433095,377.5200000964105,314.1850000247359,1575.294999871403,438.58499987982213,455.5299999192357,171.83000012300909,154.05000001192093,156.50499984622002],"keys_pressed":["rightarrow","leftarrow","leftarrow","rightarrow","leftarrow","leftarrow","leftarrow","leftarrow","leftarrow","leftarrow"],"horizon":10,"forced_choices":["rightarrow","leftarrow","leftarrow","rightarrow"],"right_color":"orange","left_color":"lightblue","left_mu":40,"right_mu":10,"left_numbers":[35,28,48,57,30,41,29,37,37,34],"right_numbers":[19,14,14,14,11,6,21,0,10,17],"points_earned":317,"trial_type":"horizons-task","trial_index":31,"time_elapsed":280545,"internal_node_id":"0.0-27.0"},{"response_times":[512.1800000779331,329.61000013165176,378.2500000670552,442.6300001796335,887.6350000500679],"keys_pressed":["leftarrow","rightarrow","rightarrow","rightarrow","rightarrow"],"horizon":5,"forced_choices":["leftarrow","rightarrow","rightarrow","rightarrow"],"right_color":"orange","left_color":"lightblue","left_mu":40,"right_mu":70,"left_numbers":[35,34,32,42,47],"right_numbers":[70,61,92,65,88],"points_earned":341,"trial_type":"horizons-task","trial_index":32,"time_elapsed":284600,"internal_node_id":"0.0-28.0"},{"response_times":[475.65499995835125,284.4699998386204,316.8800000566989,383.75500007532537,909.3750000465661],"keys_pressed":["rightarrow","leftarrow","rightarrow","rightarrow","rightarrow"],"horizon":5,"forced_choices":["rightarrow","leftarrow","rightarrow","rightarrow"],"right_color":"lightblue","left_color":"orange","left_mu":40,"right_mu":70,"left_numbers":[41,31,32,36,31],"right_numbers":[72,67,63,72,74],"points_earned":312,"trial_type":"horizons-task","trial_index":33,"time_elapsed":288472,"internal_node_id":"0.0-29.0"},{"response_times":[434.3049998860806,298.0749998241663,349.9999998603016,383.6000000592321,1187.4299999326468,363.7600000947714,159.48499995283782,153.96000002510846,162.56999992765486,158.46499986946583],"keys_pressed":["leftarrow","rightarrow","leftarrow","rightarrow","rightarrow","rightarrow","rightarrow","rightarrow","rightarrow","rightarrow"],"horizon":10,"forced_choices":["leftarrow","rightarrow","leftarrow","rightarrow"],"right_color":"lightblue","left_color":"orange","left_mu":60,"right_mu":72,"left_numbers":[56,68,56,64,68,56,62,87,58,44],"right_numbers":[81,70,71,74,76,69,73,62,66,71],"points_earned":673,"trial_type":"horizons-task","trial_index":34,"time_elapsed":293628,"internal_node_id":"0.0-30.0"},{"response_times":[485.0899998564273,281.22000000439584,301.549999974668,454.38500004820526,1266.5999999735504,1354.3499999213964,554.2150000110269,292.2799999359995,158.32499996758997,142.8849999792874],"keys_pressed":["rightarrow","leftarrow","rightarrow","rightarrow","rightarrow","leftarrow","leftarrow","leftarrow","leftarrow","leftarrow"],"horizon":10,"forced_choices":["rightarrow","leftarrow","rightarrow","rightarrow"],"right_color":"orange","left_color":"lightblue","left_mu":60,"right_mu":56,"left_numbers":[56,47,63,78,42,71,62,57,46,56],"right_numbers":[61,51,60,58,63,57,53,57,57,69],"points_earned":581,"trial_type":"horizons-task","trial_index":35,"time_elapsed":300424,"internal_node_id":"0.0-31.0"},{"response_times":[456.270000198856,319.24499990418553,266.36999985203147,530.7399998418987,1281.9699998944998,444.65499999932945,268.2799999602139,172.614999813959,141.85999985784292,150.43499995954335],"keys_pressed":["rightarrow","leftarrow","rightarrow","leftarrow","rightarrow","rightarrow","rightarrow","rightarrow","rightarrow","rightarrow"],"horizon":10,"forced_choices":["rightarrow","leftarrow","rightarrow","leftarrow"],"right_color":"orange","left_color":"lightblue","left_mu":60,"right_mu":90,"left_numbers":[52,63,58,61,56,64,61,50,55,64],"right_numbers":[102,94,92,106,103,100,92,87,94,88],"points_earned":882,"trial_type":"horizons-task","trial_index":36,"time_elapsed":305960,"internal_node_id":"0.0-32.0"},{"response_times":[458.5949999745935,168.4099999256432,411.37999994680285,363.2849999703467,1069.2500001750886],"keys_pressed":["rightarrow","leftarrow","rightarrow","leftarrow","leftarrow"],"horizon":5,"forced_choices":["rightarrow","leftarrow","rightarrow","leftarrow"],"right_color":"lightblue","left_color":"orange","left_mu":60,"right_mu":40,"left_numbers":[63,56,52,67,66],"right_numbers":[36,37,48,31,41],"points_earned":273,"trial_type":"horizons-task","trial_index":37,"time_elapsed":309935,"internal_node_id":"0.0-33.0"},{"response_times":[397.6249999832362,602.3199998307973,436.63499993272126,390.86499996483326,1178.4750001970679,349.1249999497086,161.1999999731779,142.16000004671514,152.4050000589341,143.83499999530613],"keys_pressed":["rightarrow","rightarrow","leftarrow","rightarrow","rightarrow","rightarrow","rightarrow","rightarrow","rightarrow","rightarrow"],"horizon":10,"forced_choices":["rightarrow","rightarrow","leftarrow","rightarrow"],"right_color":"orange","left_color":"lightblue","left_mu":60,"right_mu":90,"left_numbers":[63,55,45,68,49,57,57,58,54,58],"right_numbers":[111,90,91,76,79,101,94,92,82,85],"points_earned":855,"trial_type":"horizons-task","trial_index":38,"time_elapsed":315392,"internal_node_id":"0.0-34.0"},{"response_times":[444.78000001981854,276.8449999857694,513.8850000221282,387.2849999461323,1370.6999998539686,496.44499993883073,624.7400001157075,1060.8500000089407,766.6350000072271,449.4849999900907],"keys_pressed":["leftarrow","rightarrow","rightarrow","leftarrow","leftarrow","leftarrow","rightarrow","leftarrow","rightarrow","rightarrow"],"horizon":10,"forced_choices":["leftarrow","rightarrow","rightarrow","leftarrow"],"right_color":"orange","left_color":"lightblue","left_mu":60,"right_mu":52,"left_numbers":[55,56,55,56,51,64,52,53,64,46],"right_numbers":[48,54,55,55,59,41,58,50,67,52],"points_earned":565,"trial_type":"horizons-task","trial_index":39,"time_elapsed":323286,"internal_node_id":"0.0-35.0"},{"response_times":[682.5899998657405,605.5199999827892,408.460000064224,331.72000013291836,1951.5199998859316,397.7449999656528,126.01999985054135,146.5950000565499,149.70999979414046,135.09500003419816],"keys_pressed":["rightarrow","rightarrow","rightarrow","leftarrow","rightarrow","rightarrow","rightarrow","rightarrow","rightarrow","rightarrow"],"horizon":10,"forced_choices":["rightarrow","rightarrow","rightarrow","leftarrow"],"right_color":"lightblue","left_color":"orange","left_mu":40,"right_mu":52,"left_numbers":[31,48,28,32,42,45,29,42,45,40],"right_numbers":[55,42,45,44,61,55,47,29,49,47],"points_earned":462,"trial_type":"horizons-task","trial_index":40,"time_elapsed":329729,"internal_node_id":"0.0-36.0"},{"response_times":[419.14999997243285,313.289999961853,355.01500009559095,468.0800000205636,1029.5200000982732,939.805000089109,546.2350000161678,434.8299999255687,143.13500002026558,131.3399998471141],"keys_pressed":["rightarrow","rightarrow","leftarrow","rightarrow","rightarrow","leftarrow","leftarrow","leftarrow","leftarrow","leftarrow"],"horizon":10,"forced_choices":["rightarrow","rightarrow","leftarrow","rightarrow"],"right_color":"lightblue","left_color":"orange","left_mu":60,"right_mu":64,"left_numbers":[63,56,57,49,53,63,62,57,66,59],"right_numbers":[58,70,62,71,62,61,61,71,58,59],"points_earned":625,"trial_type":"horizons-task","trial_index":41,"time_elapsed":336012,"internal_node_id":"0.0-37.0"},{"response_times":[417.9299999959767,306.8399999756366,422.9550000745803,327.1949999034405,797.2500000614673,142.84500014036894,144.52999993227422,141.86000009067357,144.98000009916723,128.7750001065433],"keys_pressed":["rightarrow","rightarrow","rightarrow","leftarrow","rightarrow","rightarrow","rightarrow","rightarrow","rightarrow","rightarrow"],"horizon":10,"forced_choices":["rightarrow","rightarrow","rightarrow","leftarrow"],"right_color":"lightblue","left_color":"orange","left_mu":60,"right_mu":72,"left_numbers":[63,77,62,51,56,58,62,59,59,58],"right_numbers":[74,62,66,67,60,73,67,80,62,63],"points_earned":658,"trial_type":"horizons-task","trial_index":42,"time_elapsed":340490,"internal_node_id":"0.0-38.0"},{"response_times":[430.1499999128282,306.15500011481345,282.57500007748604,406.02500014938414,1504.695000126958,397.5349999964237,171.54500004835427,153.31500000320375,159.4650000333786,151.32499998435378],"keys_pressed":["rightarrow","leftarrow","rightarrow","leftarrow","leftarrow","leftarrow","leftarrow","leftarrow","leftarrow","leftarrow"],"horizon":10,"forced_choices":["rightarrow","leftarrow","rightarrow","leftarrow"],"right_color":"lightblue","left_color":"orange","left_mu":40,"right_mu":28,"left_numbers":[39,34,38,41,42,40,50,31,34,47],"right_numbers":[28,22,31,23,23,25,30,14,32,30],"points_earned":378,"trial_type":"horizons-task","trial_index":43,"time_elapsed":345956,"internal_node_id":"0.0-39.0"},{"response_times":[414.55000010319054,320.3050000593066,363.94499987363815,498.6949998419732,857.1450000163168],"keys_pressed":["leftarrow","rightarrow","rightarrow","leftarrow","rightarrow"],"horizon":5,"forced_choices":["leftarrow","rightarrow","rightarrow","leftarrow"],"right_color":"lightblue","left_color":"orange","left_mu":40,"right_mu":36,"left_numbers":[34,65,49,41,31],"right_numbers":[33,26,48,50,23],"points_earned":172,"trial_type":"horizons-task","trial_index":44,"time_elapsed":349913,"internal_node_id":"0.0-40.0"},{"response_times":[483.2450000103563,517.7900001872331,376.2399998959154,363.9850001782179,1685.8550000470132,934.7850000485778,552.99499980174,498.7049999181181,843.9900001976639,151.10000013373792],"keys_pressed":["rightarrow","rightarrow","rightarrow","leftarrow","rightarrow","leftarrow","rightarrow","leftarrow","rightarrow","rightarrow"],"horizon":10,"forced_choices":["rightarrow","rightarrow","rightarrow","leftarrow"],"right_color":"orange","left_color":"lightblue","left_mu":40,"right_mu":44,"left_numbers":[47,39,45,34,24,26,46,28,43,47],"right_numbers":[46,41,42,35,44,51,46,52,38,43],"points_earned":388,"trial_type":"horizons-task","trial_index":45,"time_elapsed":357825,"internal_node_id":"0.0-41.0"},{"response_times":[509.30000003427267,323.10499995946884,364.6449998486787,408.22499990463257,1226.4849999919534,680.8799998834729,603.584999917075,968.6400000937283,618.819999974221,293.21499983780086],"keys_pressed":["leftarrow","rightarrow","rightarrow","leftarrow","leftarrow","rightarrow","leftarrow","rightarrow","leftarrow","leftarrow"],"horizon":10,"forced_choices":["leftarrow","rightarrow","rightarrow","leftarrow"],"right_color":"lightblue","left_color":"orange","left_mu":60,"right_mu":64,"left_numbers":[53,51,64,73,57,57,63,62,60,67],"right_numbers":[63,58,70,63,61,56,60,57,61,70],"points_earned":614,"trial_type":"horizons-task","trial_index":46,"time_elapsed":365325,"internal_node_id":"0.0-42.0"},{"response_times":[431.2950000166893,276.3600000180304,368.7299999874085,311.63499993272126,1525.36499989219,812.2199999634176,607.164999935776,147.06000010482967,147.6000000257045,146.3850000873208],"keys_pressed":["leftarrow","rightarrow","leftarrow","rightarrow","leftarrow","rightarrow","rightarrow","rightarrow","rightarrow","rightarrow"],"horizon":10,"forced_choices":["leftarrow","rightarrow","leftarrow","rightarrow"],"right_color":"orange","left_color":"lightblue","left_mu":60,"right_mu":56,"left_numbers":[68,74,68,50,53,59,61,58,55,63],"right_numbers":[58,64,53,58,61,65,58,41,51,46],"points_earned":572,"trial_type":"horizons-task","trial_index":47,"time_elapsed":371603,"internal_node_id":"0.0-43.0"},{"response_times":[821.2449999991804,309.3699999153614,846.5849999338388,611.8650001008064,3979.4550000224262],"keys_pressed":["rightarrow","rightarrow","leftarrow","leftarrow","leftarrow"],"horizon":5,"forced_choices":["rightarrow","rightarrow","leftarrow","leftarrow"],"right_color":"lightblue","left_color":"orange","left_mu":40,"right_mu":48,"left_numbers":[48,28,32,47,30],"right_numbers":[43,34,42,47,43],"points_earned":186,"trial_type":"horizons-task","trial_index":48,"time_elapsed":379675,"internal_node_id":"0.0-44.0"},{"view_history":"[{\"page_index\":0,\"viewing_time\":9770.765000022948},{\"page_index\":1,\"viewing_time\":2231.639999896288}]","rt":12002.749999985099,"trial_type":"instructions","trial_index":49,"time_elapsed":391680,"internal_node_id":"0.0-45.0"},{"response_times":[1287.4599997885525,274.98499979265034,282.6900000218302,279.6499999240041,1175.804999889806],"keys_pressed":["leftarrow","rightarrow","leftarrow","rightarrow","leftarrow"],"horizon":5,"forced_choices":["leftarrow","rightarrow","leftarrow","rightarrow"],"right_color":"lightblue","left_color":"orange","left_mu":40,"right_mu":36,"left_numbers":[51,49,37,47,35],"right_numbers":[29,29,29,40,31],"points_earned":192,"trial_type":"horizons-task","trial_index":50,"time_elapsed":396488,"internal_node_id":"0.0-46.0"},{"response_times":[440.9099998883903,288.01499982364476,276.8399999476969,337.9850001074374,1398.2649999670684,153.8299999665469,147.00999995693564,145.9599998779595,159.14499992504716,333.6400000844151],"keys_pressed":["leftarrow","rightarrow","leftarrow","rightarrow","leftarrow","leftarrow","leftarrow","leftarrow","leftarrow","leftarrow"],"horizon":10,"forced_choices":["leftarrow","rightarrow","leftarrow","rightarrow"],"right_color":"orange","left_color":"lightblue","left_mu":60,"right_mu":52,"left_numbers":[63,58,65,50,62,71,61,56,41,48],"right_numbers":[57,41,48,53,57,49,60,56,51,58],"points_earned":561,"trial_type":"horizons-task","trial_index":51,"time_elapsed":401672,"internal_node_id":"0.0-47.0"},{"response_times":[452.4300000630319,278.98499998264015,408.8950001168996,369.4299999624491,1081.1099999118596,156.78999992087483,156.1000000219792,144.10999999381602,152.80499984510243,143.770000198856],"keys_pressed":["rightarrow","leftarrow","leftarrow","rightarrow","rightarrow","rightarrow","rightarrow","rightarrow","rightarrow","rightarrow"],"horizon":10,"forced_choices":["rightarrow","leftarrow","leftarrow","rightarrow"],"right_color":"lightblue","left_color":"orange","left_mu":60,"right_mu":90,"left_numbers":[47,55,64,62,62,62,54,51,56,49],"right_numbers":[79,97,103,84,79,83,74,90,79,111],"points_earned":798,"trial_type":"horizons-task","trial_index":52,"time_elapsed":406520,"internal_node_id":"0.0-48.0"},{"response_times":[402.56000007502735,264.3599999137223,256.3799999188632,363.8549998868257,778.3799997996539],"keys_pressed":["leftarrow","rightarrow","leftarrow","leftarrow","leftarrow"],"horizon":5,"forced_choices":["leftarrow","rightarrow","leftarrow","leftarrow"],"right_color":"lightblue","left_color":"orange","left_mu":40,"right_mu":20,"left_numbers":[45,35,41,36,33],"right_numbers":[15,24,23,28,19],"points_earned":179,"trial_type":"horizons-task","trial_index":53,"time_elapsed":410090,"internal_node_id":"0.0-49.0"},{"response_times":[468.0750002153218,192.77499988675117,437.58499994874,688.0850000306964,1013.0849999841303,151.27999987453222,134.26000019535422,149.95499979704618,146.76999999210238,135.46499982476234],"keys_pressed":["rightarrow","leftarrow","leftarrow","leftarrow","leftarrow","leftarrow","leftarrow","leftarrow","leftarrow","leftarrow"],"horizon":10,"forced_choices":["rightarrow","leftarrow","leftarrow","leftarrow"],"right_color":"lightblue","left_color":"orange","left_mu":40,"right_mu":36,"left_numbers":[49,40,51,58,34,36,45,37,49,49],"right_numbers":[54,35,53,34,31,35,43,31,40,34],"points_earned":453,"trial_type":"horizons-task","trial_index":54,"time_elapsed":415109,"internal_node_id":"0.0-50.0"},{"response_times":[577.0600000396371,258.8550001382828,536.7900000419468,258.38500005193055,3854.100000113249,709.4150001648813,507.5199999846518,290.15500005334616,142.22500007599592,128.49000003188848],"keys_pressed":["rightarrow","leftarrow","rightarrow","leftarrow","leftarrow","rightarrow","leftarrow","leftarrow","leftarrow","leftarrow"],"horizon":10,"forced_choices":["rightarrow","leftarrow","rightarrow","leftarrow"],"right_color":"lightblue","left_color":"orange","left_mu":40,"right_mu":28,"left_numbers":[42,39,41,28,36,46,34,42,28,35],"right_numbers":[33,26,21,19,25,25,21,22,26,18],"points_earned":321,"trial_type":"horizons-task","trial_index":55,"time_elapsed":423874,"internal_node_id":"0.0-51.0"},{"response_times":[488.4600001387298,244.9699998833239,370.4899998847395,526.490000076592,828.0350000131875],"keys_pressed":["rightarrow","leftarrow","rightarrow","rightarrow","rightarrow"],"horizon":5,"forced_choices":["rightarrow","leftarrow","rightarrow","rightarrow"],"right_color":"orange","left_color":"lightblue","left_mu":40,"right_mu":60,"left_numbers":[32,44,38,25,28],"right_numbers":[56,68,68,60,51],"points_earned":279,"trial_type":"horizons-task","trial_index":56,"time_elapsed":427835,"internal_node_id":"0.0-52.0"},{"response_times":[442.1800000127405,296.95499991066754,288.535000057891,328.1150001566857,1789.8800000548363,151.2449998408556,149.91500019095838,153.18999998271465,151.13000012934208,134.66500001959503],"keys_pressed":["leftarrow","rightarrow","leftarrow","rightarrow","leftarrow","leftarrow","leftarrow","leftarrow","leftarrow","leftarrow"],"horizon":10,"forced_choices":["leftarrow","rightarrow","leftarrow","rightarrow"],"right_color":"lightblue","left_color":"orange","left_mu":40,"right_mu":20,"left_numbers":[40,38,28,40,49,44,33,44,45,47],"right_numbers":[17,28,18,35,23,6,24,7,18,26],"points_earned":393,"trial_type":"horizons-task","trial_index":57,"time_elapsed":433224,"internal_node_id":"0.0-53.0"},{"response_times":[474.1100000683218,468.19499996490777,487.3450000304729,536.2650000024587,918.8149999827147,284.89500004798174,392.9950001183897,160.71500000543892,150.774999987334,149.80000001378357],"keys_pressed":["leftarrow","rightarrow","rightarrow","rightarrow","leftarrow","leftarrow","leftarrow","leftarrow","leftarrow","leftarrow"],"horizon":10,"forced_choices":["leftarrow","rightarrow","rightarrow","rightarrow"],"right_color":"orange","left_color":"lightblue","left_mu":60,"right_mu":52,"left_numbers":[71,57,47,57,58,64,66,63,70,52],"right_numbers":[32,44,59,47,47,62,51,62,55,51],"points_earned":594,"trial_type":"horizons-task","trial_index":58,"time_elapsed":438752,"internal_node_id":"0.0-54.0"},{"response_times":[422.9249998461455,304.3750000651926,420.0950001832098,409.21999979764223,1451.5700000338256,870.1800000853837,475.6249999627471,172.71999991498888,138.7400000821799,136.44499983638525],"keys_pressed":["rightarrow","leftarrow","leftarrow","rightarrow","leftarrow","rightarrow","leftarrow","leftarrow","leftarrow","leftarrow"],"horizon":10,"forced_choices":["rightarrow","leftarrow","leftarrow","rightarrow"],"right_color":"lightblue","left_color":"orange","left_mu":60,"right_mu":48,"left_numbers":[48,58,55,55,63,60,65,71,52,61],"right_numbers":[56,42,48,59,40,52,46,36,50,56],"points_earned":592,"trial_type":"horizons-task","trial_index":59,"time_elapsed":445059,"internal_node_id":"0.0-55.0"},{"response_times":[517.44500012137,307.41499993018806,340.4600000940263,424.75000000558794,791.1000000312924,135.8750001527369,147.88500010035932,146.51499991305172,139.85999999567866,134.26999980583787],"keys_pressed":["leftarrow","rightarrow","rightarrow","rightarrow","rightarrow","rightarrow","rightarrow","rightarrow","rightarrow","rightarrow"],"horizon":10,"forced_choices":["leftarrow","rightarrow","rightarrow","rightarrow"],"right_color":"lightblue","left_color":"orange","left_mu":40,"right_mu":44,"left_numbers":[37,37,33,30,34,46,42,42,25,43],"right_numbers":[50,61,49,38,47,42,39,56,40,49],"points_earned":458,"trial_type":"horizons-task","trial_index":60,"time_elapsed":449647,"internal_node_id":"0.0-56.0"},{"response_times":[496.99500016868114,278.2649998553097,319.45499987341464,356.47499980404973,1508.6999998893589,134.65000013820827,148.2450000476092,153.24000013060868,141.86999993398786,136.62999984808266],"keys_pressed":["rightarrow","leftarrow","rightarrow","leftarrow","rightarrow","rightarrow","rightarrow","rightarrow","rightarrow","rightarrow"],"horizon":10,"forced_choices":["rightarrow","leftarrow","rightarrow","leftarrow"],"right_color":"lightblue","left_color":"orange","left_mu":40,"right_mu":60,"left_numbers":[34,37,52,36,44,45,41,35,34,30],"right_numbers":[47,63,51,77,63,60,55,72,55,56],"points_earned":532,"trial_type":"horizons-task","trial_index":61,"time_elapsed":454824,"internal_node_id":"0.0-57.0"},{"response_times":[488.0250000860542,354.3199999257922,424.2399998474866,425.60999980196357,2811.089999973774],"keys_pressed":["leftarrow","leftarrow","leftarrow","rightarrow","rightarrow"],"horizon":5,"forced_choices":["leftarrow","leftarrow","leftarrow","rightarrow"],"right_color":"orange","left_color":"lightblue","left_mu":60,"right_mu":64,"left_numbers":[62,53,45,69,57],"right_numbers":[71,61,73,66,70],"points_earned":296,"trial_type":"horizons-task","trial_index":62,"time_elapsed":460829,"internal_node_id":"0.0-58.0"},{"response_times":[467.9999998770654,319.6349998470396,293.7750001437962,518.2650000788271,1058.0100000370294],"keys_pressed":["leftarrow","rightarrow","leftarrow","leftarrow","leftarrow"],"horizon":5,"forced_choices":["leftarrow","rightarrow","leftarrow","leftarrow"],"right_color":"lightblue","left_color":"orange","left_mu":40,"right_mu":20,"left_numbers":[46,40,46,38,36],"right_numbers":[19,22,12,32,19],"points_earned":188,"trial_type":"horizons-task","trial_index":63,"time_elapsed":464990,"internal_node_id":"0.0-59.0"},{"response_times":[424.0549998357892,287.84499992616475,350.550000090152,320.00999990850687,948.6299999989569],"keys_pressed":["rightarrow","leftarrow","leftarrow","rightarrow","leftarrow"],"horizon":5,"forced_choices":["rightarrow","leftarrow","leftarrow","rightarrow"],"right_color":"lightblue","left_color":"orange","left_mu":60,"right_mu":48,"left_numbers":[55,52,49,62,71],"right_numbers":[38,35,57,55,43],"points_earned":265,"trial_type":"horizons-task","trial_index":64,"time_elapsed":468825,"internal_node_id":"0.0-60.0"},{"response_times":[340.08500003255904,427.96000000089407,494.1149998921901,435.3050000499934,773.6700000241399],"keys_pressed":["rightarrow","leftarrow","rightarrow","leftarrow","rightarrow"],"horizon":5,"forced_choices":["rightarrow","leftarrow","rightarrow","leftarrow"],"right_color":"orange","left_color":"lightblue","left_mu":60,"right_mu":80,"left_numbers":[60,50,77,58,53],"right_numbers":[77,89,80,108,87],"points_earned":352,"trial_type":"horizons-task","trial_index":65,"time_elapsed":472800,"internal_node_id":"0.0-61.0"},{"response_times":[431.85000005178154,307.9850000794977,379.91500017233193,477.174999890849,1147.1299999393523],"keys_pressed":["leftarrow","rightarrow","rightarrow","rightarrow","rightarrow"],"horizon":5,"forced_choices":["leftarrow","rightarrow","rightarrow","rightarrow"],"right_color":"orange","left_color":"lightblue","left_mu":60,"right_mu":64,"left_numbers":[67,54,56,55,48],"right_numbers":[55,69,85,62,73],"points_earned":356,"trial_type":"horizons-task","trial_index":66,"time_elapsed":477046,"internal_node_id":"0.0-62.0"},{"response_times":[398.079999955371,316.869999980554,327.0849999971688,310.0399998947978,1072.7150000166148],"keys_pressed":["leftarrow","rightarrow","leftarrow","rightarrow","rightarrow"],"horizon":5,"forced_choices":["leftarrow","rightarrow","leftarrow","rightarrow"],"right_color":"orange","left_color":"lightblue","left_mu":40,"right_mu":48,"left_numbers":[15,43,29,46,32],"right_numbers":[41,40,61,49,41],"points_earned":174,"trial_type":"horizons-task","trial_index":67,"time_elapsed":480975,"internal_node_id":"0.0-63.0"},{"response_times":[448.4449999872595,369.99500007368624,381.6050000023097,361.68499989435077,1146.089999936521],"keys_pressed":["rightarrow","rightarrow","rightarrow","leftarrow","leftarrow"],"horizon":5,"forced_choices":["rightarrow","rightarrow","rightarrow","leftarrow"],"right_color":"orange","left_color":"lightblue","left_mu":60,"right_mu":40,"left_numbers":[66,56,68,65,48],"right_numbers":[29,32,21,39,37],"points_earned":195,"trial_type":"horizons-task","trial_index":68,"time_elapsed":485186,"internal_node_id":"0.0-64.0"},{"response_times":[440.849999897182,374.53499995172024,299.8100002296269,381.1200000345707,1082.6299998443574],"keys_pressed":["leftarrow","leftarrow","leftarrow","rightarrow","rightarrow"],"horizon":5,"forced_choices":["leftarrow","leftarrow","leftarrow","rightarrow"],"right_color":"orange","left_color":"lightblue","left_mu":60,"right_mu":72,"left_numbers":[56,63,41,66,63],"right_numbers":[81,78,66,74,77],"points_earned":311,"trial_type":"horizons-task","trial_index":69,"time_elapsed":489269,"internal_node_id":"0.0-65.0"},{"response_times":[716.3799998816103,310.9750000294298,300.3499999176711,500.25500007905066,945.8800000138581],"keys_pressed":["rightarrow","leftarrow","leftarrow","leftarrow","rightarrow"],"horizon":5,"forced_choices":["rightarrow","leftarrow","leftarrow","leftarrow"],"right_color":"lightblue","left_color":"orange","left_mu":60,"right_mu":64,"left_numbers":[58,50,53,65,49],"right_numbers":[74,64,53,59,71],"points_earned":313,"trial_type":"horizons-task","trial_index":70,"time_elapsed":493546,"internal_node_id":"0.0-66.0"},{"response_times":[453.57000012882054,634.7149999346584,398.0699998792261,467.1500001568347,1038.3349999319762],"keys_pressed":["leftarrow","rightarrow","rightarrow","leftarrow","rightarrow"],"horizon":5,"forced_choices":["leftarrow","rightarrow","rightarrow","leftarrow"],"right_color":"orange","left_color":"lightblue","left_mu":60,"right_mu":64,"left_numbers":[59,60,65,45,54],"right_numbers":[66,71,61,62,53],"points_earned":289,"trial_type":"horizons-task","trial_index":71,"time_elapsed":498041,"internal_node_id":"0.0-67.0"},{"response_times":[429.7050000168383,434.95999998413026,379.02000010944903,452.3399998433888,886.6099999286234],"keys_pressed":["leftarrow","rightarrow","leftarrow","leftarrow","rightarrow"],"horizon":5,"forced_choices":["leftarrow","rightarrow","leftarrow","leftarrow"],"right_color":"lightblue","left_color":"orange","left_mu":40,"right_mu":60,"left_numbers":[48,41,35,29,29],"right_numbers":[63,53,39,64,76],"points_earned":241,"trial_type":"horizons-task","trial_index":72,"time_elapsed":502126,"internal_node_id":"0.0-68.0"},{"response_times":[439.5099999383092,334.27500003017485,369.82999998144805,477.81499987468123,621.515000006184],"keys_pressed":["leftarrow","rightarrow","rightarrow","leftarrow","rightarrow"],"horizon":5,"forced_choices":["leftarrow","rightarrow","rightarrow","leftarrow"],"right_color":"orange","left_color":"lightblue","left_mu":60,"right_mu":90,"left_numbers":[58,52,72,56,56],"right_numbers":[83,104,77,83,102],"points_earned":397,"trial_type":"horizons-task","trial_index":73,"time_elapsed":505872,"internal_node_id":"0.0-69.0"},{"response_times":[336.0850000753999,353.15999994054437,338.43999984674156,371.20000016875565,1080.640000058338],"keys_pressed":["rightarrow","rightarrow","leftarrow","rightarrow","rightarrow"],"horizon":5,"forced_choices":["rightarrow","rightarrow","leftarrow","rightarrow"],"right_color":"orange","left_color":"lightblue","left_mu":60,"right_mu":90,"left_numbers":[66,72,58,54,64],"right_numbers":[100,84,95,101,89],"points_earned":432,"trial_type":"horizons-task","trial_index":74,"time_elapsed":509856,"internal_node_id":"0.0-70.0"},{"response_times":[436.52500002644956,367.1949999406934,373.15499992109835,440.8400000538677,1169.5000000763685,786.4300000946969,226.11499996855855,142.19500008039176,138.83000006899238,123.6449999269098],"keys_pressed":["leftarrow","rightarrow","rightarrow","rightarrow","leftarrow","leftarrow","leftarrow","leftarrow","leftarrow","leftarrow"],"horizon":10,"forced_choices":["leftarrow","rightarrow","rightarrow","rightarrow"],"right_color":"lightblue","left_color":"orange","left_mu":40,"right_mu":20,"left_numbers":[42,49,32,29,37,56,39,49,32,40],"right_numbers":[31,16,25,10,20,11,21,18,10,32],"points_earned":346,"trial_type":"horizons-task","trial_index":75,"time_elapsed":515564,"internal_node_id":"0.0-71.0"},{"response_times":[374.4200000073761,273.4649998601526,346.9400000758469,402.9900000896305,858.3800001069903],"keys_pressed":["leftarrow","rightarrow","leftarrow","rightarrow","leftarrow"],"horizon":5,"forced_choices":["leftarrow","rightarrow","leftarrow","rightarrow"],"right_color":"orange","left_color":"lightblue","left_mu":40,"right_mu":10,"left_numbers":[25,41,38,42,36],"right_numbers":[19,13,16,11,10],"points_earned":123,"trial_type":"horizons-task","trial_index":76,"time_elapsed":519323,"internal_node_id":"0.0-72.0"},{"response_times":[378.01000010222197,513.9549998566508,401.58999990671873,479.43000006489456,1595.6249998416752],"keys_pressed":["leftarrow","leftarrow","rightarrow","rightarrow","rightarrow"],"horizon":5,"forced_choices":["leftarrow","leftarrow","rightarrow","rightarrow"],"right_color":"orange","left_color":"lightblue","left_mu":40,"right_mu":60,"left_numbers":[41,46,49,48,46],"right_numbers":[54,72,71,59,76],"points_earned":293,"trial_type":"horizons-task","trial_index":77,"time_elapsed":524196,"internal_node_id":"0.0-73.0"},{"response_times":[461.2149999011308,375.5549998022616,370.03000010736287,400.1050000078976,895.0000000186265],"keys_pressed":["leftarrow","leftarrow","rightarrow","rightarrow","leftarrow"],"horizon":5,"forced_choices":["leftarrow","leftarrow","rightarrow","rightarrow"],"right_color":"lightblue","left_color":"orange","left_mu":60,"right_mu":56,"left_numbers":[63,60,82,52,74],"right_numbers":[57,61,54,57,54],"points_earned":308,"trial_type":"horizons-task","trial_index":78,"time_elapsed":528201,"internal_node_id":"0.0-74.0"},{"response_times":[456.98000001721084,339.295000070706,409.37000000849366,373.04500001482666,996.8749999534339],"keys_pressed":["rightarrow","leftarrow","leftarrow","rightarrow","leftarrow"],"horizon":5,"forced_choices":["rightarrow","leftarrow","leftarrow","rightarrow"],"right_color":"orange","left_color":"lightblue","left_mu":60,"right_mu":30,"left_numbers":[68,63,59,56,60],"right_numbers":[29,31,23,21,32],"points_earned":232,"trial_type":"horizons-task","trial_index":79,"time_elapsed":532282,"internal_node_id":"0.0-75.0"},{"response_times":[356.7449999973178,345.1300000306219,378.3550001680851,433.5900000296533,1094.804999884218],"keys_pressed":["rightarrow","leftarrow","rightarrow","leftarrow","leftarrow"],"horizon":5,"forced_choices":["rightarrow","leftarrow","rightarrow","leftarrow"],"right_color":"lightblue","left_color":"orange","left_mu":40,"right_mu":48,"left_numbers":[36,45,27,45,36],"right_numbers":[30,57,38,44,47],"points_earned":194,"trial_type":"horizons-task","trial_index":80,"time_elapsed":536394,"internal_node_id":"0.0-76.0"},{"response_times":[497.389999916777,296.09000007621944,365.14500016346574,361.6100000217557,1219.2999999970198,1711.3499999977648,155.03000002354383,156.10500006005168,160.2849999908358,167.37999999895692],"keys_pressed":["leftarrow","rightarrow","leftarrow","rightarrow","rightarrow","rightarrow","rightarrow","rightarrow","rightarrow","rightarrow"],"horizon":10,"forced_choices":["leftarrow","rightarrow","leftarrow","rightarrow"],"right_color":"lightblue","left_color":"orange","left_mu":40,"right_mu":52,"left_numbers":[36,37,31,52,40,36,49,54,45,44],"right_numbers":[45,46,46,58,45,40,50,65,59,58],"points_earned":488,"trial_type":"horizons-task","trial_index":81,"time_elapsed":542987,"internal_node_id":"0.0-77.0"},{"response_times":[585.8499999158084,466.4300000295043,426.1950000654906,468.7000000849366,1231.8550001364201],"keys_pressed":["rightarrow","rightarrow","leftarrow","rightarrow","leftarrow"],"horizon":5,"forced_choices":["rightarrow","rightarrow","leftarrow","rightarrow"],"right_color":"lightblue","left_color":"orange","left_mu":40,"right_mu":32,"left_numbers":[49,56,40,41,38],"right_numbers":[25,31,32,29,32],"points_earned":163,"trial_type":"horizons-task","trial_index":82,"time_elapsed":547669,"internal_node_id":"0.0-78.0"},{"response_times":[460.6899998616427,525.4800000693649,419.69499993138015,365.724999923259,1114.1050001606345],"keys_pressed":["rightarrow","rightarrow","rightarrow","leftarrow","rightarrow"],"horizon":5,"forced_choices":["rightarrow","rightarrow","rightarrow","leftarrow"],"right_color":"orange","left_color":"lightblue","left_mu":40,"right_mu":52,"left_numbers":[48,34,37,37,48],"right_numbers":[55,46,53,41,53],"points_earned":244,"trial_type":"horizons-task","trial_index":83,"time_elapsed":552057,"internal_node_id":"0.0-79.0"},{"response_times":[473.7750000786036,271.4700000360608,317.35999998636544,328.525000018999,1447.5749998819083,145.64500004053116,162.8149999305606,156.14499989897013,166.3700002245605,153.0900001525879],"keys_pressed":["leftarrow","rightarrow","rightarrow","leftarrow","rightarrow","rightarrow","rightarrow","rightarrow","rightarrow","rightarrow"],"horizon":10,"forced_choices":["leftarrow","rightarrow","rightarrow","leftarrow"],"right_color":"lightblue","left_color":"orange","left_mu":40,"right_mu":48,"left_numbers":[37,38,45,34,39,43,51,40,59,33],"right_numbers":[48,45,51,55,50,41,45,57,49,42],"points_earned":451,"trial_type":"horizons-task","trial_index":84,"time_elapsed":557183,"internal_node_id":"0.0-80.0"},{"response_times":[465.7250000163913,306.53499998152256,387.7549997996539,455.57500002905726,852.9600000474602,178.48000000230968,292.9549999535084,163.4349999949336,155.44500015676022,163.5849999729544],"keys_pressed":["rightarrow","leftarrow","leftarrow","rightarrow","leftarrow","leftarrow","leftarrow","leftarrow","leftarrow","leftarrow"],"horizon":10,"forced_choices":["rightarrow","leftarrow","leftarrow","rightarrow"],"right_color":"lightblue","left_color":"orange","left_mu":60,"right_mu":30,"left_numbers":[62,55,49,64,61,63,54,63,60,61],"right_numbers":[42,26,37,26,43,15,20,27,20,44],"points_earned":534,"trial_type":"horizons-task","trial_index":85,"time_elapsed":562110,"internal_node_id":"0.0-81.0"},{"response_times":[483.9349999092519,265.65499999560416,280.38499993272126,642.0549999456853,739.9150000419468,155.3950000088662,144.83999996446073,154.6150001231581,156.65500005707145,142.01999991200864],"keys_pressed":["leftarrow","rightarrow","leftarrow","rightarrow","leftarrow","leftarrow","leftarrow","leftarrow","leftarrow","leftarrow"],"horizon":10,"forced_choices":["leftarrow","rightarrow","leftarrow","rightarrow"],"right_color":"lightblue","left_color":"orange","left_mu":60,"right_mu":48,"left_numbers":[68,65,64,54,64,56,54,45,64,60],"right_numbers":[45,47,46,52,43,47,52,57,36,55],"points_earned":574,"trial_type":"horizons-task","trial_index":86,"time_elapsed":566780,"internal_node_id":"0.0-82.0"},{"response_times":[409.03500001877546,285.37499997764826,418.1849998421967,637.7350001130253,786.0749999526888],"keys_pressed":["leftarrow","rightarrow","leftarrow","leftarrow","leftarrow"],"horizon":5,"forced_choices":["leftarrow","rightarrow","leftarrow","leftarrow"],"right_color":"orange","left_color":"lightblue","left_mu":60,"right_mu":56,"left_numbers":[55,65,59,62,61],"right_numbers":[44,41,47,57,42],"points_earned":278,"trial_type":"horizons-task","trial_index":87,"time_elapsed":570820,"internal_node_id":"0.0-83.0"},{"response_times":[477.7850001119077,561.9450001977384,440.4400000348687,356.94499989040196,1012.4549998436123,433.0749998334795,133.6099999025464,136.3899998832494,135.68500010296702,124.06000006012619],"keys_pressed":["leftarrow","leftarrow","rightarrow","leftarrow","rightarrow","rightarrow","rightarrow","rightarrow","rightarrow","rightarrow"],"horizon":10,"forced_choices":["leftarrow","leftarrow","rightarrow","leftarrow"],"right_color":"orange","left_color":"lightblue","left_mu":60,"right_mu":72,"left_numbers":[54,64,64,62,70,55,54,63,58,65],"right_numbers":[93,86,70,77,73,66,77,71,90,78],"points_earned":705,"trial_type":"horizons-task","trial_index":88,"time_elapsed":576136,"internal_node_id":"0.0-84.0"},{"response_times":[435.54500001482666,251.32000003941357,340.79000004567206,477.39499993622303,1171.7100001405925,144.70000006258488,152.39499998278916,144.18999990448356,141.88500004820526,149.1050000768155],"keys_pressed":["rightarrow","leftarrow","leftarrow","rightarrow","rightarrow","rightarrow","rightarrow","rightarrow","rightarrow","rightarrow"],"horizon":10,"forced_choices":["rightarrow","leftarrow","leftarrow","rightarrow"],"right_color":"orange","left_color":"lightblue","left_mu":40,"right_mu":48,"left_numbers":[43,31,40,43,45,44,35,48,32,33],"right_numbers":[46,54,51,50,52,34,50,54,44,40],"points_earned":441,"trial_type":"horizons-task","trial_index":89,"time_elapsed":581049,"internal_node_id":"0.0-85.0"},{"rt":11629.51000011526,"responses":{"age":"33","gender-categorical":"Female","gender-free-response":"","ethnicity":"Not Hispanic or Latino","race":["White"],"language":"Yes","fluency":"Very well"},"survey":"demographics","trial_type":"survey-demo","trial_index":90,"time_elapsed":592682,"internal_node_id":"0.0-86.0"},{"rt":9901.074999943376,"responses":{"difficulty":"5","fun":"4","clarity":"5","strategy":"no","feedback":"no"},"survey":"debrief","trial_type":"survey-debrief","trial_index":91,"time_elapsed":602584,"internal_node_id":"0.0-87.0","interactions":"[{\"event\":\"blur\",\"trial\":49,\"time\":382076},{\"event\":\"focus\",\"trial\":49,\"time\":386644}]"}]