[{"view_history":"[{\"page_index\":0,\"viewing_time\":2774.944999953732}]","rt":2775.2449999097735,"trial_type":"instructions","trial_index":0,"time_elapsed":2783,"internal_node_id":"0.0-0.0"},{"item_order":[14,12,0,1,8,16,7,11,4,6,13,5,9,15,10,2,3],"responses":{"Q15":"2","Q13":"3","Q01":"2","Q02":"2","Q09":"4","Q17":"0","Q08":"2","Q12":"0","Q05":"2","Q07":"2","Q14":"2","Q06":"1","Q10":"3","Q16":"1","Q11":"1","Q03":"4","Q04":"1"},"radio_events":[3124.7749999165535,5706.479999935254,10046.570000005886,22346.454999875277,26888.61499982886,31516.489999834448,34534.539999905974,38816.47999980487,42966.50999994017,45600.45499983244,47414.409999968484,49332.50000001863,56678.40999993496,57666.319999843836,65176.10999988392,67516.31999993697,71662.05499996431],"key_events":[],"mouse_events":[0.49000000581145287,3124.7749999165535,5706.479999935254,10046.570000005886,22346.454999875277,26168.31499990076,26888.61499982886,30032.489999895915,30834.559999872,31516.489999834448,34534.539999905974,37902.43499982171,38816.47999980487,41692.38999998197,42966.50999994017,45600.45499983244,47414.409999968484,49332.50000001863,52614.279999863356,55466.46499983035,56074.41999996081,56678.40999993496,57666.319999843836,64676.310000009835,65176.10999988392,67516.31999993697,70700.4499998875,71662.05499996431,73312.39999993704],"rt":73314.90999995731,"survey":"pswq","trial_type":"survey-template","trial_index":1,"time_elapsed":76102,"internal_node_id":"0.0-1.0"},{"item_order":[1,9,10,4,8,3,5,12,0,6,2,11,7],"responses":{"Q02":"1","Q10":"1","Q11":"1","Q05":"3","Q09":"0","Q04":"3","Q06":"0","Q13":"4","Q01":"1","Q07":"1","Q03":"2","Q12":"2","Q08":"2"},"radio_events":[5795.140000060201,8413.40499999933,11829.29000002332,12945.20499999635,15187.210000120103,21119.295000098646,24275.15000011772,27169.160000048578,29402.995000127703,40757.084999931976,45975.15999991447,48881.16000010632,50543.16999996081,53635.04999992438],"key_events":[],"mouse_events":[5795.140000060201,8413.40499999933,11109.265000093728,11829.29000002332,12945.20499999635,13561.41999992542,14599.38000002876,15187.210000120103,21119.295000098646,23385.22500009276,23959.509999956936,24275.15000011772,27169.160000048578,29402.995000127703,40137.12999993004,40757.084999931976,45975.15999991447,48881.16000010632,50543.16999996081,53635.04999992438,54419.10500009544],"rt":54420.81500007771,"survey":"ius12","trial_type":"survey-template","trial_index":2,"time_elapsed":130527,"internal_node_id":"0.0-2.0"},{"view_history":"[{\"page_index\":0,\"viewing_time\":7517.72000011988},{\"page_index\":1,\"viewing_time\":13920.03499995917},{\"page_index\":2,\"viewing_time\":8941.684999968857},{\"page_index\":3,\"viewing_time\":7766.255000140518},{\"page_index\":4,\"viewing_time\":6435.944999800995},{\"page_index\":5,\"viewing_time\":4219.965000171214},{\"page_index\":6,\"viewing_time\":6075.974999926984},{\"page_index\":7,\"viewing_time\":9797.964999917895},{\"page_index\":8,\"viewing_time\":7069.9250001925975},{\"page_index\":9,\"viewing_time\":9561.639999970794}]","rt":81307.75500019081,"trial_type":"instructions","trial_index":3,"time_elapsed":211836,"internal_node_id":"0.0-3.0-0.0"},{"response_times":[1546.5449998155236,1424.180000089109,1056.80499994196,1464.1350000165403,2898.909999988973],"keys_pressed":["rightarrow","leftarrow","rightarrow","rightarrow","leftarrow"],"horizon":5,"forced_choices":["rightarrow","leftarrow","rightarrow","rightarrow"],"right_color":"lightblue","left_color":"orange","left_mu":40,"right_mu":20,"left_numbers":[49,48,40,37,56],"right_numbers":[31,31,11,15,35],"points_earned":161,"trial_type":"horizons-task","trial_index":4,"time_elapsed":221736,"internal_node_id":"0.0-3.0-1.0"},{"response_times":[1466.044999891892,769.4099999498576,751.8800001125783,889.0499998815358,5285.940000088885,1836.8000001646578,2343.3449999429286,1480.6099999696016,1991.8049999978393,1289.8550000973046],"keys_pressed":["leftarrow","leftarrow","rightarrow","rightarrow","rightarrow","rightarrow","leftarrow","rightarrow","rightarrow","rightarrow"],"horizon":10,"forced_choices":["leftarrow","leftarrow","rightarrow","rightarrow"],"right_color":"orange","left_color":"lightblue","left_mu":60,"right_mu":70,"left_numbers":[63,54,57,52,53,67,52,52,72,57],"right_numbers":[80,65,80,83,77,87,62,78,72,62],"points_earned":708,"trial_type":"horizons-task","trial_index":5,"time_elapsed":241347,"internal_node_id":"0.0-3.0-2.0"},{"view_history":"[{\"page_index\":0,\"viewing_time\":2348.9199997857213},{\"page_index\":1,\"viewing_time\":5079.970000078902},{\"page_index\":2,\"viewing_time\":4112.010000040755},{\"page_index\":3,\"viewing_time\":2151.795000070706}]","rt":13692.914999788627,"trial_type":"instructions","trial_index":6,"time_elapsed":255042,"internal_node_id":"0.0-3.0-3.0"},{"responses":["true","false","false","true"],"num_errors":0,"rt":12257.059999974445,"trial_type":"horizons-comprehension","trial_index":7,"time_elapsed":267301,"internal_node_id":"0.0-3.0-4.0"},{"view_history":"[{\"page_index\":0,\"viewing_time\":1666.1649998277426},{\"page_index\":1,\"viewing_time\":19511.954999994487}]","rt":21178.35499998182,"trial_type":"instructions","trial_index":8,"time_elapsed":288482,"internal_node_id":"0.0-4.0"},{"response_times":[1283.019999973476,815.849999897182,683.9700001291931,1348.8399998750538,3832.335000159219,1185.4900000616908,2583.705000113696,1509.2699998058379,1166.935000102967,2779.765000101179],"keys_pressed":["leftarrow","leftarrow","leftarrow","rightarrow","rightarrow","leftarrow","leftarrow","leftarrow","rightarrow","leftarrow"],"horizon":10,"forced_choices":["leftarrow","leftarrow","leftarrow","rightarrow"],"right_color":"orange","left_color":"lightblue","left_mu":60,"right_mu":40,"left_numbers":[60,67,53,63,71,56,54,48,61,65],"right_numbers":[51,25,33,37,36,44,45,46,41,22],"points_earned":517,"trial_type":"horizons-task","trial_index":9,"time_elapsed":307178,"internal_node_id":"0.0-5.0"},{"response_times":[1343.1049999780953,523.869999917224,710.8650000300258,749.0499999839813,3039.179999846965],"keys_pressed":["leftarrow","leftarrow","rightarrow","leftarrow","rightarrow"],"horizon":5,"forced_choices":["leftarrow","leftarrow","rightarrow","leftarrow"],"right_color":"lightblue","left_color":"orange","left_mu":40,"right_mu":70,"left_numbers":[44,43,41,41,55],"right_numbers":[59,77,55,72,66],"points_earned":249,"trial_type":"horizons-task","trial_index":10,"time_elapsed":315049,"internal_node_id":"0.0-6.0"},{"response_times":[823.8150000106543,506.1399999540299,829.8200001008809,559.9999998230487,3168.1249998509884,1371.694999979809,2013.8499999884516,2096.000000135973,1448.8750000018626,2164.850000059232],"keys_pressed":["rightarrow","leftarrow","rightarrow","leftarrow","leftarrow","rightarrow","leftarrow","leftarrow","leftarrow","leftarrow"],"horizon":10,"forced_choices":["rightarrow","leftarrow","rightarrow","leftarrow"],"right_color":"lightblue","left_color":"orange","left_mu":40,"right_mu":48,"left_numbers":[48,34,40,47,34,36,34,43,36,36],"right_numbers":[50,44,34,48,52,30,48,50,40,47],"points_earned":378,"trial_type":"horizons-task","trial_index":11,"time_elapsed":331536,"internal_node_id":"0.0-7.0"},{"response_times":[975.2150001004338,432.52499983645976,646.8700000550598,1071.0450001060963,2195.964999962598],"keys_pressed":["leftarrow","rightarrow","rightarrow","rightarrow","leftarrow"],"horizon":5,"forced_choices":["leftarrow","rightarrow","rightarrow","rightarrow"],"right_color":"lightblue","left_color":"orange","left_mu":40,"right_mu":36,"left_numbers":[38,40,42,30,26],"right_numbers":[39,31,23,32,27],"points_earned":150,"trial_type":"horizons-task","trial_index":12,"time_elapsed":338364,"internal_node_id":"0.0-8.0"},{"response_times":[822.0350001938641,542.8150000516325,888.0000000353903,496.92000006325543,1481.3049999065697,2210.4899999685585,1481.059999903664,1589.8500001057982,2707.0349999703467,1184.8750000353903],"keys_pressed":["leftarrow","leftarrow","leftarrow","rightarrow","rightarrow","rightarrow","leftarrow","rightarrow","rightarrow","rightarrow"],"horizon":10,"forced_choices":["leftarrow","leftarrow","leftarrow","rightarrow"],"right_color":"lightblue","left_color":"orange","left_mu":60,"right_mu":72,"left_numbers":[39,53,62,57,60,43,75,66,54,56],"right_numbers":[65,78,84,70,73,63,64,70,83,83],"points_earned":671,"trial_type":"horizons-task","trial_index":13,"time_elapsed":353276,"internal_node_id":"0.0-9.0"},{"response_times":[745.3199999872595,454.5650000218302,441.9050000142306,441.9499998912215,1786.989999935031,919.8249999899417,1299.0550000686198,856.8799998611212,873.9350000396371,660.9650000464171],"keys_pressed":["leftarrow","leftarrow","rightarrow","leftarrow","leftarrow","rightarrow","rightarrow","leftarrow","leftarrow","leftarrow"],"horizon":10,"forced_choices":["leftarrow","leftarrow","rightarrow","leftarrow"],"right_color":"orange","left_color":"lightblue","left_mu":60,"right_mu":48,"left_numbers":[59,61,57,52,51,77,60,62,63,72],"right_numbers":[42,49,38,46,44,49,33,50,59,41],"points_earned":540,"trial_type":"horizons-task","trial_index":14,"time_elapsed":363263,"internal_node_id":"0.0-10.0"},{"response_times":[838.5300000663847,432.58000002242625,682.8900000546128,474.04999984428287,2045.9800001699477,4095.8499999251217,788.8050000183284,2082.4800000991672,938.4800000116229,774.330000160262],"keys_pressed":["rightarrow","leftarrow","leftarrow","rightarrow","rightarrow","rightarrow","leftarrow","rightarrow","leftarrow","rightarrow"],"horizon":10,"forced_choices":["rightarrow","leftarrow","leftarrow","rightarrow"],"right_color":"orange","left_color":"lightblue","left_mu":40,"right_mu":36,"left_numbers":[34,36,39,41,25,27,22,44,32,52],"right_numbers":[58,34,32,47,35,24,34,47,38,37],"points_earned":377,"trial_type":"horizons-task","trial_index":15,"time_elapsed":377923,"internal_node_id":"0.0-11.0"},{"response_times":[664.8450000211596,392.0650000218302,437.9350000526756,969.9299999047071,2397.8450000286102],"keys_pressed":["leftarrow","rightarrow","rightarrow","rightarrow","leftarrow"],"horizon":5,"forced_choices":["leftarrow","rightarrow","rightarrow","rightarrow"],"right_color":"orange","left_color":"lightblue","left_mu":40,"right_mu":32,"left_numbers":[50,35,41,57,49],"right_numbers":[30,33,35,44,33],"points_earned":211,"trial_type":"horizons-task","trial_index":16,"time_elapsed":384290,"internal_node_id":"0.0-12.0"},{"response_times":[643.4200000949204,396.2199999950826,374.0449999459088,422.929999884218,3273.9900001324713,1016.899999929592,983.9500000234693,1303.9450000505894,902.1300000604242,674.7349998913705],"keys_pressed":["leftarrow","rightarrow","leftarrow","rightarrow","rightarrow","leftarrow","leftarrow","leftarrow","rightarrow","leftarrow"],"horizon":10,"forced_choices":["leftarrow","rightarrow","leftarrow","rightarrow"],"right_color":"lightblue","left_color":"orange","left_mu":40,"right_mu":36,"left_numbers":[27,36,30,42,53,35,46,42,32,52],"right_numbers":[49,31,46,42,35,28,53,23,36,30],"points_earned":376,"trial_type":"horizons-task","trial_index":17,"time_elapsed":395787,"internal_node_id":"0.0-13.0"},{"response_times":[695.4799999948591,482.3549999855459,1611.8250000290573,541.9499999843538,1040.125000057742,766.0049998667091,696.8450001440942,1444.9599999934435,1964.8849999066442,819.2350000608712],"keys_pressed":["leftarrow","rightarrow","rightarrow","leftarrow","rightarrow","leftarrow","rightarrow","leftarrow","rightarrow","rightarrow"],"horizon":10,"forced_choices":["leftarrow","rightarrow","rightarrow","leftarrow"],"right_color":"lightblue","left_color":"orange","left_mu":40,"right_mu":60,"left_numbers":[49,30,45,39,42,38,46,43,28,35],"right_numbers":[62,59,65,54,58,55,43,53,63,58],"points_earned":515,"trial_type":"horizons-task","trial_index":18,"time_elapsed":407357,"internal_node_id":"0.0-14.0"},{"response_times":[759.2350000049919,687.6199999824166,819.9350000359118,820.0749999377877,3178.194999927655],"keys_pressed":["leftarrow","leftarrow","leftarrow","rightarrow","rightarrow"],"horizon":5,"forced_choices":["leftarrow","leftarrow","leftarrow","rightarrow"],"right_color":"lightblue","left_color":"orange","left_mu":40,"right_mu":32,"left_numbers":[33,31,46,36,39],"right_numbers":[54,32,24,25,36],"points_earned":171,"trial_type":"horizons-task","trial_index":19,"time_elapsed":415125,"internal_node_id":"0.0-15.0"},{"response_times":[541.315000038594,455.89999994263053,451.75500004552305,693.1000000331551,3697.3299998790026,846.5799998957664,1039.860000135377,1124.91500005126,1121.9949999358505,805.869999807328],"keys_pressed":["leftarrow","rightarrow","leftarrow","rightarrow","rightarrow","leftarrow","rightarrow","leftarrow","rightarrow","rightarrow"],"horizon":10,"forced_choices":["leftarrow","rightarrow","leftarrow","rightarrow"],"right_color":"orange","left_color":"lightblue","left_mu":40,"right_mu":36,"left_numbers":[37,40,41,38,48,39,23,28,47,37],"right_numbers":[37,27,30,34,42,39,20,39,44,20],"points_earned":332,"trial_type":"horizons-task","trial_index":20,"time_elapsed":427408,"internal_node_id":"0.0-16.0"},{"response_times":[632.60000012815,364.83999993652105,417.60000004433095,571.1799999698997,1914.2750001046807],"keys_pressed":["leftarrow","rightarrow","leftarrow","rightarrow","rightarrow"],"horizon":5,"forced_choices":["leftarrow","rightarrow","leftarrow","rightarrow"],"right_color":"orange","left_color":"lightblue","left_mu":60,"right_mu":90,"left_numbers":[71,42,64,55,67],"right_numbers":[101,117,91,94,84],"points_earned":430,"trial_type":"horizons-task","trial_index":21,"time_elapsed":432813,"internal_node_id":"0.0-17.0"},{"response_times":[671.2149998638779,739.185000071302,751.8599999602884,1772.9650000110269,2355.8749998919666,600.8350001648068,689.1099999193102,585.7949999626726,1088.8500001747161,698.0800000019372],"keys_pressed":["rightarrow","rightarrow","rightarrow","leftarrow","leftarrow","rightarrow","rightarrow","rightarrow","rightarrow","rightarrow"],"horizon":10,"forced_choices":["rightarrow","rightarrow","rightarrow","leftarrow"],"right_color":"lightblue","left_color":"orange","left_mu":40,"right_mu":60,"left_numbers":[39,39,33,34,29,35,45,39,39,39],"right_numbers":[65,63,57,65,51,53,64,46,51,63],"points_earned":525,"trial_type":"horizons-task","trial_index":22,"time_elapsed":444271,"internal_node_id":"0.0-18.0"},{"response_times":[600.1199998427182,742.9649999830872,505.9449998661876,496.74500012770295,1759.1049999464303],"keys_pressed":["rightarrow","rightarrow","leftarrow","rightarrow","rightarrow"],"horizon":5,"forced_choices":["rightarrow","rightarrow","leftarrow","rightarrow"],"right_color":"orange","left_color":"lightblue","left_mu":40,"right_mu":60,"left_numbers":[33,45,39,28,32],"right_numbers":[49,63,54,63,67],"points_earned":281,"trial_type":"horizons-task","trial_index":23,"time_elapsed":449881,"internal_node_id":"0.0-19.0"},{"response_times":[820.9349999669939,541.9850000180304,432.73000000044703,428.4950001165271,1649.5900000445545,820.8599998615682,1039.02000002563,852.8599999845028,952.0000000484288,610.8150000218302],"keys_pressed":["leftarrow","rightarrow","leftarrow","rightarrow","rightarrow","rightarrow","rightarrow","rightarrow","leftarrow","rightarrow"],"horizon":10,"forced_choices":["leftarrow","rightarrow","leftarrow","rightarrow"],"right_color":"lightblue","left_color":"orange","left_mu":40,"right_mu":52,"left_numbers":[31,25,32,39,33,47,48,36,31,29],"right_numbers":[47,57,45,51,45,63,56,43,50,50],"points_earned":459,"trial_type":"horizons-task","trial_index":24,"time_elapsed":459535,"internal_node_id":"0.0-20.0"},{"response_times":[555.6249998044223,482.785000000149,524.2149999830872,446.76500000059605,2904.2699998244643,900.7800000254065,516.8100001756102,613.7299998663366,780.1600000821054,446.86500006355345],"keys_pressed":["leftarrow","leftarrow","leftarrow","rightarrow","leftarrow","rightarrow","leftarrow","leftarrow","rightarrow","leftarrow"],"horizon":10,"forced_choices":["leftarrow","leftarrow","leftarrow","rightarrow"],"right_color":"lightblue","left_color":"orange","left_mu":40,"right_mu":28,"left_numbers":[54,51,40,27,35,37,38,32,37,50],"right_numbers":[33,34,30,20,32,25,29,26,22,31],"points_earned":367,"trial_type":"horizons-task","trial_index":25,"time_elapsed":469212,"internal_node_id":"0.0-21.0"},{"response_times":[624.8899998608977,428.82000003010035,592.0049999840558,514.9149999488145,1936.9650001171976],"keys_pressed":["rightarrow","rightarrow","leftarrow","rightarrow","leftarrow"],"horizon":5,"forced_choices":["rightarrow","rightarrow","leftarrow","rightarrow"],"right_color":"lightblue","left_color":"orange","left_mu":40,"right_mu":28,"left_numbers":[39,34,40,49,29],"right_numbers":[35,16,36,19,28],"points_earned":139,"trial_type":"horizons-task","trial_index":26,"time_elapsed":474815,"internal_node_id":"0.0-22.0"},{"response_times":[614.0250000171363,413.76500017941,1263.0299997981638,692.8699999116361,794.0099998377264],"keys_pressed":["rightarrow","rightarrow","rightarrow","leftarrow","rightarrow"],"horizon":5,"forced_choices":["rightarrow","rightarrow","rightarrow","leftarrow"],"right_color":"orange","left_color":"lightblue","left_mu":60,"right_mu":68,"left_numbers":[61,48,61,44,66],"right_numbers":[78,75,71,66,77],"points_earned":345,"trial_type":"horizons-task","trial_index":27,"time_elapsed":480097,"internal_node_id":"0.0-23.0"},{"response_times":[618.6699999962002,422.98500007018447,428.90499997884035,473.7499998882413,2201.260000001639,679.4099998660386,683.5799999535084,623.6750001553446,1750.9849998168647,591.6150000412017],"keys_pressed":["leftarrow","leftarrow","rightarrow","leftarrow","rightarrow","leftarrow","leftarrow","leftarrow","leftarrow","leftarrow"],"horizon":10,"forced_choices":["leftarrow","leftarrow","rightarrow","leftarrow"],"right_color":"lightblue","left_color":"orange","left_mu":60,"right_mu":48,"left_numbers":[49,66,48,51,78,59,65,47,71,42],"right_numbers":[29,46,60,43,46,37,60,46,46,61],"points_earned":556,"trial_type":"horizons-task","trial_index":28,"time_elapsed":490079,"internal_node_id":"0.0-24.0"},{"response_times":[527.9500000178814,413.84000005200505,451.92499994300306,486.99999996460974,2316.0100001841784,464.8499998729676,610.0200000219047,574.5399999432266,820.3350000549108,719.9049999471754],"keys_pressed":["rightarrow","rightarrow","leftarrow","leftarrow","leftarrow","rightarrow","rightarrow","rightarrow","leftarrow","rightarrow"],"horizon":10,"forced_choices":["rightarrow","rightarrow","leftarrow","leftarrow"],"right_color":"lightblue","left_color":"orange","left_mu":40,"right_mu":48,"left_numbers":[46,40,48,43,38,37,43,37,55,52],"right_numbers":[47,38,38,40,49,55,47,43,45,48],"points_earned":462,"trial_type":"horizons-task","trial_index":29,"time_elapsed":498971,"internal_node_id":"0.0-25.0"},{"response_times":[556.0699999332428,368.870000122115,555.8949999976903,901.914999820292,1275.7550000678748],"keys_pressed":["rightarrow","leftarrow","leftarrow","rightarrow","leftarrow"],"horizon":5,"forced_choices":["rightarrow","leftarrow","leftarrow","rightarrow"],"right_color":"lightblue","left_color":"orange","left_mu":60,"right_mu":30,"left_numbers":[72,52,50,71,75],"right_numbers":[24,32,37,36,37],"points_earned":237,"trial_type":"horizons-task","trial_index":30,"time_elapsed":504134,"internal_node_id":"0.0-26.0"},{"response_times":[583.600000012666,432.92499985545874,433.0100000370294,515.1750000659376,1494.7249998804182,487.9000000655651,523.2149998191744,602.6800000108778,588.0100000649691,514.7349999751896],"keys_pressed":["rightarrow","rightarrow","rightarrow","leftarrow","leftarrow","rightarrow","leftarrow","rightarrow","leftarrow","leftarrow"],"horizon":10,"forced_choices":["rightarrow","rightarrow","rightarrow","leftarrow"],"right_color":"orange","left_color":"lightblue","left_mu":60,"right_mu":48,"left_numbers":[72,67,50,63,65,60,60,61,56,59],"right_numbers":[40,48,47,51,55,58,43,44,52,45],"points_earned":540,"trial_type":"horizons-task","trial_index":31,"time_elapsed":511815,"internal_node_id":"0.0-27.0"},{"response_times":[587.7600000239909,657.185000134632,459.88999982364476,496.94999982602894,1047.9000001214445],"keys_pressed":["rightarrow","rightarrow","leftarrow","rightarrow","rightarrow"],"horizon":5,"forced_choices":["rightarrow","rightarrow","leftarrow","rightarrow"],"right_color":"lightblue","left_color":"orange","left_mu":60,"right_mu":68,"left_numbers":[48,68,42,73,66],"right_numbers":[83,70,66,64,73],"points_earned":332,"trial_type":"horizons-task","trial_index":32,"time_elapsed":516570,"internal_node_id":"0.0-28.0"},{"response_times":[578.355000121519,385.5549998115748,337.9300001543015,415.07999994792044,1298.8450000993907,551.8700000829995,486.13999993540347,752.8349999338388,1381.0700001195073,578.925000037998],"keys_pressed":["leftarrow","rightarrow","leftarrow","rightarrow","leftarrow","rightarrow","leftarrow","leftarrow","leftarrow","leftarrow"],"horizon":10,"forced_choices":["leftarrow","rightarrow","leftarrow","rightarrow"],"right_color":"lightblue","left_color":"orange","left_mu":40,"right_mu":32,"left_numbers":[72,48,37,47,42,39,47,48,37,44],"right_numbers":[39,22,37,34,38,26,28,22,30,29],"points_earned":409,"trial_type":"horizons-task","trial_index":33,"time_elapsed":524843,"internal_node_id":"0.0-29.0"},{"response_times":[600.8450000081211,320.03000006079674,336.9599999859929,665.1149999815971,1418.2400000281632],"keys_pressed":["leftarrow","rightarrow","leftarrow","leftarrow","leftarrow"],"horizon":5,"forced_choices":["leftarrow","rightarrow","leftarrow","leftarrow"],"right_color":"orange","left_color":"lightblue","left_mu":40,"right_mu":48,"left_numbers":[44,56,32,36,34],"right_numbers":[36,44,41,73,34],"points_earned":190,"trial_type":"horizons-task","trial_index":34,"time_elapsed":529689,"internal_node_id":"0.0-30.0"},{"response_times":[582.969999872148,1093.9849999267608,469.82500003650784,541.9950000941753,1941.965000005439],"keys_pressed":["leftarrow","leftarrow","rightarrow","leftarrow","leftarrow"],"horizon":5,"forced_choices":["leftarrow","leftarrow","rightarrow","leftarrow"],"right_color":"lightblue","left_color":"orange","left_mu":40,"right_mu":28,"left_numbers":[27,41,32,45,31],"right_numbers":[21,26,32,27,18],"points_earned":176,"trial_type":"horizons-task","trial_index":35,"time_elapsed":535824,"internal_node_id":"0.0-31.0"},{"response_times":[589.0900001395494,422.71500010974705,397.4999999627471,1006.8649998866022,1645.6350001972169,1220.8399998489767,866.0349999554455,493.1900000665337,801.9350001122802,518.7499998137355],"keys_pressed":["leftarrow","leftarrow","rightarrow","rightarrow","rightarrow","leftarrow","leftarrow","leftarrow","rightarrow","leftarrow"],"horizon":10,"forced_choices":["leftarrow","leftarrow","rightarrow","rightarrow"],"right_color":"lightblue","left_color":"orange","left_mu":60,"right_mu":64,"left_numbers":[70,59,55,49,54,71,71,50,35,45],"right_numbers":[71,61,65,66,62,71,68,58,68,40],"points_earned":627,"trial_type":"horizons-task","trial_index":36,"time_elapsed":545291,"internal_node_id":"0.0-32.0"},{"response_times":[519.8200000450015,327.8599998448044,729.0600000414997,619.9299998115748,372.84499988891184],"keys_pressed":["leftarrow","rightarrow","rightarrow","leftarrow","rightarrow"],"horizon":5,"forced_choices":["leftarrow","rightarrow","rightarrow","leftarrow"],"right_color":"lightblue","left_color":"orange","left_mu":60,"right_mu":68,"left_numbers":[66,49,85,59,65],"right_numbers":[54,63,64,78,65],"points_earned":317,"trial_type":"horizons-task","trial_index":37,"time_elapsed":549365,"internal_node_id":"0.0-33.0"},{"response_times":[715.1999999769032,346.7200000304729,364.67000003904104,1084.1700001619756,1870.1100000180304],"keys_pressed":["rightarrow","leftarrow","rightarrow","rightarrow","leftarrow"],"horizon":5,"forced_choices":["rightarrow","leftarrow","rightarrow","rightarrow"],"right_color":"orange","left_color":"lightblue","left_mu":60,"right_mu":52,"left_numbers":[64,67,56,62,50],"right_numbers":[49,56,67,62,38],"points_earned":295,"trial_type":"horizons-task","trial_index":38,"time_elapsed":555284,"internal_node_id":"0.0-34.0"},{"response_times":[677.0800000522286,363.4899999015033,351.0150001384318,337.78000017628074,1745.3600000590086,560.4049998801202,651.1150000151247,584.3199999071658,582.7299999073148,464.7449997719377],"keys_pressed":["rightarrow","leftarrow","rightarrow","leftarrow","leftarrow","rightarrow","rightarrow","rightarrow","rightarrow","rightarrow"],"horizon":10,"forced_choices":["rightarrow","leftarrow","rightarrow","leftarrow"],"right_color":"lightblue","left_color":"orange","left_mu":60,"right_mu":68,"left_numbers":[65,58,62,63,58,64,73,70,63,64],"right_numbers":[55,66,66,58,87,70,63,77,67,69],"points_earned":646,"trial_type":"horizons-task","trial_index":39,"time_elapsed":563107,"internal_node_id":"0.0-35.0"},{"response_times":[567.8950001019984,332.06499996595085,327.9399999883026,559.8400000017136,1239.0300000552088],"keys_pressed":["rightarrow","leftarrow","rightarrow","rightarrow","rightarrow"],"horizon":5,"forced_choices":["rightarrow","leftarrow","rightarrow","rightarrow"],"right_color":"orange","left_color":"lightblue","left_mu":60,"right_mu":68,"left_numbers":[49,73,54,66,52],"right_numbers":[86,57,81,74,62],"points_earned":376,"trial_type":"horizons-task","trial_index":40,"time_elapsed":567638,"internal_node_id":"0.0-36.0"},{"response_times":[511.10999984666705,723.8600000273436,459.92000005207956,469.03999987989664,1324.1700001526624,614.680000115186,464.1100000590086,527.9699999373406,509.6950000151992,446.1099999025464],"keys_pressed":["rightarrow","rightarrow","leftarrow","leftarrow","rightarrow","rightarrow","rightarrow","rightarrow","rightarrow","rightarrow"],"horizon":10,"forced_choices":["rightarrow","rightarrow","leftarrow","leftarrow"],"right_color":"lightblue","left_color":"orange","left_mu":60,"right_mu":80,"left_numbers":[66,46,58,67,41,63,59,62,71,60],"right_numbers":[76,85,83,72,87,84,83,77,69,88],"points_earned":774,"trial_type":"horizons-task","trial_index":41,"time_elapsed":575193,"internal_node_id":"0.0-37.0"},{"response_times":[671.525000128895,333.9350000023842,395.83000005222857,345.05000011995435,1033.9299999177456,531.8749998696148,477.7999999932945,483.50000008940697,445.6050000153482,477.089999942109],"keys_pressed":["leftarrow","rightarrow","leftarrow","rightarrow","rightarrow","rightarrow","rightarrow","rightarrow","rightarrow","rightarrow"],"horizon":10,"forced_choices":["leftarrow","rightarrow","leftarrow","rightarrow"],"right_color":"lightblue","left_color":"orange","left_mu":60,"right_mu":80,"left_numbers":[66,54,54,71,54,48,71,51,70,59],"right_numbers":[70,87,92,71,70,86,92,85,81,79],"points_earned":771,"trial_type":"horizons-task","trial_index":42,"time_elapsed":581894,"internal_node_id":"0.0-38.0"},{"response_times":[646.8150001019239,327.48500001616776,510.0000000093132,723.8300000317395,828.0500001274049,295.9600000176579,2212.7100001089275,764.0899999532849,660.975000122562,508.93499981611967],"keys_pressed":["leftarrow","rightarrow","rightarrow","rightarrow","leftarrow","rightarrow","leftarrow","rightarrow","leftarrow","leftarrow"],"horizon":10,"forced_choices":["leftarrow","rightarrow","rightarrow","rightarrow"],"right_color":"lightblue","left_color":"orange","left_mu":40,"right_mu":36,"left_numbers":[34,45,40,35,50,51,42,40,37,30],"right_numbers":[46,38,31,39,32,40,52,23,29,24],"points_earned":364,"trial_type":"horizons-task","trial_index":43,"time_elapsed":590878,"internal_node_id":"0.0-39.0"},{"response_times":[621.4149999432266,432.9250000882894,346.9650000333786,556.2149998731911,1261.6250000428408],"keys_pressed":["leftarrow","leftarrow","rightarrow","rightarrow","rightarrow"],"horizon":5,"forced_choices":["leftarrow","leftarrow","rightarrow","rightarrow"],"right_color":"lightblue","left_color":"orange","left_mu":40,"right_mu":44,"left_numbers":[41,25,31,25,57],"right_numbers":[46,33,57,38,48],"points_earned":209,"trial_type":"horizons-task","trial_index":44,"time_elapsed":595602,"internal_node_id":"0.0-40.0"},{"response_times":[1193.889999995008,391.8050001375377,396.93499985150993,473.9699999336153,1923.0899999383837],"keys_pressed":["leftarrow","leftarrow","rightarrow","rightarrow","rightarrow"],"horizon":5,"forced_choices":["leftarrow","leftarrow","rightarrow","rightarrow"],"right_color":"orange","left_color":"lightblue","left_mu":40,"right_mu":52,"left_numbers":[43,32,35,53,53],"right_numbers":[51,50,42,49,62],"points_earned":228,"trial_type":"horizons-task","trial_index":45,"time_elapsed":601486,"internal_node_id":"0.0-41.0"},{"response_times":[838.7050000019372,437.82499991357327,437.3900000937283,414.46000011637807,2343.180000083521],"keys_pressed":["leftarrow","leftarrow","rightarrow","rightarrow","leftarrow"],"horizon":5,"forced_choices":["leftarrow","leftarrow","rightarrow","rightarrow"],"right_color":"lightblue","left_color":"orange","left_mu":60,"right_mu":48,"left_numbers":[59,40,51,60,61],"right_numbers":[46,44,55,56,41],"points_earned":271,"trial_type":"horizons-task","trial_index":46,"time_elapsed":607462,"internal_node_id":"0.0-42.0"},{"response_times":[463.74500007368624,351.7200001515448,687.8949999809265,852.1249999757856,1198.145000031218],"keys_pressed":["rightarrow","leftarrow","leftarrow","leftarrow","leftarrow"],"horizon":5,"forced_choices":["rightarrow","leftarrow","leftarrow","leftarrow"],"right_color":"lightblue","left_color":"orange","left_mu":60,"right_mu":40,"left_numbers":[56,61,64,55,64],"right_numbers":[54,41,41,43,39],"points_earned":298,"trial_type":"horizons-task","trial_index":47,"time_elapsed":612520,"internal_node_id":"0.0-43.0"},{"response_times":[543.4850000310689,318.6649999115616,323.5450000502169,318.81500012241304,1080.9750000480562],"keys_pressed":["leftarrow","rightarrow","leftarrow","rightarrow","rightarrow"],"horizon":5,"forced_choices":["leftarrow","rightarrow","leftarrow","rightarrow"],"right_color":"orange","left_color":"lightblue","left_mu":40,"right_mu":32,"left_numbers":[40,53,37,37,33],"right_numbers":[35,48,31,19,39],"points_earned":183,"trial_type":"horizons-task","trial_index":48,"time_elapsed":616614,"internal_node_id":"0.0-44.0"},{"view_history":"[{\"page_index\":0,\"viewing_time\":388746.46999989636},{\"page_index\":1,\"viewing_time\":7115.939999930561}]","rt":395862.7349999733,"trial_type":"instructions","trial_index":49,"time_elapsed":1012480,"internal_node_id":"0.0-45.0"},{"response_times":[3476.1699999216944,646.3999999687076,487.9650000948459,495.95999997109175,602.1200001705438],"keys_pressed":["leftarrow","rightarrow","leftarrow","rightarrow","leftarrow"],"horizon":5,"forced_choices":["leftarrow","rightarrow","leftarrow","rightarrow"],"right_color":"lightblue","left_color":"orange","left_mu":40,"right_mu":10,"left_numbers":[43,34,19,41,39],"right_numbers":[16,29,1,0,11],"points_earned":130,"trial_type":"horizons-task","trial_index":50,"time_elapsed":1019693,"internal_node_id":"0.0-46.0"},{"response_times":[596.6450001578778,381.77000009454787,452.1850000601262,401.07999998144805,1247.8549999650568],"keys_pressed":["leftarrow","leftarrow","rightarrow","leftarrow","leftarrow"],"horizon":5,"forced_choices":["leftarrow","leftarrow","rightarrow","leftarrow"],"right_color":"orange","left_color":"lightblue","left_mu":40,"right_mu":10,"left_numbers":[45,47,51,47,52],"right_numbers":[11,2,9,3,5],"points_earned":200,"trial_type":"horizons-task","trial_index":51,"time_elapsed":1024277,"internal_node_id":"0.0-47.0"},{"response_times":[562.4500000849366,334.0950000565499,363.9799999073148,377.9649999924004,798.1750001199543],"keys_pressed":["rightarrow","leftarrow","rightarrow","leftarrow","rightarrow"],"horizon":5,"forced_choices":["rightarrow","leftarrow","rightarrow","leftarrow"],"right_color":"orange","left_color":"lightblue","left_mu":40,"right_mu":70,"left_numbers":[31,35,46,38,31],"right_numbers":[83,77,73,57,55],"points_earned":284,"trial_type":"horizons-task","trial_index":52,"time_elapsed":1028218,"internal_node_id":"0.0-48.0"},{"response_times":[492.25999996997416,386.8050000164658,350.9799998719245,345.97499994561076,823.9049999974668],"keys_pressed":["leftarrow","leftarrow","rightarrow","leftarrow","rightarrow"],"horizon":5,"forced_choices":["leftarrow","leftarrow","rightarrow","leftarrow"],"right_color":"lightblue","left_color":"orange","left_mu":40,"right_mu":60,"left_numbers":[38,36,53,43,48],"right_numbers":[68,59,70,60,68],"points_earned":255,"trial_type":"horizons-task","trial_index":53,"time_elapsed":1032122,"internal_node_id":"0.0-49.0"},{"response_times":[453.4249999560416,354.79499981738627,414.8399999830872,374.04999998398125,487.88500018417835],"keys_pressed":["rightarrow","rightarrow","rightarrow","leftarrow","rightarrow"],"horizon":5,"forced_choices":["rightarrow","rightarrow","rightarrow","leftarrow"],"right_color":"lightblue","left_color":"orange","left_mu":40,"right_mu":28,"left_numbers":[21,45,39,31,46],"right_numbers":[26,30,45,23,36],"points_earned":168,"trial_type":"horizons-task","trial_index":54,"time_elapsed":1035710,"internal_node_id":"0.0-50.0"},{"response_times":[504.4100000523031,310.04999997094274,924.9799998942763,2246.900000143796,2283.1699999514967,617.545000044629,466.0799999255687,518.8999997917563,769.9750000610948,482.94000001624227],"keys_pressed":["rightarrow","leftarrow","leftarrow","rightarrow","rightarrow","rightarrow","leftarrow","rightarrow","leftarrow","rightarrow"],"horizon":10,"forced_choices":["rightarrow","leftarrow","leftarrow","rightarrow"],"right_color":"orange","left_color":"lightblue","left_mu":60,"right_mu":68,"left_numbers":[55,55,61,67,61,64,65,60,47,67],"right_numbers":[69,73,81,66,64,73,70,71,67,74],"points_earned":645,"trial_type":"horizons-task","trial_index":55,"time_elapsed":1046341,"internal_node_id":"0.0-51.0"},{"response_times":[549.7750001959503,305.5299997795373,711.0500000417233,486.90999997779727,1189.9050001520663],"keys_pressed":["rightarrow","leftarrow","leftarrow","rightarrow","leftarrow"],"horizon":5,"forced_choices":["rightarrow","leftarrow","leftarrow","rightarrow"],"right_color":"orange","left_color":"lightblue","left_mu":40,"right_mu":44,"left_numbers":[28,27,37,41,40],"right_numbers":[38,44,62,41,46],"points_earned":183,"trial_type":"horizons-task","trial_index":56,"time_elapsed":1051090,"internal_node_id":"0.0-52.0"},{"response_times":[735.3649998549372,324.08499997109175,851.8600000534207,793.0199999827892,1969.044999917969,505.7100001722574,514.8950000293553,488.3699999190867,418.610000051558,423.8599999807775],"keys_pressed":["rightarrow","leftarrow","leftarrow","leftarrow","rightarrow","rightarrow","leftarrow","rightarrow","rightarrow","rightarrow"],"horizon":10,"forced_choices":["rightarrow","leftarrow","leftarrow","leftarrow"],"right_color":"orange","left_color":"lightblue","left_mu":40,"right_mu":52,"left_numbers":[42,38,36,49,47,37,30,29,46,47],"right_numbers":[54,54,65,51,51,41,29,44,47,31],"points_earned":421,"trial_type":"horizons-task","trial_index":57,"time_elapsed":1059621,"internal_node_id":"0.0-53.0"},{"response_times":[577.2049999795854,354.8950001131743,546.824999852106,354.78000016883016,1204.2099998798221,577.9200000688434,428.8900000974536,501.0299999266863,392.05499994568527,496.79000000469387],"keys_pressed":["rightarrow","leftarrow","rightarrow","leftarrow","leftarrow","leftarrow","rightarrow","leftarrow","leftarrow","leftarrow"],"horizon":10,"forced_choices":["rightarrow","leftarrow","rightarrow","leftarrow"],"right_color":"lightblue","left_color":"orange","left_mu":40,"right_mu":28,"left_numbers":[47,32,44,32,35,37,22,38,35,25],"right_numbers":[16,37,33,24,46,41,16,26,28,39],"points_earned":299,"trial_type":"horizons-task","trial_index":58,"time_elapsed":1066560,"internal_node_id":"0.0-54.0"},{"response_times":[527.995000127703,323.2449998613447,313.68499994277954,314.9800000246614,327.8999999165535,878.9399999659508,341.96499991230667,500.78000011853874,401.37000009417534,286.56000015325844],"keys_pressed":["leftarrow","rightarrow","leftarrow","rightarrow","leftarrow","rightarrow","leftarrow","rightarrow","rightarrow","rightarrow"],"horizon":10,"forced_choices":["leftarrow","rightarrow","leftarrow","rightarrow"],"right_color":"lightblue","left_color":"orange","left_mu":40,"right_mu":48,"left_numbers":[45,32,38,46,39,32,31,37,43,33],"right_numbers":[34,34,48,35,39,61,64,63,45,42],"points_earned":433,"trial_type":"horizons-task","trial_index":59,"time_elapsed":1072282,"internal_node_id":"0.0-55.0"},{"response_times":[596.6000000480562,313.6799999047071,469.15500005707145,765.7649999018759,1367.1699999831617,487.77000000700355,441.9499998912215,290.94000020995736,282.9599999822676,533.2949999719858],"keys_pressed":["rightarrow","leftarrow","leftarrow","leftarrow","rightarrow","leftarrow","leftarrow","leftarrow","leftarrow","rightarrow"],"horizon":10,"forced_choices":["rightarrow","leftarrow","leftarrow","leftarrow"],"right_color":"lightblue","left_color":"orange","left_mu":40,"right_mu":28,"left_numbers":[23,39,44,51,27,43,35,57,44,39],"right_numbers":[49,33,24,20,32,40,27,22,21,12],"points_earned":406,"trial_type":"horizons-task","trial_index":60,"time_elapsed":1079336,"internal_node_id":"0.0-56.0"},{"response_times":[536.1399999819696,611.2450000364333,888.6050002183765,518.9350000582635,961.3900000695139],"keys_pressed":["rightarrow","rightarrow","rightarrow","leftarrow","rightarrow"],"horizon":5,"forced_choices":["rightarrow","rightarrow","rightarrow","leftarrow"],"right_color":"orange","left_color":"lightblue","left_mu":60,"right_mu":80,"left_numbers":[60,39,58,52,64],"right_numbers":[78,78,82,87,84],"points_earned":374,"trial_type":"horizons-task","trial_index":61,"time_elapsed":1084357,"internal_node_id":"0.0-57.0"},{"response_times":[786.0449999570847,361.0600000247359,496.9099999871105,423.7100000027567,588.274999987334],"keys_pressed":["leftarrow","rightarrow","rightarrow","leftarrow","rightarrow"],"horizon":5,"forced_choices":["leftarrow","rightarrow","rightarrow","leftarrow"],"right_color":"orange","left_color":"lightblue","left_mu":60,"right_mu":72,"left_numbers":[56,53,39,66,62],"right_numbers":[76,72,84,70,75],"points_earned":353,"trial_type":"horizons-task","trial_index":62,"time_elapsed":1088518,"internal_node_id":"0.0-58.0"},{"response_times":[500.69999997504056,441.3600000552833,437.0200000703335,418.7699998728931,1163.0850001238286],"keys_pressed":["rightarrow","rightarrow","leftarrow","rightarrow","leftarrow"],"horizon":5,"forced_choices":["rightarrow","rightarrow","leftarrow","rightarrow"],"right_color":"orange","left_color":"lightblue","left_mu":60,"right_mu":40,"left_numbers":[77,63,52,53,67],"right_numbers":[45,27,49,36,38],"points_earned":227,"trial_type":"horizons-task","trial_index":63,"time_elapsed":1092983,"internal_node_id":"0.0-59.0"},{"response_times":[563.3150001522154,323.80999997258186,372.91999999433756,588.0500001367182,1370.9149998612702,382.0150000974536,678.7750001531094,456.0050000436604,901.8449999857694,574.300000211224],"keys_pressed":["leftarrow","rightarrow","leftarrow","leftarrow","leftarrow","rightarrow","rightarrow","leftarrow","leftarrow","rightarrow"],"horizon":10,"forced_choices":["leftarrow","rightarrow","leftarrow","leftarrow"],"right_color":"orange","left_color":"lightblue","left_mu":60,"right_mu":52,"left_numbers":[64,69,51,51,57,58,56,61,45,59],"right_numbers":[59,57,56,58,42,50,63,51,50,57],"points_earned":556,"trial_type":"horizons-task","trial_index":64,"time_elapsed":1100701,"internal_node_id":"0.0-60.0"},{"response_times":[596.4049999602139,346.85000008903444,400.95000015571713,345.8350000437349,351.06500005349517,423.88999997638166,373.0849998537451,692.8449999541044,400.9550001937896,446.9000000972301],"keys_pressed":["rightarrow","leftarrow","leftarrow","rightarrow","leftarrow","rightarrow","rightarrow","leftarrow","rightarrow","rightarrow"],"horizon":10,"forced_choices":["rightarrow","leftarrow","leftarrow","rightarrow"],"right_color":"lightblue","left_color":"orange","left_mu":40,"right_mu":44,"left_numbers":[38,42,46,49,34,32,31,47,40,45],"right_numbers":[38,34,40,56,31,55,46,45,33,64],"points_earned":461,"trial_type":"horizons-task","trial_index":65,"time_elapsed":1106584,"internal_node_id":"0.0-61.0"},{"response_times":[495.9050000179559,322.82500015571713,318.99499986320734,354.9499998334795,901.9499998539686],"keys_pressed":["leftarrow","rightarrow","leftarrow","rightarrow","leftarrow"],"horizon":5,"forced_choices":["leftarrow","rightarrow","leftarrow","rightarrow"],"right_color":"orange","left_color":"lightblue","left_mu":60,"right_mu":40,"left_numbers":[48,52,61,62,63],"right_numbers":[31,42,50,44,36],"points_earned":258,"trial_type":"horizons-task","trial_index":66,"time_elapsed":1110483,"internal_node_id":"0.0-62.0"},{"response_times":[497.5649998523295,354.5600001234561,309.96500002220273,363.8549998868257,328.9850000292063],"keys_pressed":["rightarrow","leftarrow","rightarrow","leftarrow","rightarrow"],"horizon":5,"forced_choices":["rightarrow","leftarrow","rightarrow","leftarrow"],"right_color":"lightblue","left_color":"orange","left_mu":60,"right_mu":30,"left_numbers":[53,64,54,58,65],"right_numbers":[33,22,32,35,17],"points_earned":204,"trial_type":"horizons-task","trial_index":67,"time_elapsed":1113842,"internal_node_id":"0.0-63.0"},{"response_times":[550.4150001797825,327.90999999269843,441.7649998795241,647.069999948144,843.1750000454485],"keys_pressed":["leftarrow","rightarrow","rightarrow","leftarrow","rightarrow"],"horizon":5,"forced_choices":["leftarrow","rightarrow","rightarrow","leftarrow"],"right_color":"lightblue","left_color":"orange","left_mu":40,"right_mu":48,"left_numbers":[42,39,43,38,22],"right_numbers":[46,56,53,44,56],"points_earned":245,"trial_type":"horizons-task","trial_index":68,"time_elapsed":1118156,"internal_node_id":"0.0-64.0"},{"response_times":[536.6149998735636,705.7099998928607,578.914999961853,437.0550001040101,523.8400001544505,688.3399998769164,501.56000000424683,568.7800000887364,716.1250000353903,582.8350000083447],"keys_pressed":["rightarrow","rightarrow","leftarrow","rightarrow","rightarrow","rightarrow","leftarrow","rightarrow","rightarrow","rightarrow"],"horizon":10,"forced_choices":["rightarrow","rightarrow","leftarrow","rightarrow"],"right_color":"lightblue","left_color":"orange","left_mu":60,"right_mu":72,"left_numbers":[70,56,53,59,62,66,52,48,68,69],"right_numbers":[65,74,73,82,57,62,63,72,73,75],"points_earned":665,"trial_type":"horizons-task","trial_index":69,"time_elapsed":1125501,"internal_node_id":"0.0-65.0"},{"response_times":[463.8099998701364,345.99000005982816,291.834999807179,1153.0400000046939,887.7499999944121],"keys_pressed":["rightarrow","leftarrow","rightarrow","rightarrow","leftarrow"],"horizon":5,"forced_choices":["rightarrow","leftarrow","rightarrow","rightarrow"],"right_color":"orange","left_color":"lightblue","left_mu":60,"right_mu":30,"left_numbers":[75,51,60,65,56],"right_numbers":[27,19,22,31,23],"points_earned":187,"trial_type":"horizons-task","trial_index":70,"time_elapsed":1130148,"internal_node_id":"0.0-66.0"},{"response_times":[682.4550000019372,360.01499998383224,433.07500006631017,643.184999935329,746.4700001291931,901.9599999301136,555.8949999976903,414.9249999318272,359.9700001068413,441.9700000435114],"keys_pressed":["leftarrow","rightarrow","leftarrow","leftarrow","rightarrow","rightarrow","rightarrow","rightarrow","rightarrow","rightarrow"],"horizon":10,"forced_choices":["leftarrow","rightarrow","leftarrow","leftarrow"],"right_color":"orange","left_color":"lightblue","left_mu":40,"right_mu":70,"left_numbers":[42,48,51,47,44,46,29,43,49,52],"right_numbers":[74,84,62,63,74,68,76,76,65,71],"points_earned":654,"trial_type":"horizons-task","trial_index":71,"time_elapsed":1137194,"internal_node_id":"0.0-67.0"},{"response_times":[570.6300002057105,346.40500019304454,464.83999979682267,445.5700002145022,724.9000000301749,391.9749998021871,395.9749999921769,469.7549999691546,300.10499991476536,409.90499989129603],"keys_pressed":["leftarrow","rightarrow","rightarrow","rightarrow","leftarrow","rightarrow","rightarrow","leftarrow","leftarrow","leftarrow"],"horizon":10,"forced_choices":["leftarrow","rightarrow","rightarrow","rightarrow"],"right_color":"lightblue","left_color":"orange","left_mu":40,"right_mu":28,"left_numbers":[13,41,42,35,39,49,42,44,35,36],"right_numbers":[37,50,33,36,40,21,41,31,21,42],"points_earned":348,"trial_type":"horizons-task","trial_index":72,"time_elapsed":1143217,"internal_node_id":"0.0-68.0"},{"response_times":[496.68500013649464,554.7899999655783,447.165000019595,354.5250000897795,747.0599999651313],"keys_pressed":["leftarrow","leftarrow","leftarrow","rightarrow","leftarrow"],"horizon":5,"forced_choices":["leftarrow","leftarrow","leftarrow","rightarrow"],"right_color":"lightblue","left_color":"orange","left_mu":40,"right_mu":36,"left_numbers":[43,37,38,29,36],"right_numbers":[44,37,35,27,27],"points_earned":181,"trial_type":"horizons-task","trial_index":73,"time_elapsed":1147322,"internal_node_id":"0.0-69.0"},{"response_times":[462.6050000078976,327.82000000588596,496.92499986849725,697.1749998629093,528.8400000426918,381.8700001575053,514.9149999488145,478.05500007234514,665.9000001382083,395.8999998867512],"keys_pressed":["rightarrow","leftarrow","leftarrow","leftarrow","rightarrow","leftarrow","leftarrow","leftarrow","rightarrow","leftarrow"],"horizon":10,"forced_choices":["rightarrow","leftarrow","leftarrow","leftarrow"],"right_color":"orange","left_color":"lightblue","left_mu":60,"right_mu":56,"left_numbers":[56,61,65,50,76,63,57,50,62,49],"right_numbers":[57,51,47,50,53,57,41,62,58,58],"points_earned":563,"trial_type":"horizons-task","trial_index":74,"time_elapsed":1153778,"internal_node_id":"0.0-70.0"},{"response_times":[493.1850000284612,336.5800001192838,641.910000005737,1329.9549999646842,519.7750001680106,450.88499994017184,537.9849998280406,496.0499999579042,564.9499997962266,537.9250000696629],"keys_pressed":["leftarrow","rightarrow","rightarrow","rightarrow","leftarrow","rightarrow","rightarrow","leftarrow","rightarrow","rightarrow"],"horizon":10,"forced_choices":["leftarrow","rightarrow","rightarrow","rightarrow"],"right_color":"orange","left_color":"lightblue","left_mu":60,"right_mu":64,"left_numbers":[56,47,79,54,63,65,65,57,65,59],"right_numbers":[56,63,76,64,57,61,63,48,65,65],"points_earned":633,"trial_type":"horizons-task","trial_index":75,"time_elapsed":1161191,"internal_node_id":"0.0-71.0"},{"response_times":[678.0499999877065,350.77999997884035,414.44500000216067,1039.4550000783056,733.2750000059605],"keys_pressed":["leftarrow","rightarrow","leftarrow","rightarrow","leftarrow"],"horizon":5,"forced_choices":["leftarrow","rightarrow","leftarrow","rightarrow"],"right_color":"orange","left_color":"lightblue","left_mu":60,"right_mu":30,"left_numbers":[68,52,63,52,59],"right_numbers":[16,30,28,38,26],"points_earned":258,"trial_type":"horizons-task","trial_index":76,"time_elapsed":1165911,"internal_node_id":"0.0-72.0"},{"response_times":[770.5899998545647,1862.955000018701,1303.7350000813603,433.0049999989569,313.9599999412894,1544.810000108555,633.1050000153482,1471.8700000084937,1581.3700000289828,706.4600000157952],"keys_pressed":["rightarrow","leftarrow","leftarrow","leftarrow","rightarrow","leftarrow","leftarrow","rightarrow","leftarrow","leftarrow"],"horizon":10,"forced_choices":["rightarrow","leftarrow","leftarrow","leftarrow"],"right_color":"lightblue","left_color":"orange","left_mu":40,"right_mu":36,"left_numbers":[28,45,38,35,40,43,19,45,42,34],"right_numbers":[30,31,33,37,39,36,46,37,36,44],"points_earned":362,"trial_type":"horizons-task","trial_index":77,"time_elapsed":1178038,"internal_node_id":"0.0-73.0"},{"response_times":[1434.9250001832843,309.85000007785857,841.8650000821799,2775.0249998643994,2698.2550001703203,610.6149998959154,1521.8750000931323,965.8999999519438,586.9350000284612,615.9700001589954],"keys_pressed":["rightarrow","leftarrow","leftarrow","rightarrow","leftarrow","leftarrow","leftarrow","leftarrow","leftarrow","leftarrow"],"horizon":10,"forced_choices":["rightarrow","leftarrow","leftarrow","rightarrow"],"right_color":"lightblue","left_color":"orange","left_mu":60,"right_mu":48,"left_numbers":[61,67,73,57,66,73,61,61,66,56],"right_numbers":[40,44,36,42,45,44,48,43,65,65],"points_earned":605,"trial_type":"horizons-task","trial_index":78,"time_elapsed":1191904,"internal_node_id":"0.0-74.0"},{"response_times":[1144.5049999747425,579.7099999617785,455.80999995581806,920.0750000309199,3126.3000001199543],"keys_pressed":["rightarrow","rightarrow","leftarrow","leftarrow","rightarrow"],"horizon":5,"forced_choices":["rightarrow","rightarrow","leftarrow","leftarrow"],"right_color":"lightblue","left_color":"orange","left_mu":60,"right_mu":80,"left_numbers":[59,57,54,76,54],"right_numbers":[81,64,88,82,89],"points_earned":364,"trial_type":"horizons-task","trial_index":79,"time_elapsed":1199636,"internal_node_id":"0.0-75.0"},{"response_times":[746.1850000545382,655.9300001244992,391.7499999515712,748.1250001583248,852.0499998703599,610.9900001902133,659.8699998576194,3902.1900000516325,432.6750000473112,724.879999877885],"keys_pressed":["leftarrow","leftarrow","rightarrow","leftarrow","rightarrow","leftarrow","leftarrow","leftarrow","rightarrow","leftarrow"],"horizon":10,"forced_choices":["leftarrow","leftarrow","rightarrow","leftarrow"],"right_color":"lightblue","left_color":"orange","left_mu":60,"right_mu":56,"left_numbers":[71,48,45,70,70,56,71,64,59,52],"right_numbers":[57,60,62,47,59,53,42,61,64,54],"points_earned":617,"trial_type":"horizons-task","trial_index":80,"time_elapsed":1210865,"internal_node_id":"0.0-76.0"},{"response_times":[581.9500000216067,415.6749998219311,462.72499999031425,790.0949998293072,1517.035000026226],"keys_pressed":["rightarrow","rightarrow","leftarrow","leftarrow","rightarrow"],"horizon":5,"forced_choices":["rightarrow","rightarrow","leftarrow","leftarrow"],"right_color":"lightblue","left_color":"orange","left_mu":60,"right_mu":68,"left_numbers":[59,56,67,61,71],"right_numbers":[71,59,70,69,66],"points_earned":324,"trial_type":"horizons-task","trial_index":81,"time_elapsed":1216137,"internal_node_id":"0.0-77.0"},{"response_times":[2125.135000096634,514.5600000396371,432.9299998935312,495.89999997988343,1919.0450001042336],"keys_pressed":["rightarrow","rightarrow","leftarrow","leftarrow","rightarrow"],"horizon":5,"forced_choices":["rightarrow","rightarrow","leftarrow","leftarrow"],"right_color":"orange","left_color":"lightblue","left_mu":40,"right_mu":36,"left_numbers":[34,30,40,43,52],"right_numbers":[34,37,38,40,39],"points_earned":193,"trial_type":"horizons-task","trial_index":82,"time_elapsed":1223127,"internal_node_id":"0.0-78.0"},{"response_times":[469.25500012002885,341.90499992109835,482.73999989032745,528.954999987036,1317.0650000683963,650.9699998423457,442.005000077188,460.9350000973791,441.12999993376434,405.70000000298023],"keys_pressed":["rightarrow","leftarrow","leftarrow","leftarrow","leftarrow","rightarrow","leftarrow","leftarrow","leftarrow","leftarrow"],"horizon":10,"forced_choices":["rightarrow","leftarrow","leftarrow","leftarrow"],"right_color":"orange","left_color":"lightblue","left_mu":60,"right_mu":52,"left_numbers":[67,63,49,48,71,55,57,73,57,66],"right_numbers":[51,68,55,44,47,46,55,43,53,57],"points_earned":581,"trial_type":"horizons-task","trial_index":83,"time_elapsed":1230173,"internal_node_id":"0.0-79.0"},{"response_times":[632.1799999568611,472.8100001811981,447.09999999031425,537.609999999404,424.11500005982816,500.8700001053512,436.9999999180436,624.7749999165535,806.0800000093877,769.8850000742823],"keys_pressed":["leftarrow","rightarrow","rightarrow","rightarrow","leftarrow","rightarrow","rightarrow","leftarrow","rightarrow","rightarrow"],"horizon":10,"forced_choices":["leftarrow","rightarrow","rightarrow","rightarrow"],"right_color":"lightblue","left_color":"orange","left_mu":40,"right_mu":52,"left_numbers":[45,43,48,23,48,48,40,23,45,38],"right_numbers":[67,37,46,38,54,49,54,55,56,48],"points_earned":444,"trial_type":"horizons-task","trial_index":84,"time_elapsed":1237332,"internal_node_id":"0.0-80.0"},{"response_times":[539.6799999289215,415.2199998497963,327.5849998462945,337.085000006482,682.8899998217821,446.86500006355345,591.8700001202524,579.0649999398738,691.9899999629706,734.12000015378],"keys_pressed":["leftarrow","rightarrow","leftarrow","rightarrow","rightarrow","leftarrow","leftarrow","leftarrow","rightarrow","rightarrow"],"horizon":10,"forced_choices":["leftarrow","rightarrow","leftarrow","rightarrow"],"right_color":"lightblue","left_color":"orange","left_mu":60,"right_mu":64,"left_numbers":[59,69,54,62,49,60,75,54,60,56],"right_numbers":[62,63,61,57,57,65,62,59,73,69],"points_earned":621,"trial_type":"horizons-task","trial_index":85,"time_elapsed":1244183,"internal_node_id":"0.0-81.0"},{"response_times":[500.69999997504056,437.47000000439584,396.27499994821846,728.8900001440197,865.955000044778,533.5150000173599,464.24000011757016,519.5299999322742,368.43000003136694,678.9899999275804],"keys_pressed":["rightarrow","rightarrow","leftarrow","leftarrow","leftarrow","rightarrow","leftarrow","leftarrow","leftarrow","leftarrow"],"horizon":10,"forced_choices":["rightarrow","rightarrow","leftarrow","leftarrow"],"right_color":"orange","left_color":"lightblue","left_mu":40,"right_mu":52,"left_numbers":[57,43,40,30,44,48,43,37,31,59],"right_numbers":[56,58,59,48,49,37,41,47,82,54],"points_earned":435,"trial_type":"horizons-task","trial_index":86,"time_elapsed":1251182,"internal_node_id":"0.0-82.0"},{"response_times":[587.9200000781566,354.64999987743795,429.25500008277595,413.8450000900775,418.9699999988079],"keys_pressed":["rightarrow","leftarrow","leftarrow","rightarrow","leftarrow"],"horizon":5,"forced_choices":["rightarrow","leftarrow","leftarrow","rightarrow"],"right_color":"lightblue","left_color":"orange","left_mu":40,"right_mu":20,"left_numbers":[53,31,44,44,43],"right_numbers":[28,25,9,22,16],"points_earned":168,"trial_type":"horizons-task","trial_index":87,"time_elapsed":1254891,"internal_node_id":"0.0-83.0"},{"response_times":[582.935000071302,345.9199999924749,596.9549999572337,423.9000000525266,3946.3849999010563,4579.510000068694,546.9649999868125,537.8799999598414,432.7849999535829,578.8900000043213],"keys_pressed":["leftarrow","rightarrow","rightarrow","leftarrow","leftarrow","leftarrow","rightarrow","leftarrow","rightarrow","rightarrow"],"horizon":10,"forced_choices":["leftarrow","rightarrow","rightarrow","leftarrow"],"right_color":"lightblue","left_color":"orange","left_mu":40,"right_mu":44,"left_numbers":[47,37,38,44,48,51,27,22,33,34],"right_numbers":[47,46,35,53,49,38,50,33,47,42],"points_earned":432,"trial_type":"horizons-task","trial_index":88,"time_elapsed":1268968,"internal_node_id":"0.0-84.0"},{"response_times":[536.8399999570101,345.9649998694658,373.96500003524125,442.9999999701977,591.2799998186529],"keys_pressed":["leftarrow","rightarrow","leftarrow","rightarrow","leftarrow"],"horizon":5,"forced_choices":["leftarrow","rightarrow","leftarrow","rightarrow"],"right_color":"lightblue","left_color":"orange","left_mu":60,"right_mu":56,"left_numbers":[61,57,52,56,69],"right_numbers":[46,35,49,45,58],"points_earned":262,"trial_type":"horizons-task","trial_index":89,"time_elapsed":1272764,"internal_node_id":"0.0-85.0"},{"rt":18933.68999985978,"responses":{"age":"18","gender-categorical":"Male","gender-free-response":"","ethnicity":"Not Hispanic or Latino","race":["Asian"],"language":"No","fluency":"Very well"},"survey":"demographics","trial_type":"survey-demo","trial_index":90,"time_elapsed":1291702,"internal_node_id":"0.0-86.0"},{"rt":11433.555000228807,"responses":{"difficulty":"5","fun":"5","clarity":"5","strategy":"","feedback":""},"survey":"debrief","trial_type":"survey-debrief","trial_index":91,"time_elapsed":1303138,"internal_node_id":"0.0-87.0","interactions":"[{\"event\":\"blur\",\"trial\":2,\"time\":118318},{\"event\":\"focus\",\"trial\":2,\"time\":118618},{\"event\":\"blur\",\"trial\":8,\"time\":274513},{\"event\":\"focus\",\"trial\":8,\"time\":286010},{\"event\":\"blur\",\"trial\":49,\"time\":955951},{\"event\":\"focus\",\"trial\":49,\"time\":958139}]"}]