[{"view_history":"[{\"page_index\":0,\"viewing_time\":4498.045000000275}]","rt":4498.919999998179,"trial_type":"instructions","trial_index":0,"time_elapsed":4525,"internal_node_id":"0.0-0.0"},{"item_order":[6,10,5,0,2,12,14,4,7,16,15,8,3,1,13,11,9],"responses":{"Q07":"1","Q11":"2","Q06":"1","Q01":"1","Q03":"1","Q13":"1","Q15":"1","Q05":"0","Q08":"1","Q17":"0","Q16":"1","Q09":"0","Q04":"1","Q02":"0","Q14":"0","Q12":"0","Q10":"2"},"radio_events":[3250.304999994114,12340.199999991455,14342.199999999139,17400.259999994887,17918.109999998705,21306.194999997388,23416.394999992917,25406.21000000101,27364.22999999195,31430.274999991525,33790.199999988545,35670.25499998999,37957.80499999819,39152.23500000138,43155.89499998896,46040.37999999127,50189.75999999384],"key_events":[],"mouse_events":[0.18999999156221747,3250.304999994114,12340.199999991455,14342.199999999139,15996.239999993122,17400.259999994887,17918.109999998705,21306.194999997388,23416.394999992917,25406.21000000101,27364.22999999195,31430.274999991525,33790.199999988545,34974.044999995385,35670.25499998999,37957.80499999819,39152.23500000138,43155.89499998896,46040.37999999127,49522.22999998776,50189.75999999384,51802.11999999301],"rt":51807.82499999623,"survey":"pswq","trial_type":"survey-template","trial_index":1,"time_elapsed":56343,"internal_node_id":"0.0-1.0"},{"item_order":[0,2,3,5,7,11,12,1,9,10,6,8,4],"responses":{"Q01":"2","Q03":"1","Q04":"3","Q06":"1","Q08":"2","Q12":"1","Q13":"4","Q02":"2","Q10":"1","Q11":"3","Q07":"1","Q09":"2","Q05":"2"},"radio_events":[4834.499999997206,8334.614999999758,11234.590000007302,12922.594999996363,16074.424999998882,20210.540000000037,21986.445000002277,25278.489999996964,28522.50500000082,31412.44500000903,33210.51499999885,35838.1500000105,37792.33500000555],"key_events":[],"mouse_events":[4834.499999997206,8334.614999999758,11234.590000007302,12922.594999996363,16074.424999998882,20210.540000000037,21986.445000002277,25278.489999996964,28522.50500000082,31412.44500000903,33210.51499999885,35838.1500000105,37792.33500000555,38718.24499999639],"rt":38720.45999999682,"survey":"ius12","trial_type":"survey-template","trial_index":2,"time_elapsed":95070,"internal_node_id":"0.0-2.0"},{"view_history":"[{\"page_index\":0,\"viewing_time\":3892.9449999995995},{\"page_index\":1,\"viewing_time\":4054.069999998319},{\"page_index\":2,\"viewing_time\":5447.959999990417},{\"page_index\":3,\"viewing_time\":5942.040000009001},{\"page_index\":4,\"viewing_time\":6147.689999997965},{\"page_index\":5,\"viewing_time\":3156.25},{\"page_index\":6,\"viewing_time\":9551.930000001448},{\"page_index\":7,\"viewing_time\":9617.855000004056},{\"page_index\":8,\"viewing_time\":7552.094999991823},{\"page_index\":9,\"viewing_time\":10009.90499999898}]","rt":65373.16999999166,"trial_type":"instructions","trial_index":3,"time_elapsed":160445,"internal_node_id":"0.0-3.0-0.0"},{"response_times":[10582.985000000917,2135.565000004135,1249.4149999984074,1385.6599999999162,2747.4699999875156],"keys_pressed":["rightarrow","leftarrow","rightarrow","rightarrow","leftarrow"],"horizon":5,"forced_choices":["rightarrow","leftarrow","rightarrow","rightarrow"],"right_color":"lightblue","left_color":"orange","left_mu":40,"right_mu":20,"left_numbers":[41,34,35,40,49],"right_numbers":[33,20,13,18,14],"points_earned":147,"trial_type":"horizons-task","trial_index":4,"time_elapsed":180060,"internal_node_id":"0.0-3.0-1.0"},{"response_times":[1320.2750000054948,1438.11000000278,801.965000006021,1064.4150000007357,2573.9750000066124,1014.469999994617,923.3649999951012,1489.5849999884376,767.9800000041723,913.5850000020582],"keys_pressed":["leftarrow","leftarrow","rightarrow","rightarrow","rightarrow","rightarrow","rightarrow","rightarrow","rightarrow","rightarrow"],"horizon":10,"forced_choices":["leftarrow","leftarrow","rightarrow","rightarrow"],"right_color":"orange","left_color":"lightblue","left_mu":60,"right_mu":70,"left_numbers":[63,55,69,58,52,46,70,54,56,50],"right_numbers":[83,71,74,58,63,67,69,72,59,69],"points_earned":649,"trial_type":"horizons-task","trial_index":5,"time_elapsed":193872,"internal_node_id":"0.0-3.0-2.0"},{"view_history":"[{\"page_index\":0,\"viewing_time\":2013.8450000085868},{\"page_index\":1,\"viewing_time\":2231.54500000237},{\"page_index\":2,\"viewing_time\":2814.554999989923},{\"page_index\":3,\"viewing_time\":2719.6050000056857}]","rt":9780.559999999241,"trial_type":"instructions","trial_index":6,"time_elapsed":203655,"internal_node_id":"0.0-3.0-3.0"},{"responses":["true","false","false","true"],"num_errors":0,"rt":12447.060000005877,"trial_type":"horizons-comprehension","trial_index":7,"time_elapsed":216110,"internal_node_id":"0.0-3.0-4.0"},{"view_history":"[{\"page_index\":0,\"viewing_time\":2528.760000001057},{\"page_index\":1,\"viewing_time\":4600.544999993872}]","rt":7130.030000000261,"trial_type":"instructions","trial_index":8,"time_elapsed":223243,"internal_node_id":"0.0-4.0"},{"response_times":[1234.7200000076555,903.3199999976205,1173.7799999973504,952.3950000002515,1228.3500000048662,1850.5049999948824,983.699999997043,892.2049999964656,781.6800000000512,858.1850000045961],"keys_pressed":["leftarrow","rightarrow","rightarrow","leftarrow","rightarrow","leftarrow","rightarrow","rightarrow","rightarrow","rightarrow"],"horizon":10,"forced_choices":["leftarrow","rightarrow","rightarrow","leftarrow"],"right_color":"lightblue","left_color":"orange","left_mu":40,"right_mu":48,"left_numbers":[48,42,28,42,41,36,48,44,50,50],"right_numbers":[43,39,48,44,41,51,49,47,55,40],"points_earned":445,"trial_type":"horizons-task","trial_index":9,"time_elapsed":235622,"internal_node_id":"0.0-5.0"},{"response_times":[2117.3500000004424,880.2399999985937,942.8049999987707,932.9349999898113,1154.2849999968894,892.6249999931315,691.145000004326,747.5449999910779,648.220000002766,750.7900000055088],"keys_pressed":["rightarrow","leftarrow","leftarrow","rightarrow","rightarrow","leftarrow","rightarrow","rightarrow","rightarrow","rightarrow"],"horizon":10,"forced_choices":["rightarrow","leftarrow","leftarrow","rightarrow"],"right_color":"lightblue","left_color":"orange","left_mu":60,"right_mu":68,"left_numbers":[59,61,60,81,51,61,47,48,39,52],"right_numbers":[70,69,61,74,74,57,68,71,65,66],"points_earned":670,"trial_type":"horizons-task","trial_index":10,"time_elapsed":246883,"internal_node_id":"0.0-6.0"},{"response_times":[795.1449999964098,992.8799999906914,1127.4149999953806,770.0650000042515,2290.884999994887,707.2000000043772,546.440000005532,711.3650000101188,558.0049999989569,595.25999998732],"keys_pressed":["rightarrow","leftarrow","rightarrow","leftarrow","rightarrow","leftarrow","rightarrow","leftarrow","leftarrow","leftarrow"],"horizon":10,"forced_choices":["rightarrow","leftarrow","rightarrow","leftarrow"],"right_color":"lightblue","left_color":"orange","left_mu":60,"right_mu":56,"left_numbers":[55,51,61,60,64,51,69,67,62,51],"right_numbers":[54,59,65,60,63,56,46,58,57,52],"points_earned":570,"trial_type":"horizons-task","trial_index":11,"time_elapsed":257481,"internal_node_id":"0.0-7.0"},{"response_times":[1132.3100000008708,605.8349999948405,1014.0749999991385,1032.1750000002794,992.8150000050664,1227.839999992284,1275.8999999932712,344.51500000432134,425.91999999422114,497.0599999942351],"keys_pressed":["leftarrow","rightarrow","rightarrow","leftarrow","leftarrow","leftarrow","rightarrow","leftarrow","leftarrow","leftarrow"],"horizon":10,"forced_choices":["leftarrow","rightarrow","rightarrow","leftarrow"],"right_color":"lightblue","left_color":"orange","left_mu":40,"right_mu":10,"left_numbers":[38,19,37,39,44,49,55,50,49,34],"right_numbers":[9,0,2,19,16,1,0,4,25,23],"points_earned":305,"trial_type":"horizons-task","trial_index":12,"time_elapsed":267535,"internal_node_id":"0.0-8.0"},{"response_times":[545.494999998482,538.4350000094855,810.7149999996182,778.6699999996927,1073.1749999977183,681.7650000011781,647.1700000111014,485.0049999949988,407.5649999867892,535.5700000072829],"keys_pressed":["leftarrow","rightarrow","rightarrow","rightarrow","rightarrow","leftarrow","rightarrow","rightarrow","rightarrow","rightarrow"],"horizon":10,"forced_choices":["leftarrow","rightarrow","rightarrow","rightarrow"],"right_color":"orange","left_color":"lightblue","left_mu":60,"right_mu":64,"left_numbers":[55,53,70,48,60,46,51,59,57,65],"right_numbers":[68,63,67,60,50,65,66,62,67,67],"points_earned":603,"trial_type":"horizons-task","trial_index":13,"time_elapsed":275547,"internal_node_id":"0.0-9.0"},{"response_times":[935.910000000149,992.3200000048382,1133.6300000111805,933.3049999986542,1193.9650000131223],"keys_pressed":["leftarrow","leftarrow","leftarrow","rightarrow","rightarrow"],"horizon":5,"forced_choices":["leftarrow","leftarrow","leftarrow","rightarrow"],"right_color":"lightblue","left_color":"orange","left_mu":40,"right_mu":70,"left_numbers":[51,35,30,42,36],"right_numbers":[72,74,72,76,72],"points_earned":264,"trial_type":"horizons-task","trial_index":14,"time_elapsed":282243,"internal_node_id":"0.0-10.0"},{"response_times":[1131.8000000028405,624.8699999996461,868.1499999947846,1256.9799999910174,1135.3000000090105,1319.1149999911431,677.0749999996042,1371.4899999904446,536.4300000073854,426.8900000024587],"keys_pressed":["leftarrow","leftarrow","rightarrow","rightarrow","leftarrow","leftarrow","leftarrow","leftarrow","leftarrow","leftarrow"],"horizon":10,"forced_choices":["leftarrow","leftarrow","rightarrow","rightarrow"],"right_color":"lightblue","left_color":"orange","left_mu":40,"right_mu":10,"left_numbers":[35,30,46,42,31,31,41,35,56,59],"right_numbers":[14,1,0,13,1,5,3,13,14,7],"points_earned":331,"trial_type":"horizons-task","trial_index":15,"time_elapsed":293101,"internal_node_id":"0.0-11.0"},{"response_times":[678.7849999964237,605.1049999950919,743.3650000020862,873.9150000037625,1474.7349999961443],"keys_pressed":["leftarrow","rightarrow","leftarrow","rightarrow","leftarrow"],"horizon":5,"forced_choices":["leftarrow","rightarrow","leftarrow","rightarrow"],"right_color":"lightblue","left_color":"orange","left_mu":60,"right_mu":56,"left_numbers":[65,66,63,65,79],"right_numbers":[54,44,68,49,54],"points_earned":300,"trial_type":"horizons-task","trial_index":16,"time_elapsed":298980,"internal_node_id":"0.0-12.0"},{"response_times":[678.2449999882374,616.3850000011735,841.4150000025984,809.2900000046939,1428.9450000069337,608.1750000012107,740.9800000023097,973.5900000086986,851.779999997234,526.4700000116136],"keys_pressed":["leftarrow","rightarrow","rightarrow","rightarrow","leftarrow","leftarrow","leftarrow","rightarrow","rightarrow","leftarrow"],"horizon":10,"forced_choices":["leftarrow","rightarrow","rightarrow","rightarrow"],"right_color":"orange","left_color":"lightblue","left_mu":60,"right_mu":64,"left_numbers":[49,66,52,64,72,68,50,58,56,55],"right_numbers":[68,70,62,54,62,68,71,67,54,57],"points_earned":601,"trial_type":"horizons-task","trial_index":17,"time_elapsed":308560,"internal_node_id":"0.0-13.0"},{"response_times":[653.2850000075996,951.2950000062119,789.7249999950873,1083.295000004,1408.049999998184],"keys_pressed":["leftarrow","leftarrow","rightarrow","leftarrow","leftarrow"],"horizon":5,"forced_choices":["leftarrow","leftarrow","rightarrow","leftarrow"],"right_color":"lightblue","left_color":"orange","left_mu":40,"right_mu":48,"left_numbers":[42,39,24,35,37],"right_numbers":[62,51,39,54,42],"points_earned":192,"trial_type":"horizons-task","trial_index":18,"time_elapsed":314950,"internal_node_id":"0.0-14.0"},{"response_times":[720.0799999991432,765.0349999894388,874.0249999973457,841.7500000068685,1590.4950000112876],"keys_pressed":["leftarrow","rightarrow","leftarrow","leftarrow","rightarrow"],"horizon":5,"forced_choices":["leftarrow","rightarrow","leftarrow","leftarrow"],"right_color":"lightblue","left_color":"orange","left_mu":40,"right_mu":28,"left_numbers":[44,30,43,39,32],"right_numbers":[30,42,22,33,44],"points_earned":212,"trial_type":"horizons-task","trial_index":19,"time_elapsed":321244,"internal_node_id":"0.0-15.0"},{"response_times":[593.4100000013132,614.8950000060722,1209.7199999989243,918.164999995497,972.8549999999814],"keys_pressed":["rightarrow","leftarrow","rightarrow","rightarrow","rightarrow"],"horizon":5,"forced_choices":["rightarrow","leftarrow","rightarrow","rightarrow"],"right_color":"lightblue","left_color":"orange","left_mu":40,"right_mu":60,"left_numbers":[41,30,28,30,51],"right_numbers":[69,47,76,51,67],"points_earned":293,"trial_type":"horizons-task","trial_index":20,"time_elapsed":327057,"internal_node_id":"0.0-16.0"},{"response_times":[600.7300000055693,818.505000002915,974.2200000036974,833.8050000020303,1145.360000009532],"keys_pressed":["leftarrow","leftarrow","leftarrow","rightarrow","leftarrow"],"horizon":5,"forced_choices":["leftarrow","leftarrow","leftarrow","rightarrow"],"right_color":"lightblue","left_color":"orange","left_mu":60,"right_mu":52,"left_numbers":[60,76,51,66,67],"right_numbers":[48,64,42,57,40],"points_earned":311,"trial_type":"horizons-task","trial_index":21,"time_elapsed":332935,"internal_node_id":"0.0-17.0"},{"response_times":[592.449999996461,597.4850000056904,851.1399999988498,691.2299999967217,778.519999992568],"keys_pressed":["rightarrow","leftarrow","rightarrow","rightarrow","rightarrow"],"horizon":5,"forced_choices":["rightarrow","leftarrow","rightarrow","rightarrow"],"right_color":"orange","left_color":"lightblue","left_mu":40,"right_mu":48,"left_numbers":[30,26,43,34,43],"right_numbers":[54,44,51,48,50],"points_earned":229,"trial_type":"horizons-task","trial_index":22,"time_elapsed":337951,"internal_node_id":"0.0-18.0"},{"response_times":[770.5450000066776,1054.4950000039535,815.7399999909103,862.9599999985658,1092.1399999933783,1290.0950000039302,697.0450000080746,1114.4150000036461,415.80999999132473,476.4649999997346],"keys_pressed":["rightarrow","leftarrow","leftarrow","rightarrow","leftarrow","leftarrow","leftarrow","rightarrow","leftarrow","leftarrow"],"horizon":10,"forced_choices":["rightarrow","leftarrow","leftarrow","rightarrow"],"right_color":"orange","left_color":"lightblue","left_mu":60,"right_mu":30,"left_numbers":[33,56,77,75,57,55,54,50,63,60],"right_numbers":[24,23,25,35,17,46,31,21,42,32],"points_earned":502,"trial_type":"horizons-task","trial_index":23,"time_elapsed":348060,"internal_node_id":"0.0-19.0"},{"response_times":[2432.104999999865,941.0900000075344,568.5400000074878,902.1500000089873,1579.6200000040699],"keys_pressed":["leftarrow","leftarrow","leftarrow","rightarrow","rightarrow"],"horizon":5,"forced_choices":["leftarrow","leftarrow","leftarrow","rightarrow"],"right_color":"lightblue","left_color":"orange","left_mu":40,"right_mu":52,"left_numbers":[60,44,42,37,29],"right_numbers":[46,48,54,56,51],"points_earned":253,"trial_type":"horizons-task","trial_index":24,"time_elapsed":355987,"internal_node_id":"0.0-20.0"},{"response_times":[562.9300000000512,707.0899999962421,882.129999998142,842.1550000057323,647.9750000144122,721.3849999970989,465.4949999967357,453.7500000005821,384.9199999967823,425.86500001198146],"keys_pressed":["rightarrow","leftarrow","leftarrow","leftarrow","rightarrow","rightarrow","rightarrow","rightarrow","rightarrow","rightarrow"],"horizon":10,"forced_choices":["rightarrow","leftarrow","leftarrow","leftarrow"],"right_color":"lightblue","left_color":"orange","left_mu":40,"right_mu":60,"left_numbers":[31,40,27,33,44,45,43,42,33,39],"right_numbers":[60,70,76,68,57,66,66,60,64,69],"points_earned":542,"trial_type":"horizons-task","trial_index":25,"time_elapsed":363586,"internal_node_id":"0.0-21.0"},{"response_times":[692.0649999956368,862.9649999929825,952.5450000073761,1114.289999997709,629.929999995511],"keys_pressed":["leftarrow","rightarrow","leftarrow","rightarrow","leftarrow"],"horizon":5,"forced_choices":["leftarrow","rightarrow","leftarrow","rightarrow"],"right_color":"lightblue","left_color":"orange","left_mu":40,"right_mu":20,"left_numbers":[41,32,33,36,29],"right_numbers":[22,9,17,20,45],"points_earned":132,"trial_type":"horizons-task","trial_index":26,"time_elapsed":369342,"internal_node_id":"0.0-22.0"},{"response_times":[845.5499999981839,669.2150000017136,749.3949999916367,1071.9499999977415,732.1949999895878,1630.7050000032177,841.8099999980768,576.7200000118464,507.1099999913713,406.0699999972712],"keys_pressed":["leftarrow","rightarrow","leftarrow","rightarrow","leftarrow","leftarrow","rightarrow","leftarrow","leftarrow","leftarrow"],"horizon":10,"forced_choices":["leftarrow","rightarrow","leftarrow","rightarrow"],"right_color":"orange","left_color":"lightblue","left_mu":40,"right_mu":36,"left_numbers":[35,46,44,40,43,22,44,42,52,30],"right_numbers":[38,30,27,27,24,30,33,39,54,26],"points_earned":358,"trial_type":"horizons-task","trial_index":27,"time_elapsed":378877,"internal_node_id":"0.0-23.0"},{"response_times":[732.8950000082841,586.5500000072643,793.0350000096951,747.0400000020163,1844.6949999924982,758.4999999962747,545.4749999917112,611.734999998589,467.1349999989616,465.9149999934016],"keys_pressed":["rightarrow","leftarrow","leftarrow","rightarrow","rightarrow","rightarrow","rightarrow","leftarrow","rightarrow","rightarrow"],"horizon":10,"forced_choices":["rightarrow","leftarrow","leftarrow","rightarrow"],"right_color":"orange","left_color":"lightblue","left_mu":40,"right_mu":48,"left_numbers":[45,32,51,32,47,46,57,24,45,45],"right_numbers":[46,47,35,51,46,51,41,53,56,49],"points_earned":447,"trial_type":"horizons-task","trial_index":28,"time_elapsed":387935,"internal_node_id":"0.0-24.0"},{"response_times":[580.3299999970477,954.3399999965914,837.8500000108033,823.2449999923119,861.8249999999534],"keys_pressed":["rightarrow","rightarrow","leftarrow","leftarrow","leftarrow"],"horizon":5,"forced_choices":["rightarrow","rightarrow","leftarrow","leftarrow"],"right_color":"lightblue","left_color":"orange","left_mu":40,"right_mu":28,"left_numbers":[51,41,60,50,37],"right_numbers":[34,33,31,35,23],"points_earned":214,"trial_type":"horizons-task","trial_index":29,"time_elapsed":393498,"internal_node_id":"0.0-25.0"},{"response_times":[610.7649999903515,727.5200000003679,762.6100000052247,787.8849999979138,1268.290000007255,872.8899999987334,496.3500000012573,350.59000000183005,275.57499999238644,271.85000000463333],"keys_pressed":["rightarrow","leftarrow","leftarrow","leftarrow","rightarrow","rightarrow","rightarrow","rightarrow","rightarrow","rightarrow"],"horizon":10,"forced_choices":["rightarrow","leftarrow","leftarrow","leftarrow"],"right_color":"orange","left_color":"lightblue","left_mu":40,"right_mu":60,"left_numbers":[36,40,52,33,37,41,41,44,34,39],"right_numbers":[49,55,62,52,70,54,68,51,70,71],"points_earned":558,"trial_type":"horizons-task","trial_index":30,"time_elapsed":401428,"internal_node_id":"0.0-26.0"},{"response_times":[707.0799999928568,788.3549999969546,740.7249999960186,843.9150000049267,646.0700000025099,974.5949999924051,565.8100000000559,335.495000006631,271.7499999998836,535.1800000062212],"keys_pressed":["rightarrow","leftarrow","rightarrow","rightarrow","rightarrow","rightarrow","rightarrow","rightarrow","rightarrow","rightarrow"],"horizon":10,"forced_choices":["rightarrow","leftarrow","rightarrow","rightarrow"],"right_color":"lightblue","left_color":"orange","left_mu":60,"right_mu":90,"left_numbers":[55,47,50,71,67,55,58,49,54,72],"right_numbers":[90,99,95,89,96,95,101,93,98,86],"points_earned":890,"trial_type":"horizons-task","trial_index":31,"time_elapsed":409342,"internal_node_id":"0.0-27.0"},{"response_times":[840.2500000083819,1264.2200000118464,974.1400000057183,922.0149999891873,739.6199999930104,709.4150000048103,487.3500000103377,374.8899999918649,290.5449999962002,275.90500000223983],"keys_pressed":["rightarrow","rightarrow","rightarrow","leftarrow","rightarrow","rightarrow","rightarrow","rightarrow","rightarrow","rightarrow"],"horizon":10,"forced_choices":["rightarrow","rightarrow","rightarrow","leftarrow"],"right_color":"lightblue","left_color":"orange","left_mu":40,"right_mu":70,"left_numbers":[48,54,44,33,34,40,28,40,37,29],"right_numbers":[69,63,68,67,69,63,63,74,76,72],"points_earned":650,"trial_type":"horizons-task","trial_index":32,"time_elapsed":417724,"internal_node_id":"0.0-28.0"},{"response_times":[786.9599999976344,702.4600000004284,756.7100000014761,833.0450000066776,2930.565000002389,506.80499999725726,444.1499999957159,312.48999999661464,236.0800000024028,210.96499999111984],"keys_pressed":["rightarrow","leftarrow","leftarrow","leftarrow","rightarrow","leftarrow","leftarrow","leftarrow","leftarrow","leftarrow"],"horizon":10,"forced_choices":["rightarrow","leftarrow","leftarrow","leftarrow"],"right_color":"orange","left_color":"lightblue","left_mu":60,"right_mu":56,"left_numbers":[64,65,62,64,59,73,68,66,61,47],"right_numbers":[50,55,53,44,56,47,49,59,43,46],"points_earned":612,"trial_type":"horizons-task","trial_index":33,"time_elapsed":426948,"internal_node_id":"0.0-29.0"},{"response_times":[797.6900000066962,738.4649999876274,1032.1750000002794,1398.0849999934435,884.4150000077207,606.9649999990361,426.0399999911897,345.7150000031106,262.26499999756925,224.05000000435393],"keys_pressed":["leftarrow","leftarrow","rightarrow","rightarrow","leftarrow","leftarrow","leftarrow","leftarrow","leftarrow","leftarrow"],"horizon":10,"forced_choices":["leftarrow","leftarrow","rightarrow","rightarrow"],"right_color":"orange","left_color":"lightblue","left_mu":40,"right_mu":10,"left_numbers":[43,48,33,27,36,44,48,46,47,47],"right_numbers":[13,19,6,22,12,27,4,19,11,8],"points_earned":387,"trial_type":"horizons-task","trial_index":34,"time_elapsed":435169,"internal_node_id":"0.0-30.0"},{"response_times":[654.5849999965867,777.4149999895599,772.7299999969546,726.5150000021094,1847.6950000040233,496.0150000115391,375.9449999924982,301.5250000025844,225.88499999255873,221.2100000033388],"keys_pressed":["rightarrow","leftarrow","rightarrow","leftarrow","leftarrow","leftarrow","leftarrow","leftarrow","leftarrow","leftarrow"],"horizon":10,"forced_choices":["rightarrow","leftarrow","rightarrow","leftarrow"],"right_color":"orange","left_color":"lightblue","left_mu":40,"right_mu":36,"left_numbers":[50,50,27,41,43,37,37,42,38,33],"right_numbers":[25,32,28,33,25,29,47,40,49,36],"points_earned":374,"trial_type":"horizons-task","trial_index":35,"time_elapsed":443074,"internal_node_id":"0.0-31.0"},{"response_times":[687.2799999982817,635.8999999938533,628.2150000042748,812.3250000062399,1425.0150000007125,633.62499998766,638.0950000020675,398.9000000001397,251.15500000538304,217.10500000335742],"keys_pressed":["leftarrow","rightarrow","leftarrow","rightarrow","rightarrow","rightarrow","rightarrow","rightarrow","rightarrow","rightarrow"],"horizon":10,"forced_choices":["leftarrow","rightarrow","leftarrow","rightarrow"],"right_color":"lightblue","left_color":"orange","left_mu":60,"right_mu":52,"left_numbers":[59,63,47,66,43,78,57,55,59,60],"right_numbers":[44,48,61,57,59,53,57,56,59,60],"points_earned":555,"trial_type":"horizons-task","trial_index":36,"time_elapsed":450907,"internal_node_id":"0.0-32.0"},{"response_times":[771.8500000046333,853.1099999963772,902.9799999989336,1459.9949999974342,557.5899999967078,566.9650000054389,263.8849999930244,212.01499999733642,210.8999999909429,204.96500001172535],"keys_pressed":["rightarrow","leftarrow","leftarrow","rightarrow","leftarrow","leftarrow","leftarrow","leftarrow","leftarrow","leftarrow"],"horizon":10,"forced_choices":["rightarrow","leftarrow","leftarrow","rightarrow"],"right_color":"orange","left_color":"lightblue","left_mu":40,"right_mu":10,"left_numbers":[46,39,40,40,44,42,34,39,38,35],"right_numbers":[11,20,14,7,1,14,0,10,11,23],"points_earned":329,"trial_type":"horizons-task","trial_index":37,"time_elapsed":458415,"internal_node_id":"0.0-33.0"},{"response_times":[593.5699999972712,763.4949999919627,688.0649999948218,952.5900000007823,807.7249999914784],"keys_pressed":["rightarrow","leftarrow","rightarrow","rightarrow","leftarrow"],"horizon":5,"forced_choices":["rightarrow","leftarrow","rightarrow","rightarrow"],"right_color":"orange","left_color":"lightblue","left_mu":60,"right_mu":40,"left_numbers":[47,56,65,64,57],"right_numbers":[38,26,37,37,23],"points_earned":225,"trial_type":"horizons-task","trial_index":38,"time_elapsed":463725,"internal_node_id":"0.0-34.0"},{"response_times":[948.8949999940814,800.7099999958882,1116.794999994454,2036.5200000087498,586.6299999906914],"keys_pressed":["leftarrow","rightarrow","rightarrow","rightarrow","rightarrow"],"horizon":5,"forced_choices":["leftarrow","rightarrow","rightarrow","rightarrow"],"right_color":"lightblue","left_color":"orange","left_mu":40,"right_mu":52,"left_numbers":[50,41,36,47,40],"right_numbers":[56,49,61,53,65],"points_earned":278,"trial_type":"horizons-task","trial_index":39,"time_elapsed":470719,"internal_node_id":"0.0-35.0"},{"response_times":[539.8300000088057,773.4150000032969,647.3350000014761,1002.730000007432,830.7550000026822,768.5050000000047,497.3000000027241,334.54499999061227,233.90500000095926,212.99999998882413],"keys_pressed":["rightarrow","leftarrow","rightarrow","rightarrow","rightarrow","rightarrow","rightarrow","rightarrow","rightarrow","rightarrow"],"horizon":10,"forced_choices":["rightarrow","leftarrow","rightarrow","rightarrow"],"right_color":"lightblue","left_color":"orange","left_mu":40,"right_mu":52,"left_numbers":[41,47,43,43,29,38,34,45,40,42],"right_numbers":[51,53,67,63,45,54,46,52,38,54],"points_earned":517,"trial_type":"horizons-task","trial_index":40,"time_elapsed":478067,"internal_node_id":"0.0-36.0"},{"response_times":[663.5649999952875,791.0600000031991,787.4549999978626,862.1100000018487,1490.3400000039255,707.1149999974295,511.37500000186265,492.2249999945052,287.5100000092061,254.93999999889638],"keys_pressed":["rightarrow","leftarrow","leftarrow","leftarrow","rightarrow","rightarrow","rightarrow","rightarrow","rightarrow","rightarrow"],"horizon":10,"forced_choices":["rightarrow","leftarrow","leftarrow","leftarrow"],"right_color":"orange","left_color":"lightblue","left_mu":60,"right_mu":64,"left_numbers":[61,68,53,67,42,54,50,52,69,58],"right_numbers":[72,67,67,62,80,71,73,61,49,54],"points_earned":648,"trial_type":"horizons-task","trial_index":41,"time_elapsed":486419,"internal_node_id":"0.0-37.0"},{"response_times":[723.7199999945005,872.1800000057556,819.5300000079442,810.6600000028266,717.9699999978766],"keys_pressed":["rightarrow","leftarrow","leftarrow","rightarrow","rightarrow"],"horizon":5,"forced_choices":["rightarrow","leftarrow","leftarrow","rightarrow"],"right_color":"orange","left_color":"lightblue","left_mu":60,"right_mu":80,"left_numbers":[62,44,61,67,56],"right_numbers":[88,85,88,70,89],"points_earned":352,"trial_type":"horizons-task","trial_index":42,"time_elapsed":491868,"internal_node_id":"0.0-38.0"},{"response_times":[818.0200000060722,751.1999999987893,676.3150000042515,1003.805000000284,1812.515000012354],"keys_pressed":["rightarrow","leftarrow","leftarrow","leftarrow","rightarrow"],"horizon":5,"forced_choices":["rightarrow","leftarrow","leftarrow","leftarrow"],"right_color":"lightblue","left_color":"orange","left_mu":40,"right_mu":44,"left_numbers":[45,55,33,29,45],"right_numbers":[41,50,31,35,59],"points_earned":217,"trial_type":"horizons-task","trial_index":43,"time_elapsed":498433,"internal_node_id":"0.0-39.0"},{"response_times":[718.0950000038138,588.4949999890523,761.6149999957997,688.1700000085402,737.489999999525,1289.2699999938486,496.27000000327826,336.4049999945564,241.10500000824686,213.91500000027008],"keys_pressed":["leftarrow","rightarrow","leftarrow","rightarrow","leftarrow","leftarrow","leftarrow","leftarrow","leftarrow","leftarrow"],"horizon":10,"forced_choices":["leftarrow","rightarrow","leftarrow","rightarrow"],"right_color":"lightblue","left_color":"orange","left_mu":40,"right_mu":20,"left_numbers":[42,29,35,34,25,57,38,46,37,30],"right_numbers":[26,29,15,22,27,5,6,37,11,15],"points_earned":361,"trial_type":"horizons-task","trial_index":44,"time_elapsed":506010,"internal_node_id":"0.0-40.0"},{"response_times":[626.2249999999767,646.7200000042794,741.5749999927357,828.9850000001024,751.8050000071526],"keys_pressed":["rightarrow","leftarrow","rightarrow","leftarrow","leftarrow"],"horizon":5,"forced_choices":["rightarrow","leftarrow","rightarrow","leftarrow"],"right_color":"orange","left_color":"lightblue","left_mu":40,"right_mu":32,"left_numbers":[50,37,42,35,54],"right_numbers":[25,26,34,45,34],"points_earned":185,"trial_type":"horizons-task","trial_index":45,"time_elapsed":511109,"internal_node_id":"0.0-41.0"},{"response_times":[643.194999996922,686.1949999874923,601.7350000038277,1073.1750000122702,828.719999990426,2431.250000008731,832.8749999927823,738.4400000009919,395.76499999384396,365.9650000045076],"keys_pressed":["rightarrow","leftarrow","rightarrow","rightarrow","leftarrow","rightarrow","leftarrow","leftarrow","leftarrow","leftarrow"],"horizon":10,"forced_choices":["rightarrow","leftarrow","rightarrow","rightarrow"],"right_color":"lightblue","left_color":"orange","left_mu":60,"right_mu":56,"left_numbers":[69,53,69,72,44,52,63,51,58,52],"right_numbers":[55,53,56,41,63,56,53,60,62,62],"points_earned":529,"trial_type":"horizons-task","trial_index":46,"time_elapsed":521211,"internal_node_id":"0.0-42.0"},{"response_times":[583.5150000057183,1053.1099999934668,811.5249999973457,697.2450000030221,993.6199999938253,707.2950000001583,813.3099999977276,585.8299999963492,376.6299999988405,334.419999999227],"keys_pressed":["rightarrow","rightarrow","rightarrow","leftarrow","leftarrow","rightarrow","leftarrow","leftarrow","leftarrow","leftarrow"],"horizon":10,"forced_choices":["rightarrow","rightarrow","rightarrow","leftarrow"],"right_color":"lightblue","left_color":"orange","left_mu":40,"right_mu":28,"left_numbers":[37,26,40,44,31,41,52,41,37,38],"right_numbers":[22,39,32,19,26,44,28,29,20,22],"points_earned":380,"trial_type":"horizons-task","trial_index":47,"time_elapsed":529671,"internal_node_id":"0.0-43.0"},{"response_times":[572.8300000046147,882.4650000024121,797.6400000043213,730.2499999932479,1205.549999998766,585.5899999878602,702.1649999951478,627.6800000050571,746.0549999959767,366.8599999946309],"keys_pressed":["rightarrow","rightarrow","rightarrow","leftarrow","leftarrow","rightarrow","leftarrow","rightarrow","leftarrow","leftarrow"],"horizon":10,"forced_choices":["rightarrow","rightarrow","rightarrow","leftarrow"],"right_color":"lightblue","left_color":"orange","left_mu":40,"right_mu":44,"left_numbers":[48,37,38,39,29,49,23,46,38,46],"right_numbers":[31,35,45,48,36,38,54,19,39,52],"points_earned":343,"trial_type":"horizons-task","trial_index":48,"time_elapsed":538392,"internal_node_id":"0.0-44.0"},{"view_history":"[{\"page_index\":0,\"viewing_time\":14683.395000000019},{\"page_index\":1,\"viewing_time\":2656.3200000091456}]","rt":17340.16999999585,"trial_type":"instructions","trial_index":49,"time_elapsed":555734,"internal_node_id":"0.0-45.0"},{"response_times":[861.559999990277,1439.8199999995995,1104.0800000046147,1014.0850000025239,1842.9100000066683],"keys_pressed":["rightarrow","leftarrow","leftarrow","leftarrow","rightarrow"],"horizon":5,"forced_choices":["rightarrow","leftarrow","leftarrow","leftarrow"],"right_color":"orange","left_color":"lightblue","left_mu":40,"right_mu":44,"left_numbers":[35,27,41,34,42],"right_numbers":[31,40,57,26,39],"points_earned":172,"trial_type":"horizons-task","trial_index":50,"time_elapsed":563504,"internal_node_id":"0.0-46.0"},{"response_times":[634.409999998752,821.2349999957951,757.5749999959953,831.5100000036182,1815.1250000082655],"keys_pressed":["leftarrow","rightarrow","rightarrow","rightarrow","leftarrow"],"horizon":5,"forced_choices":["leftarrow","rightarrow","rightarrow","rightarrow"],"right_color":"lightblue","left_color":"orange","left_mu":60,"right_mu":40,"left_numbers":[49,50,75,63,63],"right_numbers":[47,51,47,20,31],"points_earned":230,"trial_type":"horizons-task","trial_index":51,"time_elapsed":569869,"internal_node_id":"0.0-47.0"},{"response_times":[672.9900000063935,637.0200000092154,732.480000006035,766.7750000109663,984.0100000001257,2170.235000012326,556.960000001709,525.3999999986263,342.38999999070074,225.03999999025837],"keys_pressed":["leftarrow","rightarrow","leftarrow","leftarrow","rightarrow","leftarrow","rightarrow","rightarrow","rightarrow","rightarrow"],"horizon":10,"forced_choices":["leftarrow","rightarrow","leftarrow","leftarrow"],"right_color":"orange","left_color":"lightblue","left_mu":60,"right_mu":72,"left_numbers":[59,64,70,46,67,52,59,61,54,63],"right_numbers":[58,68,71,62,62,71,73,77,72,72],"points_earned":651,"trial_type":"horizons-task","trial_index":52,"time_elapsed":578988,"internal_node_id":"0.0-48.0"},{"response_times":[674.9500000005355,730.3950000059558,869.8200000071665,810.685000004014,657.0500000088941,376.6500000056112,325.4799999995157,291.2650000071153,256.11500001105014,231.0250000009546],"keys_pressed":["rightarrow","leftarrow","leftarrow","leftarrow","rightarrow","rightarrow","rightarrow","rightarrow","rightarrow","rightarrow"],"horizon":10,"forced_choices":["rightarrow","leftarrow","leftarrow","leftarrow"],"right_color":"orange","left_color":"lightblue","left_mu":40,"right_mu":70,"left_numbers":[38,24,41,44,39,43,38,48,20,43],"right_numbers":[66,70,50,65,73,75,83,56,90,75],"points_earned":627,"trial_type":"horizons-task","trial_index":53,"time_elapsed":585715,"internal_node_id":"0.0-49.0"},{"response_times":[591.710000007879,601.6450000024633,787.5899999926332,1013.7500000128057,1062.0400000043446],"keys_pressed":["rightarrow","leftarrow","leftarrow","rightarrow","rightarrow"],"horizon":5,"forced_choices":["rightarrow","leftarrow","leftarrow","rightarrow"],"right_color":"orange","left_color":"lightblue","left_mu":60,"right_mu":64,"left_numbers":[74,46,52,64,53],"right_numbers":[62,53,66,72,52],"points_earned":284,"trial_type":"horizons-task","trial_index":54,"time_elapsed":591274,"internal_node_id":"0.0-50.0"},{"response_times":[648.910000003525,627.8349999920465,678.844999987632,1277.1149999898626,787.6600000017788],"keys_pressed":["rightarrow","leftarrow","rightarrow","rightarrow","leftarrow"],"horizon":5,"forced_choices":["rightarrow","leftarrow","rightarrow","rightarrow"],"right_color":"orange","left_color":"lightblue","left_mu":40,"right_mu":20,"left_numbers":[46,34,43,37,27],"right_numbers":[14,3,6,25,31],"points_earned":106,"trial_type":"horizons-task","trial_index":55,"time_elapsed":596798,"internal_node_id":"0.0-51.0"},{"response_times":[696.1500000033993,577.4450000026263,1104.1800000093644,770.5900000000838,547.4000000103842],"keys_pressed":["leftarrow","rightarrow","rightarrow","leftarrow","rightarrow"],"horizon":5,"forced_choices":["leftarrow","rightarrow","rightarrow","leftarrow"],"right_color":"orange","left_color":"lightblue","left_mu":40,"right_mu":60,"left_numbers":[45,28,29,37,42],"right_numbers":[72,67,76,64,65],"points_earned":290,"trial_type":"horizons-task","trial_index":56,"time_elapsed":601999,"internal_node_id":"0.0-52.0"},{"response_times":[732.4099999968894,678.0299999954877,761.6200000047684,863.2199999992736,555.6450000003679],"keys_pressed":["rightarrow","rightarrow","leftarrow","leftarrow","rightarrow"],"horizon":5,"forced_choices":["rightarrow","rightarrow","leftarrow","leftarrow"],"right_color":"lightblue","left_color":"orange","left_mu":40,"right_mu":70,"left_numbers":[26,48,33,29,48],"right_numbers":[65,66,64,68,65],"points_earned":258,"trial_type":"horizons-task","trial_index":57,"time_elapsed":607093,"internal_node_id":"0.0-53.0"},{"response_times":[654.0949999907752,742.0950000087032,668.084999997518,696.1799999990035,651.4199999946868],"keys_pressed":["leftarrow","rightarrow","leftarrow","rightarrow","leftarrow"],"horizon":5,"forced_choices":["leftarrow","rightarrow","leftarrow","rightarrow"],"right_color":"orange","left_color":"lightblue","left_mu":60,"right_mu":40,"left_numbers":[74,58,72,64,60],"right_numbers":[32,46,39,39,48],"points_earned":291,"trial_type":"horizons-task","trial_index":58,"time_elapsed":612007,"internal_node_id":"0.0-54.0"},{"response_times":[1260.7550000102492,1064.9700000067241,699.2100000061328,1176.5600000071572,767.5349999917671],"keys_pressed":["leftarrow","leftarrow","rightarrow","rightarrow","rightarrow"],"horizon":5,"forced_choices":["leftarrow","leftarrow","rightarrow","rightarrow"],"right_color":"orange","left_color":"lightblue","left_mu":60,"right_mu":80,"left_numbers":[66,69,62,72,53],"right_numbers":[83,80,89,80,82],"points_earned":386,"trial_type":"horizons-task","trial_index":59,"time_elapsed":618480,"internal_node_id":"0.0-55.0"},{"response_times":[728.1499999953667,831.5650000004098,687.3000000050524,738.3550000085961,609.8700000002282,728.3349999925122,1856.2550000060583,646.8600000080187,325.64999999885913,341.53999999398366],"keys_pressed":["leftarrow","leftarrow","rightarrow","leftarrow","rightarrow","rightarrow","rightarrow","rightarrow","rightarrow","rightarrow"],"horizon":10,"forced_choices":["leftarrow","leftarrow","rightarrow","leftarrow"],"right_color":"orange","left_color":"lightblue","left_mu":40,"right_mu":48,"left_numbers":[40,37,22,44,35,38,30,44,55,42],"right_numbers":[36,44,59,53,41,46,43,44,59,51],"points_earned":464,"trial_type":"horizons-task","trial_index":60,"time_elapsed":627479,"internal_node_id":"0.0-56.0"},{"response_times":[605.2099999942584,547.6349999953527,537.4300000112271,706.7749999987427,548.2150000025285],"keys_pressed":["leftarrow","rightarrow","leftarrow","rightarrow","leftarrow"],"horizon":5,"forced_choices":["leftarrow","rightarrow","leftarrow","rightarrow"],"right_color":"lightblue","left_color":"orange","left_mu":40,"right_mu":36,"left_numbers":[46,45,44,45,51],"right_numbers":[36,33,38,28,39],"points_earned":202,"trial_type":"horizons-task","trial_index":61,"time_elapsed":631928,"internal_node_id":"0.0-57.0"},{"response_times":[687.3099999938859,505.54000001284294,568.7649999890709,606.8649999942863,1579.9850000039442],"keys_pressed":["leftarrow","rightarrow","leftarrow","rightarrow","rightarrow"],"horizon":5,"forced_choices":["leftarrow","rightarrow","leftarrow","rightarrow"],"right_color":"orange","left_color":"lightblue","left_mu":40,"right_mu":44,"left_numbers":[35,40,38,36,49],"right_numbers":[38,41,54,39,51],"points_earned":204,"trial_type":"horizons-task","trial_index":62,"time_elapsed":637381,"internal_node_id":"0.0-58.0"},{"response_times":[647.5400000053924,631.0049999883631,607.8849999903468,934.0649999940069,1033.6150000075577],"keys_pressed":["leftarrow","rightarrow","leftarrow","leftarrow","leftarrow"],"horizon":5,"forced_choices":["leftarrow","rightarrow","leftarrow","leftarrow"],"right_color":"lightblue","left_color":"orange","left_mu":60,"right_mu":48,"left_numbers":[54,57,56,77,46],"right_numbers":[53,49,51,48,39],"points_earned":282,"trial_type":"horizons-task","trial_index":63,"time_elapsed":642739,"internal_node_id":"0.0-59.0"},{"response_times":[615.9150000021327,717.5400000123773,811.9849999930011,738.7949999974808,624.3499999982305],"keys_pressed":["leftarrow","leftarrow","rightarrow","leftarrow","leftarrow"],"horizon":5,"forced_choices":["leftarrow","leftarrow","rightarrow","leftarrow"],"right_color":"orange","left_color":"lightblue","left_mu":40,"right_mu":10,"left_numbers":[36,30,50,45,41],"right_numbers":[0,7,13,7,35],"points_earned":165,"trial_type":"horizons-task","trial_index":64,"time_elapsed":647752,"internal_node_id":"0.0-60.0"},{"response_times":[645.5949999945005,902.2549999936018,647.1350000065286,731.8999999988591,1355.26499999105,671.2600000028033,819.1050000023097,731.6399999981513,351.6700000036508,345.55500000715256],"keys_pressed":["rightarrow","rightarrow","leftarrow","leftarrow","rightarrow","leftarrow","rightarrow","rightarrow","rightarrow","rightarrow"],"horizon":10,"forced_choices":["rightarrow","rightarrow","leftarrow","leftarrow"],"right_color":"orange","left_color":"lightblue","left_mu":60,"right_mu":68,"left_numbers":[63,62,75,54,57,61,71,62,60,62],"right_numbers":[73,49,79,69,64,73,69,78,65,69],"points_earned":657,"trial_type":"horizons-task","trial_index":65,"time_elapsed":656459,"internal_node_id":"0.0-61.0"},{"response_times":[733.4350000019185,582.7600000047823,707.4049999937415,855.3499999979977,806.7399999999907,632.3949999932665,596.5149999974528,486.5049999934854,912.5150000036228,301.4349999866681],"keys_pressed":["leftarrow","rightarrow","leftarrow","leftarrow","rightarrow","leftarrow","leftarrow","leftarrow","rightarrow","leftarrow"],"horizon":10,"forced_choices":["leftarrow","rightarrow","leftarrow","leftarrow"],"right_color":"orange","left_color":"lightblue","left_mu":60,"right_mu":48,"left_numbers":[72,74,61,45,42,60,63,56,54,56],"right_numbers":[47,56,60,40,31,56,60,48,55,42],"points_earned":555,"trial_type":"horizons-task","trial_index":66,"time_elapsed":664579,"internal_node_id":"0.0-62.0"},{"response_times":[667.7349999954458,596.9250000052853,758.8849999883678,832.0950000052107,1539.810000002035],"keys_pressed":["leftarrow","rightarrow","leftarrow","rightarrow","rightarrow"],"horizon":5,"forced_choices":["leftarrow","rightarrow","leftarrow","rightarrow"],"right_color":"lightblue","left_color":"orange","left_mu":40,"right_mu":70,"left_numbers":[41,57,38,29,37],"right_numbers":[76,67,66,80,71],"points_earned":297,"trial_type":"horizons-task","trial_index":67,"time_elapsed":670478,"internal_node_id":"0.0-63.0"},{"response_times":[533.4549999970477,507.0899999991525,746.6450000065379,912.4449999944773,751.6100000066217,648.1749999948079,676.1450000049081,602.0300000091083,381.7249999992782,305.48999999882653],"keys_pressed":["leftarrow","rightarrow","leftarrow","leftarrow","rightarrow","rightarrow","leftarrow","leftarrow","leftarrow","leftarrow"],"horizon":10,"forced_choices":["leftarrow","rightarrow","leftarrow","leftarrow"],"right_color":"lightblue","left_color":"orange","left_mu":60,"right_mu":48,"left_numbers":[57,52,54,57,66,59,71,74,66,61],"right_numbers":[56,56,51,54,61,42,58,53,44,59],"points_earned":599,"trial_type":"horizons-task","trial_index":68,"time_elapsed":678048,"internal_node_id":"0.0-64.0"},{"response_times":[664.9599999946076,693.2500000111759,849.0799999999581,1461.5349999949103,821.524999992107,1215.1149999990594,589.7699999914039,899.4850000017323,671.2149999948451,648.3900000021094],"keys_pressed":["leftarrow","leftarrow","rightarrow","rightarrow","leftarrow","leftarrow","rightarrow","leftarrow","leftarrow","leftarrow"],"horizon":10,"forced_choices":["leftarrow","leftarrow","rightarrow","rightarrow"],"right_color":"orange","left_color":"lightblue","left_mu":60,"right_mu":52,"left_numbers":[56,67,62,45,53,38,65,57,68,53],"right_numbers":[65,46,53,48,49,48,50,59,33,42],"points_earned":543,"trial_type":"horizons-task","trial_index":69,"time_elapsed":688067,"internal_node_id":"0.0-65.0"},{"response_times":[604.525000002468,953.510000006645,636.0249999997905,692.4549999966985,1124.5150000031572],"keys_pressed":["leftarrow","leftarrow","rightarrow","rightarrow","rightarrow"],"horizon":5,"forced_choices":["leftarrow","leftarrow","rightarrow","rightarrow"],"right_color":"lightblue","left_color":"orange","left_mu":60,"right_mu":56,"left_numbers":[49,59,68,48,58],"right_numbers":[58,50,59,55,59],"points_earned":281,"trial_type":"horizons-task","trial_index":70,"time_elapsed":693581,"internal_node_id":"0.0-66.0"},{"response_times":[1119.814999998198,984.9899999971967,615.974999993341,1074.4500000000698,540.7049999921583],"keys_pressed":["leftarrow","leftarrow","rightarrow","rightarrow","leftarrow"],"horizon":5,"forced_choices":["leftarrow","leftarrow","rightarrow","rightarrow"],"right_color":"lightblue","left_color":"orange","left_mu":40,"right_mu":28,"left_numbers":[36,54,49,42,45],"right_numbers":[15,35,18,36,25],"points_earned":189,"trial_type":"horizons-task","trial_index":71,"time_elapsed":699422,"internal_node_id":"0.0-67.0"},{"response_times":[634.715000007418,616.9050000025891,667.4300000013318,711.620000001858,709.1050000017276],"keys_pressed":["rightarrow","leftarrow","leftarrow","leftarrow","leftarrow"],"horizon":5,"forced_choices":["rightarrow","leftarrow","leftarrow","leftarrow"],"right_color":"orange","left_color":"lightblue","left_mu":60,"right_mu":56,"left_numbers":[63,62,60,58,63],"right_numbers":[54,49,60,64,47],"points_earned":297,"trial_type":"horizons-task","trial_index":72,"time_elapsed":704267,"internal_node_id":"0.0-68.0"},{"response_times":[512.044999995851,721.6750000079628,637.1000000071945,767.825000002631,446.2700000003679],"keys_pressed":["leftarrow","rightarrow","leftarrow","leftarrow","rightarrow"],"horizon":5,"forced_choices":["leftarrow","rightarrow","leftarrow","leftarrow"],"right_color":"lightblue","left_color":"orange","left_mu":40,"right_mu":48,"left_numbers":[33,27,36,39,29],"right_numbers":[57,50,22,41,57],"points_earned":215,"trial_type":"horizons-task","trial_index":73,"time_elapsed":708857,"internal_node_id":"0.0-69.0"},{"response_times":[512.9949999973178,671.4650000067195,688.5400000028312,1244.2949999967823,1339.2800000001444],"keys_pressed":["rightarrow","leftarrow","rightarrow","leftarrow","rightarrow"],"horizon":5,"forced_choices":["rightarrow","leftarrow","rightarrow","leftarrow"],"right_color":"lightblue","left_color":"orange","left_mu":40,"right_mu":36,"left_numbers":[31,35,46,26,37],"right_numbers":[29,38,44,38,48],"points_earned":182,"trial_type":"horizons-task","trial_index":74,"time_elapsed":714818,"internal_node_id":"0.0-70.0"},{"response_times":[603.0999999929918,621.3199999911012,748.8149999990128,812.2399999992922,2603.530000007595,863.4549999987939,838.4800000058021,546.5950000070734,437.17499999911524,496.0150000115391],"keys_pressed":["leftarrow","rightarrow","rightarrow","leftarrow","leftarrow","leftarrow","rightarrow","leftarrow","leftarrow","leftarrow"],"horizon":10,"forced_choices":["leftarrow","rightarrow","rightarrow","leftarrow"],"right_color":"lightblue","left_color":"orange","left_mu":40,"right_mu":28,"left_numbers":[33,41,40,36,48,37,44,35,55,39],"right_numbers":[33,23,35,32,30,26,14,15,5,31],"points_earned":355,"trial_type":"horizons-task","trial_index":75,"time_elapsed":724894,"internal_node_id":"0.0-71.0"},{"response_times":[758.800000010524,857.2799999965355,692.4750000034692,882.4849999946309,829.2199999996228],"keys_pressed":["rightarrow","rightarrow","leftarrow","leftarrow","leftarrow"],"horizon":5,"forced_choices":["rightarrow","rightarrow","leftarrow","leftarrow"],"right_color":"lightblue","left_color":"orange","left_mu":60,"right_mu":48,"left_numbers":[36,64,56,56,48],"right_numbers":[40,50,53,49,62],"points_earned":250,"trial_type":"horizons-task","trial_index":76,"time_elapsed":730418,"internal_node_id":"0.0-72.0"},{"response_times":[573.0550000007497,752.6749999960884,596.0349999950267,772.8749999951106,818.4299999993527,455.9250000020256,366.7249999998603,281.3449999957811,304.58000001090113,251.34999999136198],"keys_pressed":["leftarrow","leftarrow","rightarrow","rightarrow","rightarrow","rightarrow","rightarrow","rightarrow","rightarrow","rightarrow"],"horizon":10,"forced_choices":["leftarrow","leftarrow","rightarrow","rightarrow"],"right_color":"lightblue","left_color":"orange","left_mu":40,"right_mu":60,"left_numbers":[48,20,43,20,48,54,51,23,36,35],"right_numbers":[55,71,62,56,63,66,48,54,77,56],"points_earned":550,"trial_type":"horizons-task","trial_index":77,"time_elapsed":737096,"internal_node_id":"0.0-73.0"},{"response_times":[535.9000000025844,566.6550000023562,687.3650000052294,667.249999998603,912.5149999890709,507.12000000930857,344.6200000034878,221.1350000143284,195.78000000910833,200.9000000107335],"keys_pressed":["leftarrow","rightarrow","rightarrow","rightarrow","leftarrow","leftarrow","leftarrow","leftarrow","leftarrow","leftarrow"],"horizon":10,"forced_choices":["leftarrow","rightarrow","rightarrow","rightarrow"],"right_color":"lightblue","left_color":"orange","left_mu":60,"right_mu":48,"left_numbers":[66,55,56,68,56,64,60,71,78,53],"right_numbers":[61,48,42,48,45,58,48,33,42,52],"points_earned":586,"trial_type":"horizons-task","trial_index":78,"time_elapsed":743441,"internal_node_id":"0.0-74.0"},{"response_times":[736.6099999926519,617.5899999943795,767.8300000115996,661.2800000002608,381.95499998982996],"keys_pressed":["leftarrow","rightarrow","leftarrow","leftarrow","leftarrow"],"horizon":5,"forced_choices":["leftarrow","rightarrow","leftarrow","leftarrow"],"right_color":"lightblue","left_color":"orange","left_mu":60,"right_mu":30,"left_numbers":[70,71,61,54,53],"right_numbers":[33,12,28,21,24],"points_earned":250,"trial_type":"horizons-task","trial_index":79,"time_elapsed":748113,"internal_node_id":"0.0-75.0"},{"response_times":[615.6799999880604,556.6749999998137,768.8749999942956,731.8300000042655,405.9199999901466],"keys_pressed":["leftarrow","rightarrow","rightarrow","rightarrow","rightarrow"],"horizon":5,"forced_choices":["leftarrow","rightarrow","rightarrow","rightarrow"],"right_color":"orange","left_color":"lightblue","left_mu":60,"right_mu":90,"left_numbers":[59,53,60,60,59],"right_numbers":[87,85,72,83,78],"points_earned":377,"trial_type":"horizons-task","trial_index":80,"time_elapsed":752697,"internal_node_id":"0.0-76.0"},{"response_times":[703.4000000130618,748.8000000012107,912.4199999932898,597.5199999957113,478.465000007418],"keys_pressed":["leftarrow","rightarrow","rightarrow","leftarrow","leftarrow"],"horizon":5,"forced_choices":["leftarrow","rightarrow","rightarrow","leftarrow"],"right_color":"orange","left_color":"lightblue","left_mu":40,"right_mu":36,"left_numbers":[34,32,35,40,22],"right_numbers":[33,22,30,43,41],"points_earned":148,"trial_type":"horizons-task","trial_index":81,"time_elapsed":757642,"internal_node_id":"0.0-77.0"},{"response_times":[659.4900000054622,589.0300000028219,646.389999994426,588.8750000012806,630.5199999915203,747.9999999923166,397.02499999839347,331.7650000099093,254.2950000060955,231.10499999893364],"keys_pressed":["leftarrow","rightarrow","leftarrow","rightarrow","leftarrow","leftarrow","leftarrow","leftarrow","leftarrow","leftarrow"],"horizon":10,"forced_choices":["leftarrow","rightarrow","leftarrow","rightarrow"],"right_color":"lightblue","left_color":"orange","left_mu":40,"right_mu":32,"left_numbers":[41,41,36,41,55,43,38,42,47,46],"right_numbers":[12,21,41,30,27,24,31,34,30,45],"points_earned":399,"trial_type":"horizons-task","trial_index":82,"time_elapsed":764223,"internal_node_id":"0.0-78.0"},{"response_times":[631.0749999975087,606.3500000018394,718.3600000134902,1097.8549999999814,708.7100000062492,445.35500000347383,365.8500000019558,261.3450000062585,236.14000000816304,190.9449999948265],"keys_pressed":["leftarrow","leftarrow","rightarrow","rightarrow","rightarrow","rightarrow","rightarrow","rightarrow","rightarrow","rightarrow"],"horizon":10,"forced_choices":["leftarrow","leftarrow","rightarrow","rightarrow"],"right_color":"orange","left_color":"lightblue","left_mu":60,"right_mu":90,"left_numbers":[63,61,57,66,47,68,57,50,62,55],"right_numbers":[94,101,115,87,93,85,86,91,99,84],"points_earned":864,"trial_type":"horizons-task","trial_index":83,"time_elapsed":770990,"internal_node_id":"0.0-79.0"},{"response_times":[961.2699999997858,818.2950000045821,611.0550000012154,953.1750000023749,462.31499999703374],"keys_pressed":["rightarrow","leftarrow","leftarrow","rightarrow","rightarrow"],"horizon":5,"forced_choices":["rightarrow","leftarrow","leftarrow","rightarrow"],"right_color":"lightblue","left_color":"orange","left_mu":40,"right_mu":52,"left_numbers":[29,43,36,55,32],"right_numbers":[54,48,47,58,61],"points_earned":252,"trial_type":"horizons-task","trial_index":84,"time_elapsed":776300,"internal_node_id":"0.0-80.0"},{"response_times":[555.3649999928894,535.4200000001583,1235.7100000081118,974.2200000036974,1393.725000001723],"keys_pressed":["rightarrow","leftarrow","rightarrow","rightarrow","leftarrow"],"horizon":5,"forced_choices":["rightarrow","leftarrow","rightarrow","rightarrow"],"right_color":"orange","left_color":"lightblue","left_mu":40,"right_mu":48,"left_numbers":[24,50,31,43,39],"right_numbers":[52,43,43,53,37],"points_earned":237,"trial_type":"horizons-task","trial_index":85,"time_elapsed":782514,"internal_node_id":"0.0-81.0"},{"response_times":[759.474999998929,688.6099999974249,707.7350000035949,686.9599999918137,746.2349999987055,533.7699999945471,457.4750000028871,362.65999999886844,261.24500000150874,234.0999999869382],"keys_pressed":["leftarrow","leftarrow","rightarrow","leftarrow","leftarrow","leftarrow","leftarrow","leftarrow","leftarrow","leftarrow"],"horizon":10,"forced_choices":["leftarrow","leftarrow","rightarrow","leftarrow"],"right_color":"orange","left_color":"lightblue","left_mu":60,"right_mu":30,"left_numbers":[69,79,65,57,51,51,58,61,65,60],"right_numbers":[26,28,20,48,21,33,28,36,39,44],"points_earned":571,"trial_type":"horizons-task","trial_index":86,"time_elapsed":789456,"internal_node_id":"0.0-82.0"},{"response_times":[607.5399999972433,856.4949999999953,745.9649999946123,494.21000000438653,372.78499999956694],"keys_pressed":["rightarrow","rightarrow","leftarrow","leftarrow","leftarrow"],"horizon":5,"forced_choices":["rightarrow","rightarrow","leftarrow","leftarrow"],"right_color":"lightblue","left_color":"orange","left_mu":60,"right_mu":30,"left_numbers":[61,48,55,70,46],"right_numbers":[29,29,23,31,26],"points_earned":229,"trial_type":"horizons-task","trial_index":87,"time_elapsed":794039,"internal_node_id":"0.0-83.0"},{"response_times":[673.8499999919441,1210.3700000006938,625.2449999883538,797.4299999914365,1370.5100000079256,1230.4199999925913,403.01999999792315,403.0849999981001,263.30500000040047,412.02000000339467],"keys_pressed":["rightarrow","rightarrow","rightarrow","leftarrow","rightarrow","leftarrow","rightarrow","rightarrow","rightarrow","rightarrow"],"horizon":10,"forced_choices":["rightarrow","rightarrow","rightarrow","leftarrow"],"right_color":"lightblue","left_color":"orange","left_mu":40,"right_mu":52,"left_numbers":[37,39,43,35,47,23,44,38,22,32],"right_numbers":[50,36,62,68,48,61,40,59,42,42],"points_earned":437,"trial_type":"horizons-task","trial_index":88,"time_elapsed":802932,"internal_node_id":"0.0-84.0"},{"response_times":[936.7300000012619,534.5450000022538,1178.794999999809,675.1300000032643,543.6899999913294,433.99000000499655,383.3749999903375,260.7149999967078,221.9500000064727,211.99500000511762],"keys_pressed":["leftarrow","rightarrow","rightarrow","leftarrow","leftarrow","leftarrow","leftarrow","leftarrow","leftarrow","leftarrow"],"horizon":10,"forced_choices":["leftarrow","rightarrow","rightarrow","leftarrow"],"right_color":"lightblue","left_color":"orange","left_mu":40,"right_mu":28,"left_numbers":[41,26,30,43,45,47,46,37,49,37],"right_numbers":[31,23,21,30,21,21,34,36,24,38],"points_earned":389,"trial_type":"horizons-task","trial_index":89,"time_elapsed":809818,"internal_node_id":"0.0-85.0"},{"rt":19761.6299999936,"responses":{"age":"55","gender-categorical":"Male","gender-free-response":"","ethnicity":"Not Hispanic or Latino","race":["White"],"language":"Yes","fluency":"Very well"},"survey":"demographics","trial_type":"survey-demo","trial_index":90,"time_elapsed":829586,"internal_node_id":"0.0-86.0"},{"rt":57211.96499999496,"responses":{"difficulty":"4","fun":"5","clarity":"5","strategy":"just tries to get a sense of which side paid better and ran with it","feedback":"none"},"survey":"debrief","trial_type":"survey-debrief","trial_index":91,"time_elapsed":886803,"internal_node_id":"0.0-87.0","interactions":"[]"}]