[{"view_history":"[{\"page_index\":0,\"viewing_time\":2352.9250000137836}]","rt":2353.3499999903142,"trial_type":"instructions","trial_index":0,"time_elapsed":2370,"internal_node_id":"0.0-0.0","task_version":"0.2"},{"item_order":[3,4,7,9,1,8,11,6,5,10,2,0,12],"responses":{"Q04":"3","Q05":"1","Q08":"2","Q10":"1","Q02":"3","Q09":"2","Q12":"2","Q07":"2","Q06":"2","Q11":"3","Q03":"2","Q01":"1","Q13":"4"},"radio_events":[66999.66500001028,67762.24000006914,69753.07000009343,73231.32000002079,76569.00000013411,77804.47000009008,80043.9100000076,81271.30500017665,85032.27000008337,88522.69500005059,92104.06500007957,94568.36999999359,97017.60000013746,97651.23499999754,98236.8050001096,102868.61000000499,103718.5049999971,104392.54999998957,105982.81499999575,108478.16000017338],"key_events":[],"mouse_events":[0.08999998681247234,66999.66500001028,67762.24000006914,68388.55500007048,69007.36000016332,69753.07000009343,70476.98000003584,71070.54500002414,72716.53000009246,73231.32000002079,75749.58000006154,76569.00000013411,77249.53000014648,77804.47000009008,80043.9100000076,80776.3950000517,81271.30500017665,85032.27000008337,86092.30000013486,88522.69500005059,92104.06500007957,94568.36999999359,95258.25499999337,95924.91000005975,96542.89000015706,97017.60000013746,97651.23499999754,98236.8050001096,98950.53500006907,99480.60000012629,99915.50500015728,100870.1950001996,101336.60000003874,102868.61000000499,103718.5049999971,104392.54999998957,105982.81499999575,108478.16000017338,111898.84000015445],"rt":111902.30499999598,"survey":"ius12","trial_type":"survey-template","trial_index":1,"time_elapsed":114281,"internal_node_id":"0.0-1.0","task_version":"0.2"},{"item_order":[0,1,12,6,15,3,4,5,2,13,8,14,10,11,9,7],"responses":{"Q01":"4","Q02":"4","Q13":"4","Q07":"4","Q16":"5","Q04":"3","Q05":"2","Q06":"4","Q03":"4","Q14":"1","Q09":"2","Q15":"3","Q11":"4","Q12":"4","Q10":"3","Q08":"2"},"radio_events":[2959.819999989122,3630.3649998735636,6150.135000003502,6654.945000074804,7764.010000042617,8807.54499998875,11471.134999999776,14055.179999908432,15043.864999897778,19891.374999890104,23520.629999926314,27710.519999964163,28135.05499996245,28623.935000039637,32581.920000026003,37433.704999974,38339.53500003554,39006.34499988519,42216.71000006609,44262.46999995783,45907.07499999553,46381.29499997012,59966.52000001632,65714.59500002675],"key_events":[],"mouse_events":[2959.819999989122,3630.3649998735636,4158.809999935329,4730.084999930114,6150.135000003502,6654.945000074804,7242.554999887943,7764.010000042617,8286.025000037625,8807.54499998875,9521.315000019968,10140.505000017583,10541.504999855533,10958.104999968782,11471.134999999776,14055.179999908432,15043.864999897778,19891.374999890104,23520.629999926314,27710.519999964163,28135.05499996245,28623.935000039637,29123.05499985814,29644.134999951348,30126.14000006579,30686.93000008352,31145.419999957085,31586.265000049025,32581.920000026003,33828.96499987692,34339.60000006482,34797.74499987252,35150.854999898,35569.0450000111,36001.29500008188,37081.13499986939,37433.704999974,38339.53500003554,39006.34499988519,39576.30000007339,40008.265000069514,41261.62500004284,42216.71000006609,42931.90500000492,43476.67500004172,44262.46999995783,44776.795000070706,45428.56999998912,45907.07499999553,46381.29499997012,59966.52000001632,65177.45999991894,65714.59500002675,66597.6799998898],"rt":66604.58000004292,"survey":"nfc","trial_type":"survey-template","trial_index":2,"time_elapsed":180893,"internal_node_id":"0.0-2.0","task_version":"0.2"},{"item_order":[15,7,1,0,4,6,12,8,5,16,13,11,14,3,2,9,10],"responses":{"Q16":"3","Q08":"3","Q02":"2","Q01":"3","Q05":"3","Q07":"2","Q13":"2","Q09":"1","Q06":"3","Q17":"0","Q14":"2","Q12":"2","Q15":"2","Q04":"2","Q03":"3","Q10":"3","Q11":"3"},"radio_events":[2305.4849999025464,2790.9750000108033,3370.2499999199063,7318.3199998456985,10407.454999862239,11145.319999894127,12767.299999948591,13604.279999854043,15641.249999869615,19244.05499990098,20489.09999988973,23844.08999979496,28273.09999987483,29983.729999978095,31958.814999787137,34020.69999999367,35622.09499999881,37981.889999937266,41809.82999992557,43279.0349998977,45228.669999865815,48993.40999987908,49627.61999992654,50574.2799998261,51433.39499994181],"key_events":[],"mouse_events":[2305.4849999025464,2790.9750000108033,3370.2499999199063,4018.8749998342246,4524.5799999684095,5038.134999806061,6571.564999874681,7318.3199998456985,10407.454999862239,11145.319999894127,11747.86000000313,12349.984999978915,12767.299999948591,13604.279999854043,15078.94999999553,15641.249999869615,17159.17499992065,17841.114999959245,18394.399999873713,19244.05499990098,19806.48499983363,20489.09999988973,21010.56499988772,21580.5799998343,22648.134999908507,23306.119999848306,23844.08999979496,26083.179999841377,28273.09999987483,29983.729999978095,31501.56499980949,31958.814999787137,34020.69999999367,35622.09499999881,36103.499999968335,36674.16499997489,37981.889999937266,41809.82999992557,43279.0349998977,44764.239999931306,45228.669999865815,47164.074999978766,47532.404999947175,48993.40999987908,49627.61999992654,50574.2799998261,51433.39499994181,54612.054999917746],"rt":54619.34500001371,"survey":"pswq","trial_type":"survey-template","trial_index":3,"time_elapsed":235523,"internal_node_id":"0.0-3.0","task_version":"0.2"},{"view_history":"[{\"page_index\":0,\"viewing_time\":3105.03500001505},{\"page_index\":1,\"viewing_time\":3710.3649999480695},{\"page_index\":2,\"viewing_time\":7229.565000161529},{\"page_index\":3,\"viewing_time\":3885.4749999009073},{\"page_index\":4,\"viewing_time\":4550.589999882504},{\"page_index\":5,\"viewing_time\":3435.5650001671165},{\"page_index\":6,\"viewing_time\":2768.6949998605996},{\"page_index\":7,\"viewing_time\":8351.335000013933},{\"page_index\":8,\"viewing_time\":4198.800000129268},{\"page_index\":9,\"viewing_time\":3716.8199999723583}]","rt":44952.89500011131,"trial_type":"instructions","trial_index":4,"time_elapsed":280478,"internal_node_id":"0.0-4.0-0.0","task_version":"0.2"},{"response_times":[1238.1150000728667,888.4050000924617,455.6250001769513,596.8700000084937,3250.7149998564273],"keys_pressed":["rightarrow","leftarrow","rightarrow","rightarrow","leftarrow"],"horizon":5,"forced_choices":["rightarrow","leftarrow","rightarrow","rightarrow"],"right_color":"lightblue","left_color":"orange","left_mu":40,"right_mu":20,"left_numbers":[27,31,38,20,39],"right_numbers":[18,14,12,21,18],"points_earned":121,"phase":"practice","trial_type":"horizons-task","trial_index":5,"time_elapsed":288430,"internal_node_id":"0.0-4.0-1.0","task_version":"0.2"},{"response_times":[1092.9999998770654,1017.2250000759959,576.4499998185784,587.4600000679493,2625.8499999530613,1480.3199998568743,1833.674999885261,1127.0899998489767,708.7849997915328,522.8550001047552],"keys_pressed":["leftarrow","leftarrow","rightarrow","rightarrow","rightarrow","rightarrow","rightarrow","rightarrow","rightarrow","rightarrow"],"horizon":10,"forced_choices":["leftarrow","leftarrow","rightarrow","rightarrow"],"right_color":"orange","left_color":"lightblue","left_mu":60,"right_mu":70,"left_numbers":[53,63,65,58,55,75,55,65,57,61],"right_numbers":[74,70,76,66,74,80,66,66,77,70],"points_earned":691,"phase":"practice","trial_type":"horizons-task","trial_index":6,"time_elapsed":301507,"internal_node_id":"0.0-4.0-2.0","task_version":"0.2"},{"view_history":"[{\"page_index\":0,\"viewing_time\":2211.0849998425692},{\"page_index\":1,\"viewing_time\":2081.1499999836087},{\"page_index\":2,\"viewing_time\":1278.6950001027435},{\"page_index\":3,\"viewing_time\":600.7749999407679}]","rt":6172.289999900386,"trial_type":"instructions","trial_index":7,"time_elapsed":307680,"internal_node_id":"0.0-4.0-3.0","task_version":"0.2"},{"responses":["true","false","true"],"num_errors":0,"rt":9477.740000002086,"trial_type":"horizons-comprehension","trial_index":8,"time_elapsed":317162,"internal_node_id":"0.0-4.0-4.0","task_version":"0.2"},{"trial_type":"call-function","trial_index":9,"time_elapsed":317165,"internal_node_id":"0.0-5.0","task_version":"0.2"},{"view_history":"[{\"page_index\":0,\"viewing_time\":1119.9399998877198},{\"page_index\":1,\"viewing_time\":1735.5450000613928}]","rt":2856.0750000178814,"trial_type":"instructions","trial_index":10,"time_elapsed":320033,"internal_node_id":"0.0-6.0","task_version":"0.2"},{"response_times":[1061.4549999590963,570.6350000109524,735.5049999896437,1522.1750000491738,1552.4949999526143],"keys_pressed":["rightarrow","leftarrow","leftarrow","rightarrow","leftarrow"],"horizon":5,"forced_choices":["rightarrow","leftarrow","leftarrow","rightarrow"],"right_color":"lightblue","left_color":"orange","left_mu":60,"right_mu":52,"left_numbers":[61,52,62,62,43],"right_numbers":[62,46,40,46,37],"points_earned":265,"phase":"task","trial_type":"horizons-task","trial_index":11,"time_elapsed":326985,"internal_node_id":"0.0-7.0","task_version":"0.2"},{"response_times":[853.015000000596,758.960000006482,660.8100000303239,632.7149998396635,914.8249998688698,636.5999998524785,438.6249999515712,449.4599997997284,465.01000015996397,388.47500015981495],"keys_pressed":["rightarrow","leftarrow","rightarrow","leftarrow","leftarrow","leftarrow","leftarrow","leftarrow","leftarrow","leftarrow"],"horizon":10,"forced_choices":["rightarrow","leftarrow","rightarrow","leftarrow"],"right_color":"orange","left_color":"lightblue","left_mu":40,"right_mu":10,"left_numbers":[32,50,38,47,44,35,45,36,38,41],"right_numbers":[9,4,14,0,0,7,29,21,9,12],"points_earned":359,"phase":"task","trial_type":"horizons-task","trial_index":12,"time_elapsed":334691,"internal_node_id":"0.0-8.0","task_version":"0.2"},{"response_times":[983.5050001274794,447.05000007525086,812.5850001815706,733.7750000879169,1846.879999851808,672.8399998974055,900.8549998980016,998.6449999269098,603.2650000415742,583.6300000082701],"keys_pressed":["rightarrow","leftarrow","rightarrow","rightarrow","leftarrow","rightarrow","leftarrow","leftarrow","rightarrow","leftarrow"],"horizon":10,"forced_choices":["rightarrow","leftarrow","rightarrow","rightarrow"],"right_color":"lightblue","left_color":"orange","left_mu":60,"right_mu":52,"left_numbers":[63,51,64,55,58,65,67,55,61,74],"right_numbers":[63,54,48,51,62,52,40,49,57,47],"points_earned":576,"phase":"task","trial_type":"horizons-task","trial_index":13,"time_elapsed":344778,"internal_node_id":"0.0-9.0","task_version":"0.2"},{"response_times":[1006.4749999437481,1186.9250000454485,1234.45999994874,605.2900000941008,1257.7849999070168],"keys_pressed":["leftarrow","leftarrow","rightarrow","rightarrow","leftarrow"],"horizon":5,"forced_choices":["leftarrow","leftarrow","rightarrow","rightarrow"],"right_color":"lightblue","left_color":"orange","left_mu":40,"right_mu":28,"left_numbers":[36,55,39,38,45],"right_numbers":[18,13,29,19,18],"points_earned":184,"phase":"task","trial_type":"horizons-task","trial_index":14,"time_elapsed":351572,"internal_node_id":"0.0-10.0","task_version":"0.2"},{"response_times":[701.2449998874217,667.1349999960512,852.6099999435246,577.1999999415129,2009.455000050366],"keys_pressed":["leftarrow","rightarrow","leftarrow","rightarrow","rightarrow"],"horizon":5,"forced_choices":["leftarrow","rightarrow","leftarrow","rightarrow"],"right_color":"orange","left_color":"lightblue","left_mu":60,"right_mu":68,"left_numbers":[59,52,75,69,49],"right_numbers":[70,73,63,72,59],"points_earned":338,"phase":"task","trial_type":"horizons-task","trial_index":15,"time_elapsed":357886,"internal_node_id":"0.0-11.0","task_version":"0.2"},{"response_times":[621.7549999710172,1071.2150000035763,495.9600002039224,1031.8850001785904,2551.564999856055],"keys_pressed":["leftarrow","leftarrow","rightarrow","leftarrow","leftarrow"],"horizon":5,"forced_choices":["leftarrow","leftarrow","rightarrow","leftarrow"],"right_color":"orange","left_color":"lightblue","left_mu":40,"right_mu":36,"left_numbers":[34,37,36,28,38],"right_numbers":[40,30,31,35,42],"points_earned":168,"phase":"task","trial_type":"horizons-task","trial_index":16,"time_elapsed":365165,"internal_node_id":"0.0-12.0","task_version":"0.2"},{"response_times":[515.3799999970943,912.03000000678,487.8699998371303,1177.9749998822808,2091.1550000309944],"keys_pressed":["rightarrow","rightarrow","leftarrow","rightarrow","rightarrow"],"horizon":5,"forced_choices":["rightarrow","rightarrow","leftarrow","rightarrow"],"right_color":"orange","left_color":"lightblue","left_mu":40,"right_mu":60,"left_numbers":[49,53,51,40,31],"right_numbers":[53,41,54,64,57],"points_earned":266,"phase":"task","trial_type":"horizons-task","trial_index":17,"time_elapsed":371855,"internal_node_id":"0.0-13.0","task_version":"0.2"},{"response_times":[683.6449999827892,567.490000044927,504.23499988391995,402.4099998641759,1014.9900000542402,6317.445000167936,880.6350000668317,583.5000001825392,334.62500013411045,225.06999992765486],"keys_pressed":["rightarrow","rightarrow","leftarrow","leftarrow","leftarrow","rightarrow","leftarrow","leftarrow","leftarrow","leftarrow"],"horizon":10,"forced_choices":["rightarrow","rightarrow","leftarrow","leftarrow"],"right_color":"lightblue","left_color":"orange","left_mu":60,"right_mu":30,"left_numbers":[55,59,56,78,57,50,67,56,69,56],"right_numbers":[24,43,32,16,18,27,26,37,35,24],"points_earned":533,"phase":"task","trial_type":"horizons-task","trial_index":18,"time_elapsed":384876,"internal_node_id":"0.0-14.0","task_version":"0.2"},{"response_times":[756.8599998485297,386.1149998847395,533.15500007011,787.2499998193234,562.33000010252],"keys_pressed":["rightarrow","leftarrow","rightarrow","leftarrow","leftarrow"],"horizon":5,"forced_choices":["rightarrow","leftarrow","rightarrow","leftarrow"],"right_color":"orange","left_color":"lightblue","left_mu":40,"right_mu":10,"left_numbers":[42,49,36,35,37],"right_numbers":[13,13,21,13,9],"points_earned":155,"phase":"task","trial_type":"horizons-task","trial_index":19,"time_elapsed":389408,"internal_node_id":"0.0-15.0","task_version":"0.2"},{"response_times":[1748.5199999064207,406.8100000731647,389.6649999078363,1406.9099999032915,486.1050001345575],"keys_pressed":["leftarrow","rightarrow","leftarrow","leftarrow","leftarrow"],"horizon":5,"forced_choices":["leftarrow","rightarrow","leftarrow","leftarrow"],"right_color":"lightblue","left_color":"orange","left_mu":40,"right_mu":52,"left_numbers":[36,32,65,49,33],"right_numbers":[45,50,64,39,42],"points_earned":233,"phase":"task","trial_type":"horizons-task","trial_index":20,"time_elapsed":395351,"internal_node_id":"0.0-16.0","task_version":"0.2"},{"response_times":[848.4800001606345,523.5900001134723,514.784999890253,339.09999998286366,3684.32499980554,601.8400001339614,877.9449998401105,476.22499987483025,764.2600000835955,628.1049998942763],"keys_pressed":["leftarrow","leftarrow","rightarrow","rightarrow","rightarrow","leftarrow","leftarrow","rightarrow","rightarrow","rightarrow"],"horizon":10,"forced_choices":["leftarrow","leftarrow","rightarrow","rightarrow"],"right_color":"lightblue","left_color":"orange","left_mu":60,"right_mu":56,"left_numbers":[65,49,52,61,52,61,52,61,58,67],"right_numbers":[64,53,48,69,55,48,70,74,58,63],"points_earned":594,"phase":"task","trial_type":"horizons-task","trial_index":21,"time_elapsed":406112,"internal_node_id":"0.0-17.0","task_version":"0.2"},{"response_times":[740.0050000287592,463.84999994188547,501.1249999515712,585.8499999158084,1567.5800000317395,936.3500000908971,341.90499992109835,610.8450000174344,351.17499995976686,211.3399999216199],"keys_pressed":["rightarrow","leftarrow","leftarrow","leftarrow","leftarrow","leftarrow","rightarrow","leftarrow","leftarrow","leftarrow"],"horizon":10,"forced_choices":["rightarrow","leftarrow","leftarrow","leftarrow"],"right_color":"orange","left_color":"lightblue","left_mu":40,"right_mu":10,"left_numbers":[50,42,47,35,44,32,35,25,40,31],"right_numbers":[14,0,3,1,17,3,21,0,10,12],"points_earned":331,"phase":"task","trial_type":"horizons-task","trial_index":22,"time_elapsed":413925,"internal_node_id":"0.0-18.0","task_version":"0.2"},{"response_times":[634.6099998336285,454.56499978899956,981.364999897778,518.4100000187755,328.15499999560416],"keys_pressed":["leftarrow","rightarrow","rightarrow","rightarrow","rightarrow"],"horizon":5,"forced_choices":["leftarrow","rightarrow","rightarrow","rightarrow"],"right_color":"orange","left_color":"lightblue","left_mu":60,"right_mu":80,"left_numbers":[56,52,79,63,53],"right_numbers":[79,94,69,67,73],"points_earned":359,"phase":"task","trial_type":"horizons-task","trial_index":23,"time_elapsed":418347,"internal_node_id":"0.0-19.0","task_version":"0.2"},{"response_times":[828.2250000629574,480.5349998641759,611.0999998636544,1319.6950000710785,1495.9249999374151,807.8950000926852,990.9099999349564,527.6500000618398,239.82000001706183,224.36499991454184],"keys_pressed":["rightarrow","leftarrow","rightarrow","rightarrow","rightarrow","rightarrow","leftarrow","rightarrow","rightarrow","rightarrow"],"horizon":10,"forced_choices":["rightarrow","leftarrow","rightarrow","rightarrow"],"right_color":"orange","left_color":"lightblue","left_mu":60,"right_mu":64,"left_numbers":[63,56,66,42,58,65,49,65,73,58],"right_numbers":[55,60,62,55,61,67,57,50,57,60],"points_earned":572,"phase":"task","trial_type":"horizons-task","trial_index":24,"time_elapsed":427378,"internal_node_id":"0.0-20.0","task_version":"0.2"},{"response_times":[1001.9300000276417,539.6149998996407,1370.8250001072884,858.9649999048561,670.0800000689924],"keys_pressed":["leftarrow","rightarrow","rightarrow","leftarrow","leftarrow"],"horizon":5,"forced_choices":["leftarrow","rightarrow","rightarrow","leftarrow"],"right_color":"lightblue","left_color":"orange","left_mu":60,"right_mu":40,"left_numbers":[59,65,76,70,57],"right_numbers":[38,50,23,24,37],"points_earned":259,"phase":"task","trial_type":"horizons-task","trial_index":25,"time_elapsed":433324,"internal_node_id":"0.0-21.0","task_version":"0.2"},{"response_times":[755.3199999965727,375.13999990187585,1138.3099998347461,667.3250000458211,1751.765000168234,601.0799999348819,727.7200000826269,832.7500000596046,490.6699999701232,302.5100000668317],"keys_pressed":["rightarrow","leftarrow","leftarrow","rightarrow","leftarrow","rightarrow","rightarrow","leftarrow","rightarrow","rightarrow"],"horizon":10,"forced_choices":["rightarrow","leftarrow","leftarrow","rightarrow"],"right_color":"lightblue","left_color":"orange","left_mu":40,"right_mu":48,"left_numbers":[41,36,30,49,39,42,35,33,62,33],"right_numbers":[51,43,53,29,46,47,55,43,47,58],"points_earned":425,"phase":"task","trial_type":"horizons-task","trial_index":26,"time_elapsed":442471,"internal_node_id":"0.0-22.0","task_version":"0.2"},{"response_times":[832.8499998897314,724.7399999760091,1124.0250000264496,1159.559999825433,1090.970000019297,503.87000013142824,883.19499976933,268.4800000861287,856.2049998436123,332.8249999321997],"keys_pressed":["leftarrow","leftarrow","rightarrow","leftarrow","leftarrow","rightarrow","leftarrow","rightarrow","rightarrow","leftarrow"],"horizon":10,"forced_choices":["leftarrow","leftarrow","rightarrow","leftarrow"],"right_color":"orange","left_color":"lightblue","left_mu":40,"right_mu":36,"left_numbers":[22,40,32,55,42,19,28,27,40,37],"right_numbers":[36,25,53,43,33,40,34,30,39,45],"points_earned":386,"phase":"task","trial_type":"horizons-task","trial_index":27,"time_elapsed":451752,"internal_node_id":"0.0-23.0","task_version":"0.2"},{"response_times":[648.6100000329316,746.5450000017881,699.5499997865409,976.1950001120567,579.4799998402596],"keys_pressed":["leftarrow","leftarrow","rightarrow","leftarrow","rightarrow"],"horizon":5,"forced_choices":["leftarrow","leftarrow","rightarrow","leftarrow"],"right_color":"orange","left_color":"lightblue","left_mu":40,"right_mu":70,"left_numbers":[38,35,41,42,41],"right_numbers":[71,71,69,73,70],"points_earned":254,"phase":"task","trial_type":"horizons-task","trial_index":28,"time_elapsed":456906,"internal_node_id":"0.0-24.0","task_version":"0.2"},{"response_times":[580.684999935329,648.879999993369,631.8900000769645,430.76000013388693,752.2399998269975,371.33500003255904,349.44500005804,234.26499986089766,203.53000005707145,222.36000001430511],"keys_pressed":["rightarrow","rightarrow","leftarrow","leftarrow","rightarrow","rightarrow","rightarrow","rightarrow","rightarrow","rightarrow"],"horizon":10,"forced_choices":["rightarrow","rightarrow","leftarrow","leftarrow"],"right_color":"lightblue","left_color":"orange","left_mu":60,"right_mu":90,"left_numbers":[55,58,69,65,58,53,67,57,55,52],"right_numbers":[96,101,95,94,85,87,105,97,94,82],"points_earned":881,"phase":"task","trial_type":"horizons-task","trial_index":29,"time_elapsed":462840,"internal_node_id":"0.0-25.0","task_version":"0.2"},{"response_times":[751.9249999895692,374.4050001259893,803.2199998851866,1167.4399999901652,1478.8100000005215],"keys_pressed":["rightarrow","leftarrow","leftarrow","rightarrow","rightarrow"],"horizon":5,"forced_choices":["rightarrow","leftarrow","leftarrow","rightarrow"],"right_color":"lightblue","left_color":"orange","left_mu":40,"right_mu":48,"left_numbers":[44,41,33,51,37],"right_numbers":[38,44,49,48,43],"points_earned":203,"phase":"task","trial_type":"horizons-task","trial_index":30,"time_elapsed":468923,"internal_node_id":"0.0-26.0","task_version":"0.2"},{"response_times":[7439.809999894351,925.6349999923259,1080.3399998694658,721.0099999792874,893.7800000421703],"keys_pressed":["leftarrow","leftarrow","rightarrow","rightarrow","rightarrow"],"horizon":5,"forced_choices":["leftarrow","leftarrow","rightarrow","rightarrow"],"right_color":"lightblue","left_color":"orange","left_mu":60,"right_mu":56,"left_numbers":[51,53,68,58,60],"right_numbers":[64,48,71,52,61],"points_earned":288,"phase":"task","trial_type":"horizons-task","trial_index":31,"time_elapsed":481490,"internal_node_id":"0.0-27.0","task_version":"0.2"},{"response_times":[656.3899999018759,460.01000003889203,650.154999922961,1227.699999930337,971.2950000539422],"keys_pressed":["rightarrow","leftarrow","rightarrow","rightarrow","rightarrow"],"horizon":5,"forced_choices":["rightarrow","leftarrow","rightarrow","rightarrow"],"right_color":"orange","left_color":"lightblue","left_mu":60,"right_mu":64,"left_numbers":[52,58,50,62,76],"right_numbers":[53,64,61,61,59],"points_earned":292,"phase":"task","trial_type":"horizons-task","trial_index":32,"time_elapsed":486961,"internal_node_id":"0.0-28.0","task_version":"0.2"},{"response_times":[741.9900000095367,487.639999948442,570.744999917224,459.0699998661876,969.8000000789762,744.4499998819083,481.3600000925362,220.9850000217557,237.25999984890223,252.77499994263053],"keys_pressed":["rightarrow","rightarrow","leftarrow","leftarrow","rightarrow","leftarrow","rightarrow","rightarrow","rightarrow","rightarrow"],"horizon":10,"forced_choices":["rightarrow","rightarrow","leftarrow","leftarrow"],"right_color":"orange","left_color":"lightblue","left_mu":40,"right_mu":60,"left_numbers":[44,48,37,42,40,40,25,25,41,16],"right_numbers":[67,62,71,46,51,68,70,49,64,53],"points_earned":535,"phase":"task","trial_type":"horizons-task","trial_index":33,"time_elapsed":493630,"internal_node_id":"0.0-29.0","task_version":"0.2"},{"response_times":[702.5950001552701,351.42500000074506,726.3050000183284,790.5500000342727,402.1149999462068],"keys_pressed":["rightarrow","leftarrow","rightarrow","leftarrow","rightarrow"],"horizon":5,"forced_choices":["rightarrow","leftarrow","rightarrow","leftarrow"],"right_color":"orange","left_color":"lightblue","left_mu":60,"right_mu":80,"left_numbers":[59,57,52,69,60],"right_numbers":[78,69,81,81,68],"points_earned":353,"phase":"task","trial_type":"horizons-task","trial_index":34,"time_elapsed":498109,"internal_node_id":"0.0-30.0","task_version":"0.2"},{"response_times":[571.2249998468906,308.73499996960163,847.9549998883158,433.7499998509884,2709.5099999569356,965.3549999929965,706.2249998562038,522.8049999568611,813.5750000365078,902.1900000516325],"keys_pressed":["rightarrow","leftarrow","rightarrow","leftarrow","leftarrow","rightarrow","leftarrow","rightarrow","leftarrow","rightarrow"],"horizon":10,"forced_choices":["rightarrow","leftarrow","rightarrow","leftarrow"],"right_color":"orange","left_color":"lightblue","left_mu":40,"right_mu":36,"left_numbers":[51,38,38,27,36,46,52,34,42,47],"right_numbers":[39,34,25,45,37,36,32,34,28,43],"points_earned":372,"phase":"task","trial_type":"horizons-task","trial_index":35,"time_elapsed":508394,"internal_node_id":"0.0-31.0","task_version":"0.2"},{"response_times":[522.110000019893,304.39000017941,1253.5749999806285,1284.9399999249727,1578.7800000980496],"keys_pressed":["rightarrow","leftarrow","rightarrow","rightarrow","rightarrow"],"horizon":5,"forced_choices":["rightarrow","leftarrow","rightarrow","rightarrow"],"right_color":"lightblue","left_color":"orange","left_mu":60,"right_mu":52,"left_numbers":[35,59,58,64,62],"right_numbers":[57,57,37,53,44],"points_earned":250,"phase":"task","trial_type":"horizons-task","trial_index":36,"time_elapsed":514842,"internal_node_id":"0.0-32.0","task_version":"0.2"},{"response_times":[604.045000160113,194.13000019267201,750.7300002034754,157.88000007160008,1586.5300002042204,228.00999996252358,211.06499992311,235.05500005558133,403.58499996364117,245.18999992869794],"keys_pressed":["leftarrow","rightarrow","leftarrow","rightarrow","rightarrow","rightarrow","rightarrow","rightarrow","rightarrow","rightarrow"],"horizon":10,"forced_choices":["leftarrow","rightarrow","leftarrow","rightarrow"],"right_color":"orange","left_color":"lightblue","left_mu":40,"right_mu":70,"left_numbers":[35,15,27,37,41,33,35,40,42,40],"right_numbers":[77,65,73,66,72,65,72,78,64,66],"points_earned":610,"phase":"task","trial_type":"horizons-task","trial_index":37,"time_elapsed":520963,"internal_node_id":"0.0-33.0","task_version":"0.2"},{"response_times":[856.2800001818687,404.2699998244643,485.9200001228601,972.2799998708069,1796.4049999136478],"keys_pressed":["rightarrow","leftarrow","rightarrow","leftarrow","leftarrow"],"horizon":5,"forced_choices":["rightarrow","leftarrow","rightarrow","leftarrow"],"right_color":"orange","left_color":"lightblue","left_mu":40,"right_mu":36,"left_numbers":[42,40,43,39,46],"right_numbers":[29,36,38,30,26],"points_earned":192,"phase":"task","trial_type":"horizons-task","trial_index":38,"time_elapsed":526984,"internal_node_id":"0.0-34.0","task_version":"0.2"},{"response_times":[877.4249998386949,347.74999995715916,827.6499998755753,860.1699999999255,706.1850000172853],"keys_pressed":["leftarrow","rightarrow","rightarrow","leftarrow","leftarrow"],"horizon":5,"forced_choices":["leftarrow","rightarrow","rightarrow","leftarrow"],"right_color":"orange","left_color":"lightblue","left_mu":60,"right_mu":72,"left_numbers":[70,60,67,68,62],"right_numbers":[87,65,57,70,72],"points_earned":322,"phase":"task","trial_type":"horizons-task","trial_index":39,"time_elapsed":532111,"internal_node_id":"0.0-35.0","task_version":"0.2"},{"response_times":[680.2550000138581,489.56999997608364,709.5850000623614,520.615000044927,269.9800000991672,5257.574999937788,782.6950000599027,719.0700001083314,664.5549999084324,612.6349999103695],"keys_pressed":["rightarrow","rightarrow","rightarrow","leftarrow","leftarrow","rightarrow","leftarrow","rightarrow","leftarrow","rightarrow"],"horizon":10,"forced_choices":["rightarrow","rightarrow","rightarrow","leftarrow"],"right_color":"lightblue","left_color":"orange","left_mu":40,"right_mu":32,"left_numbers":[30,39,25,39,43,26,28,42,37,40],"right_numbers":[38,19,36,34,36,39,39,41,30,33],"points_earned":353,"phase":"task","trial_type":"horizons-task","trial_index":40,"time_elapsed":544321,"internal_node_id":"0.0-36.0","task_version":"0.2"},{"response_times":[519.1250001080334,725.2400000579655,694.1100000403821,2167.8199998568743,485.69500003941357,1328.389999922365,1145.1950001064688,368.68000007234514,764.3750000279397,203.3349999692291],"keys_pressed":["rightarrow","rightarrow","leftarrow","rightarrow","rightarrow","leftarrow","leftarrow","rightarrow","leftarrow","leftarrow"],"horizon":10,"forced_choices":["rightarrow","rightarrow","leftarrow","rightarrow"],"right_color":"lightblue","left_color":"orange","left_mu":60,"right_mu":40,"left_numbers":[65,61,56,52,69,49,58,64,57,59],"right_numbers":[50,23,31,48,30,35,37,38,38,43],"points_earned":468,"phase":"task","trial_type":"horizons-task","trial_index":41,"time_elapsed":554230,"internal_node_id":"0.0-37.0","task_version":"0.2"},{"response_times":[521.0749998223037,601.1350001208484,538.2449999451637,1374.1200000513345,531.4500001259148],"keys_pressed":["rightarrow","rightarrow","leftarrow","rightarrow","leftarrow"],"horizon":5,"forced_choices":["rightarrow","rightarrow","leftarrow","rightarrow"],"right_color":"lightblue","left_color":"orange","left_mu":60,"right_mu":40,"left_numbers":[56,59,63,67,58],"right_numbers":[32,41,25,29,35],"points_earned":223,"phase":"task","trial_type":"horizons-task","trial_index":42,"time_elapsed":559302,"internal_node_id":"0.0-38.0","task_version":"0.2"},{"response_times":[837.6249999273568,577.9749997891486,513.1650001276284,846.529999980703,420.8799998741597],"keys_pressed":["leftarrow","rightarrow","rightarrow","rightarrow","leftarrow"],"horizon":5,"forced_choices":["leftarrow","rightarrow","rightarrow","rightarrow"],"right_color":"lightblue","left_color":"orange","left_mu":60,"right_mu":30,"left_numbers":[59,60,64,72,70],"right_numbers":[35,33,36,34,11],"points_earned":232,"phase":"task","trial_type":"horizons-task","trial_index":43,"time_elapsed":564005,"internal_node_id":"0.0-39.0","task_version":"0.2"},{"response_times":[633.7099999655038,354.0149999316782,599.5950000360608,1255.94999990426,1832.0049999747425,755.4899998940527,422.1349998842925,197.05500011332333,190.9099998883903,174.9749998562038],"keys_pressed":["leftarrow","rightarrow","leftarrow","leftarrow","rightarrow","leftarrow","leftarrow","leftarrow","leftarrow","leftarrow"],"horizon":10,"forced_choices":["leftarrow","rightarrow","leftarrow","leftarrow"],"right_color":"orange","left_color":"lightblue","left_mu":60,"right_mu":48,"left_numbers":[54,63,63,48,75,62,52,72,54,55],"right_numbers":[59,48,41,45,38,43,36,49,54,50],"points_earned":546,"phase":"task","trial_type":"horizons-task","trial_index":44,"time_elapsed":571926,"internal_node_id":"0.0-40.0","task_version":"0.2"},{"response_times":[792.9000000003725,432.7950000297278,804.0199999231845,606.5599999856204,1520.6549998838454,706.3150000758469,632.139999885112,592.4949999898672,195.1549998484552,183.01000003702939],"keys_pressed":["leftarrow","rightarrow","rightarrow","leftarrow","leftarrow","rightarrow","leftarrow","leftarrow","leftarrow","leftarrow"],"horizon":10,"forced_choices":["leftarrow","rightarrow","rightarrow","leftarrow"],"right_color":"lightblue","left_color":"orange","left_mu":60,"right_mu":40,"left_numbers":[59,55,57,44,49,73,59,76,81,70],"right_numbers":[40,40,38,47,48,47,37,33,47,46],"points_earned":563,"phase":"task","trial_type":"horizons-task","trial_index":45,"time_elapsed":579898,"internal_node_id":"0.0-41.0","task_version":"0.2"},{"response_times":[645.0300000142306,316.7799999937415,559.974999865517,1415.779999922961,1709.8799999803305,907.8600001521409,725.2749998588115,506.81000016629696,859.8150000907481,443.7249999027699],"keys_pressed":["rightarrow","leftarrow","leftarrow","rightarrow","leftarrow","rightarrow","leftarrow","rightarrow","rightarrow","leftarrow"],"horizon":10,"forced_choices":["rightarrow","leftarrow","leftarrow","rightarrow"],"right_color":"orange","left_color":"lightblue","left_mu":60,"right_mu":48,"left_numbers":[58,67,57,54,50,61,63,60,71,62],"right_numbers":[61,54,42,37,41,55,48,63,56,42],"points_earned":571,"phase":"task","trial_type":"horizons-task","trial_index":46,"time_elapsed":589492,"internal_node_id":"0.0-42.0","task_version":"0.2"},{"response_times":[707.5900000054389,408.57500000856817,687.1699998155236,1225.899999961257,1223.6649999395013,965.0300000794232,439.97499998658895,805.699999909848,457.6399999205023,209.04000010341406],"keys_pressed":["leftarrow","rightarrow","leftarrow","rightarrow","leftarrow","leftarrow","rightarrow","rightarrow","leftarrow","leftarrow"],"horizon":10,"forced_choices":["leftarrow","rightarrow","leftarrow","rightarrow"],"right_color":"lightblue","left_color":"orange","left_mu":40,"right_mu":32,"left_numbers":[46,49,33,45,57,35,36,63,36,43],"right_numbers":[27,24,36,23,43,29,46,31,42,33],"points_earned":374,"phase":"task","trial_type":"horizons-task","trial_index":47,"time_elapsed":598126,"internal_node_id":"0.0-43.0","task_version":"0.2"},{"response_times":[629.9650000873953,283.1250000745058,786.5999999921769,534.1000000480562,1261.1999998334795],"keys_pressed":["leftarrow","rightarrow","rightarrow","leftarrow","leftarrow"],"horizon":5,"forced_choices":["leftarrow","rightarrow","rightarrow","leftarrow"],"right_color":"lightblue","left_color":"orange","left_mu":40,"right_mu":20,"left_numbers":[35,35,31,27,22],"right_numbers":[27,20,24,9,19],"points_earned":128,"phase":"task","trial_type":"horizons-task","trial_index":48,"time_elapsed":603124,"internal_node_id":"0.0-44.0","task_version":"0.2"},{"response_times":[604.6949999872595,1018.0649999529123,783.1999999471009,532.7149999793619,860.8550000935793],"keys_pressed":["rightarrow","rightarrow","rightarrow","leftarrow","leftarrow"],"horizon":5,"forced_choices":["rightarrow","rightarrow","rightarrow","leftarrow"],"right_color":"lightblue","left_color":"orange","left_mu":40,"right_mu":20,"left_numbers":[44,33,46,37,44],"right_numbers":[22,29,16,35,29],"points_earned":148,"phase":"task","trial_type":"horizons-task","trial_index":49,"time_elapsed":608430,"internal_node_id":"0.0-45.0","task_version":"0.2"},{"response_times":[620.6399998627603,664.0449999831617,484.86500000581145,562.235000077635,1857.1299999020994,1059.9899999797344,551.4049998018891,186.649999814108,188.30000003799796,167.335000121966],"keys_pressed":["leftarrow","leftarrow","rightarrow","rightarrow","leftarrow","rightarrow","leftarrow","leftarrow","leftarrow","leftarrow"],"horizon":10,"forced_choices":["leftarrow","leftarrow","rightarrow","rightarrow"],"right_color":"lightblue","left_color":"orange","left_mu":40,"right_mu":28,"left_numbers":[43,34,48,28,47,44,39,31,48,44],"right_numbers":[16,28,33,23,23,24,37,20,35,21],"points_earned":366,"phase":"task","trial_type":"horizons-task","trial_index":50,"time_elapsed":616277,"internal_node_id":"0.0-46.0","task_version":"0.2"},{"view_history":"[{\"page_index\":0,\"viewing_time\":2167.475000023842},{\"page_index\":1,\"viewing_time\":1420.9700000938028}]","rt":3589.0500000678003,"trial_type":"instructions","trial_index":51,"time_elapsed":619868,"internal_node_id":"0.0-47.0","task_version":"0.2"},{"response_times":[1121.3449998758733,1072.7699999697506,740.4500001575798,486.91500001586974,542.3149999696761],"keys_pressed":["leftarrow","leftarrow","leftarrow","rightarrow","leftarrow"],"horizon":5,"forced_choices":["leftarrow","leftarrow","leftarrow","rightarrow"],"right_color":"lightblue","left_color":"orange","left_mu":60,"right_mu":56,"left_numbers":[63,49,69,63,58],"right_numbers":[52,59,76,51,43],"points_earned":290,"phase":"task","trial_type":"horizons-task","trial_index":52,"time_elapsed":625343,"internal_node_id":"0.0-48.0","task_version":"0.2"},{"response_times":[703.2050001434982,662.430000025779,484.2349998652935,565.5350000597537,2023.7249999772757,1218.800000147894,531.0649999883026,536.9100000243634,481.83499998413026,518.3800000231713],"keys_pressed":["rightarrow","leftarrow","leftarrow","leftarrow","leftarrow","rightarrow","leftarrow","leftarrow","rightarrow","leftarrow"],"horizon":10,"forced_choices":["rightarrow","leftarrow","leftarrow","leftarrow"],"right_color":"lightblue","left_color":"orange","left_mu":40,"right_mu":28,"left_numbers":[40,33,56,43,31,46,40,28,37,43],"right_numbers":[38,27,21,19,26,29,24,18,23,23],"points_earned":364,"phase":"task","trial_type":"horizons-task","trial_index":53,"time_elapsed":634574,"internal_node_id":"0.0-49.0","task_version":"0.2"},{"response_times":[690.8899999689311,346.1200001183897,944.5350000169128,438.32499999552965,680.1350000314415,402.6099999900907,221.20500006712973,474.1750000976026,199.50499990954995,186.36499997228384],"keys_pressed":["leftarrow","rightarrow","rightarrow","rightarrow","leftarrow","leftarrow","leftarrow","leftarrow","leftarrow","leftarrow"],"horizon":10,"forced_choices":["leftarrow","rightarrow","rightarrow","rightarrow"],"right_color":"lightblue","left_color":"orange","left_mu":60,"right_mu":30,"left_numbers":[76,70,48,73,62,57,55,46,52,54],"right_numbers":[20,31,27,21,14,21,33,22,31,35],"points_earned":481,"phase":"task","trial_type":"horizons-task","trial_index":54,"time_elapsed":640662,"internal_node_id":"0.0-50.0","task_version":"0.2"},{"response_times":[560.4899998288602,361.76500003784895,860.6700000818819,888.814999954775,1048.1500001624227],"keys_pressed":["rightarrow","leftarrow","leftarrow","leftarrow","rightarrow"],"horizon":5,"forced_choices":["rightarrow","leftarrow","leftarrow","leftarrow"],"right_color":"orange","left_color":"lightblue","left_mu":60,"right_mu":68,"left_numbers":[64,59,68,48,66],"right_numbers":[61,60,66,68,70],"points_earned":306,"phase":"task","trial_type":"horizons-task","trial_index":55,"time_elapsed":645888,"internal_node_id":"0.0-51.0","task_version":"0.2"},{"response_times":[605.3800000809133,543.9750000368804,451.36499986983836,604.1599998716265,1939.805000089109,570.134999928996,923.2050001155585,537.7499999012798,782.1949999779463,205.76500007882714],"keys_pressed":["rightarrow","rightarrow","leftarrow","rightarrow","rightarrow","leftarrow","rightarrow","leftarrow","rightarrow","rightarrow"],"horizon":10,"forced_choices":["rightarrow","rightarrow","leftarrow","rightarrow"],"right_color":"lightblue","left_color":"orange","left_mu":40,"right_mu":48,"left_numbers":[38,36,44,33,45,45,54,15,44,43],"right_numbers":[50,53,50,48,45,40,43,43,46,42],"points_earned":431,"phase":"task","trial_type":"horizons-task","trial_index":56,"time_elapsed":654559,"internal_node_id":"0.0-52.0","task_version":"0.2"},{"response_times":[748.2999998610467,526.2249999213964,720.9100001491606,1060.42500003241,746.1599998641759,386.32500008679926,192.55499984137714,187.34499998390675,181.98499991558492,160.61500017531216],"keys_pressed":["leftarrow","leftarrow","rightarrow","leftarrow","rightarrow","rightarrow","rightarrow","rightarrow","rightarrow","rightarrow"],"horizon":10,"forced_choices":["leftarrow","leftarrow","rightarrow","leftarrow"],"right_color":"lightblue","left_color":"orange","left_mu":60,"right_mu":90,"left_numbers":[65,63,51,63,65,52,62,60,54,60],"right_numbers":[89,99,93,90,110,94,84,92,82,94],"points_earned":840,"phase":"task","trial_type":"horizons-task","trial_index":57,"time_elapsed":660976,"internal_node_id":"0.0-53.0","task_version":"0.2"},{"response_times":[614.2599999438971,484.33500016108155,743.1299998424947,519.9800000991672,599.3500000331551],"keys_pressed":["leftarrow","rightarrow","rightarrow","rightarrow","rightarrow"],"horizon":5,"forced_choices":["leftarrow","rightarrow","rightarrow","rightarrow"],"right_color":"orange","left_color":"lightblue","left_mu":60,"right_mu":72,"left_numbers":[53,51,69,47,50],"right_numbers":[85,70,80,76,65],"points_earned":344,"phase":"task","trial_type":"horizons-task","trial_index":58,"time_elapsed":665444,"internal_node_id":"0.0-54.0","task_version":"0.2"},{"response_times":[643.0399999953806,530.8350000996143,414.4550000783056,381.0999998822808,1009.4099999405444],"keys_pressed":["leftarrow","leftarrow","rightarrow","rightarrow","rightarrow"],"horizon":5,"forced_choices":["leftarrow","leftarrow","rightarrow","rightarrow"],"right_color":"lightblue","left_color":"orange","left_mu":40,"right_mu":52,"left_numbers":[31,25,42,39,34],"right_numbers":[50,51,56,39,56],"points_earned":207,"phase":"task","trial_type":"horizons-task","trial_index":59,"time_elapsed":669929,"internal_node_id":"0.0-55.0","task_version":"0.2"},{"response_times":[604.2949999682605,377.39999988116324,351.1350001208484,601.5299998689443,356.7699999548495,1213.465000037104,1236.8199999909848,651.3549999799579,5319.059999892488,343.38500001467764],"keys_pressed":["leftarrow","leftarrow","leftarrow","rightarrow","rightarrow","leftarrow","leftarrow","leftarrow","leftarrow","leftarrow"],"horizon":10,"forced_choices":["leftarrow","leftarrow","leftarrow","rightarrow"],"right_color":"orange","left_color":"lightblue","left_mu":40,"right_mu":44,"left_numbers":[57,29,44,33,37,49,69,45,58,55],"right_numbers":[54,45,38,46,45,37,42,45,44,44],"points_earned":497,"phase":"task","trial_type":"horizons-task","trial_index":60,"time_elapsed":682489,"internal_node_id":"0.0-56.0","task_version":"0.2"},{"response_times":[966.5400001686066,392.99000008031726,493.3750000782311,737.2850000392646,1048.2149999588728,458.5550001356751,223.11999998055398,213.46499980427325,113.4549998678267,185.48500002361834],"keys_pressed":["leftarrow","rightarrow","rightarrow","rightarrow","rightarrow","rightarrow","rightarrow","rightarrow","rightarrow","rightarrow"],"horizon":10,"forced_choices":["leftarrow","rightarrow","rightarrow","rightarrow"],"right_color":"orange","left_color":"lightblue","left_mu":60,"right_mu":80,"left_numbers":[54,48,47,55,64,53,57,58,60,62],"right_numbers":[72,85,79,83,80,78,87,72,92,78],"points_earned":788,"phase":"task","trial_type":"horizons-task","trial_index":61,"time_elapsed":688825,"internal_node_id":"0.0-57.0","task_version":"0.2"},{"response_times":[635.8649998437613,361.2849998753518,694.4949999451637,721.9200001563877,2692.659999942407],"keys_pressed":["leftarrow","rightarrow","leftarrow","rightarrow","leftarrow"],"horizon":5,"forced_choices":["leftarrow","rightarrow","leftarrow","rightarrow"],"right_color":"orange","left_color":"lightblue","left_mu":60,"right_mu":64,"left_numbers":[71,54,48,63,61],"right_numbers":[60,57,39,65,62],"points_earned":302,"phase":"task","trial_type":"horizons-task","trial_index":62,"time_elapsed":695437,"internal_node_id":"0.0-58.0","task_version":"0.2"},{"response_times":[596.0949999280274,723.7849999219179,578.5499999765307,373.0399999767542,1402.6300001423806,791.0599999595433,1402.1250000223517,467.0250001363456,593.3149999473244,274.32999992743134],"keys_pressed":["leftarrow","leftarrow","rightarrow","rightarrow","rightarrow","leftarrow","leftarrow","rightarrow","leftarrow","leftarrow"],"horizon":10,"forced_choices":["leftarrow","leftarrow","rightarrow","rightarrow"],"right_color":"lightblue","left_color":"orange","left_mu":40,"right_mu":52,"left_numbers":[33,43,43,42,42,44,62,44,41,53],"right_numbers":[37,58,50,60,41,43,49,48,52,53],"points_earned":475,"phase":"task","trial_type":"horizons-task","trial_index":63,"time_elapsed":704143,"internal_node_id":"0.0-59.0","task_version":"0.2"},{"response_times":[828.6250000819564,452.90999999269843,733.7799998931587,523.1399999465793,686.310000019148,878.8950000889599,377.36500008031726,258.8150000665337,232.00000007636845,210.14499990269542],"keys_pressed":["leftarrow","rightarrow","rightarrow","rightarrow","rightarrow","rightarrow","rightarrow","rightarrow","rightarrow","rightarrow"],"horizon":10,"forced_choices":["leftarrow","rightarrow","rightarrow","rightarrow"],"right_color":"orange","left_color":"lightblue","left_mu":60,"right_mu":72,"left_numbers":[60,63,59,49,50,39,57,61,58,66],"right_numbers":[71,75,75,84,60,76,72,67,78,65],"points_earned":712,"phase":"task","trial_type":"horizons-task","trial_index":64,"time_elapsed":710831,"internal_node_id":"0.0-60.0","task_version":"0.2"},{"response_times":[624.7100001201034,527.5749999564141,438.97000001743436,728.3700001426041,514.9799999780953],"keys_pressed":["leftarrow","leftarrow","rightarrow","leftarrow","rightarrow"],"horizon":5,"forced_choices":["leftarrow","leftarrow","rightarrow","leftarrow"],"right_color":"lightblue","left_color":"orange","left_mu":60,"right_mu":90,"left_numbers":[69,51,66,64,62],"right_numbers":[86,103,89,96,74],"points_earned":347,"phase":"task","trial_type":"horizons-task","trial_index":65,"time_elapsed":715172,"internal_node_id":"0.0-61.0","task_version":"0.2"},{"response_times":[617.6700000651181,451.4300001319498,450.98500000312924,884.8050001543015,465.3099998831749,642.5600000657141,217.53499982878566,167.17000002972782,119.50000002980232,245.2350000385195],"keys_pressed":["leftarrow","leftarrow","rightarrow","leftarrow","rightarrow","rightarrow","rightarrow","rightarrow","rightarrow","rightarrow"],"horizon":10,"forced_choices":["leftarrow","leftarrow","rightarrow","leftarrow"],"right_color":"orange","left_color":"lightblue","left_mu":40,"right_mu":70,"left_numbers":[37,47,47,42,40,42,43,41,31,48],"right_numbers":[59,65,70,71,74,70,77,76,60,56],"points_earned":609,"phase":"task","trial_type":"horizons-task","trial_index":66,"time_elapsed":720939,"internal_node_id":"0.0-62.0","task_version":"0.2"},{"response_times":[600.1800000667572,399.6599998790771,504.45500016212463,623.1750000733882,609.144999878481,766.0850000102073,681.4600001089275,471.9849999528378,462.4350001104176,195.63500001095235],"keys_pressed":["leftarrow","rightarrow","leftarrow","leftarrow","rightarrow","rightarrow","leftarrow","rightarrow","rightarrow","rightarrow"],"horizon":10,"forced_choices":["leftarrow","rightarrow","leftarrow","leftarrow"],"right_color":"lightblue","left_color":"orange","left_mu":40,"right_mu":52,"left_numbers":[41,36,25,49,44,57,35,46,35,27],"right_numbers":[55,55,58,51,46,40,41,69,62,51],"points_earned":473,"phase":"task","trial_type":"horizons-task","trial_index":67,"time_elapsed":727756,"internal_node_id":"0.0-63.0","task_version":"0.2"},{"response_times":[622.1149999182671,402.16500009410083,1444.999999832362,527.4900000076741,643.9950000494719,1058.7249998934567,214.9050000589341,257.29999993927777,227.92499978095293,204.06999997794628],"keys_pressed":["leftarrow","rightarrow","rightarrow","leftarrow","leftarrow","leftarrow","leftarrow","leftarrow","leftarrow","leftarrow"],"horizon":10,"forced_choices":["leftarrow","rightarrow","rightarrow","leftarrow"],"right_color":"lightblue","left_color":"orange","left_mu":40,"right_mu":20,"left_numbers":[45,42,55,38,45,40,15,31,47,35],"right_numbers":[27,18,5,26,21,33,20,23,17,32],"points_earned":319,"phase":"task","trial_type":"horizons-task","trial_index":68,"time_elapsed":734866,"internal_node_id":"0.0-64.0","task_version":"0.2"},{"response_times":[669.0650000236928,456.8199999630451,956.9449999835342,546.0450001992285,1575.609999941662,550.2949999645352,500.95000001601875,239.62999996729195,202.71499990485609,202.2149998228997],"keys_pressed":["rightarrow","rightarrow","rightarrow","leftarrow","leftarrow","rightarrow","leftarrow","leftarrow","leftarrow","leftarrow"],"horizon":10,"forced_choices":["rightarrow","rightarrow","rightarrow","leftarrow"],"right_color":"lightblue","left_color":"orange","left_mu":40,"right_mu":20,"left_numbers":[40,52,50,32,46,51,54,40,33,41],"right_numbers":[19,31,27,0,20,35,5,19,13,28],"points_earned":358,"phase":"task","trial_type":"horizons-task","trial_index":69,"time_elapsed":742273,"internal_node_id":"0.0-65.0","task_version":"0.2"},{"response_times":[665.0600000284612,679.2200000490993,510.634999955073,557.024999987334,736.8700001388788],"keys_pressed":["leftarrow","leftarrow","leftarrow","rightarrow","leftarrow"],"horizon":5,"forced_choices":["leftarrow","leftarrow","leftarrow","rightarrow"],"right_color":"orange","left_color":"lightblue","left_mu":40,"right_mu":44,"left_numbers":[37,59,31,34,39],"right_numbers":[47,34,43,38,45],"points_earned":204,"phase":"task","trial_type":"horizons-task","trial_index":70,"time_elapsed":746926,"internal_node_id":"0.0-66.0","task_version":"0.2"},{"response_times":[546.6650000307709,344.01499992236495,644.6499999146909,655.9600001201034,725.2599999774247,528.8849999196827,210.21499997004867,197.63500010594726,191.1500000860542,198.94999987445772],"keys_pressed":["rightarrow","rightarrow","leftarrow","rightarrow","leftarrow","rightarrow","rightarrow","rightarrow","rightarrow","rightarrow"],"horizon":10,"forced_choices":["rightarrow","rightarrow","leftarrow","rightarrow"],"right_color":"orange","left_color":"lightblue","left_mu":40,"right_mu":60,"left_numbers":[52,38,46,19,51,40,44,50,43,37],"right_numbers":[56,61,62,60,75,66,61,57,72,60],"points_earned":590,"phase":"task","trial_type":"horizons-task","trial_index":71,"time_elapsed":752675,"internal_node_id":"0.0-67.0","task_version":"0.2"},{"response_times":[674.6150001417845,467.9350000806153,497.2449999768287,399.71500006504357,503.9400001987815],"keys_pressed":["rightarrow","rightarrow","leftarrow","leftarrow","rightarrow"],"horizon":5,"forced_choices":["rightarrow","rightarrow","leftarrow","leftarrow"],"right_color":"orange","left_color":"lightblue","left_mu":40,"right_mu":60,"left_numbers":[38,42,38,36,56],"right_numbers":[64,62,64,63,66],"points_earned":266,"phase":"task","trial_type":"horizons-task","trial_index":72,"time_elapsed":756722,"internal_node_id":"0.0-68.0","task_version":"0.2"},{"response_times":[607.0250000339001,400.35499981604517,455.8550000656396,390.5350000131875,645.2450000215322,1549.4299998972565,824.5850000530481,188.1949999369681,179.79500000365078,153.77500001341105],"keys_pressed":["leftarrow","rightarrow","leftarrow","rightarrow","leftarrow","rightarrow","rightarrow","rightarrow","rightarrow","rightarrow"],"horizon":10,"forced_choices":["leftarrow","rightarrow","leftarrow","rightarrow"],"right_color":"orange","left_color":"lightblue","left_mu":60,"right_mu":64,"left_numbers":[63,73,73,53,54,44,61,61,62,61],"right_numbers":[59,69,61,74,67,68,56,63,65,48],"points_earned":633,"phase":"task","trial_type":"horizons-task","trial_index":73,"time_elapsed":763623,"internal_node_id":"0.0-69.0","task_version":"0.2"},{"response_times":[641.6650000028312,396.44000004045665,910.8849999029189,737.290000077337,1202.3849999532104],"keys_pressed":["leftarrow","rightarrow","leftarrow","leftarrow","leftarrow"],"horizon":5,"forced_choices":["leftarrow","rightarrow","leftarrow","leftarrow"],"right_color":"orange","left_color":"lightblue","left_mu":60,"right_mu":48,"left_numbers":[56,65,47,40,52],"right_numbers":[31,35,52,49,47],"points_earned":230,"phase":"task","trial_type":"horizons-task","trial_index":74,"time_elapsed":769019,"internal_node_id":"0.0-70.0","task_version":"0.2"},{"response_times":[529.3650000821799,403.954999987036,1130.739999935031,629.7049999702722,5665.244999807328,545.9099998697639,534.5300000626594,554.024999961257,733.8749999180436,609.7000001464039],"keys_pressed":["rightarrow","leftarrow","leftarrow","rightarrow","rightarrow","leftarrow","rightarrow","leftarrow","rightarrow","rightarrow"],"horizon":10,"forced_choices":["rightarrow","leftarrow","leftarrow","rightarrow"],"right_color":"orange","left_color":"lightblue","left_mu":40,"right_mu":44,"left_numbers":[44,42,38,30,41,36,43,43,40,35],"right_numbers":[46,50,44,38,34,37,47,62,44,51],"points_earned":419,"phase":"task","trial_type":"horizons-task","trial_index":75,"time_elapsed":781862,"internal_node_id":"0.0-71.0","task_version":"0.2"},{"response_times":[521.2399999145418,447.2199999727309,499.2649999912828,515.1049999985844,670.4800000879914,213.63000012934208,203.20999994874,1137.6749998889863,196.06999983079731,218.09000009670854],"keys_pressed":["rightarrow","leftarrow","rightarrow","leftarrow","rightarrow","rightarrow","rightarrow","rightarrow","rightarrow","rightarrow"],"horizon":10,"forced_choices":["rightarrow","leftarrow","rightarrow","leftarrow"],"right_color":"orange","left_color":"lightblue","left_mu":60,"right_mu":80,"left_numbers":[57,54,61,64,66,58,58,58,58,60],"right_numbers":[78,69,81,68,85,90,77,71,72,67],"points_earned":739,"phase":"task","trial_type":"horizons-task","trial_index":76,"time_elapsed":787989,"internal_node_id":"0.0-72.0","task_version":"0.2"},{"response_times":[1099.1199999116361,401.66500001214445,554.3549999129027,496.85500003397465,482.3300000280142,273.8399999216199,150.93500004149973,222.38000016659498,206.49500004947186,222.1150000113994],"keys_pressed":["leftarrow","rightarrow","rightarrow","leftarrow","rightarrow","rightarrow","rightarrow","rightarrow","rightarrow","rightarrow"],"horizon":10,"forced_choices":["leftarrow","rightarrow","rightarrow","leftarrow"],"right_color":"orange","left_color":"lightblue","left_mu":60,"right_mu":72,"left_numbers":[58,54,62,60,70,78,66,60,67,69],"right_numbers":[75,80,75,70,74,81,71,83,71,65],"points_earned":718,"phase":"task","trial_type":"horizons-task","trial_index":77,"time_elapsed":793606,"internal_node_id":"0.0-73.0","task_version":"0.2"},{"response_times":[734.4100000336766,479.80500012636185,498.3349998947233,606.6950000822544,619.040000019595],"keys_pressed":["rightarrow","rightarrow","leftarrow","rightarrow","rightarrow"],"horizon":5,"forced_choices":["rightarrow","rightarrow","leftarrow","rightarrow"],"right_color":"lightblue","left_color":"orange","left_mu":40,"right_mu":48,"left_numbers":[44,45,38,41,36],"right_numbers":[54,45,45,54,41],"points_earned":232,"phase":"task","trial_type":"horizons-task","trial_index":78,"time_elapsed":798049,"internal_node_id":"0.0-74.0","task_version":"0.2"},{"response_times":[793.390000006184,657.9950000159442,431.97000003419816,820.9900001529604,509.4649998936802],"keys_pressed":["rightarrow","rightarrow","leftarrow","leftarrow","rightarrow"],"horizon":5,"forced_choices":["rightarrow","rightarrow","leftarrow","leftarrow"],"right_color":"lightblue","left_color":"orange","left_mu":60,"right_mu":90,"left_numbers":[65,59,67,47,45],"right_numbers":[89,90,86,91,96],"points_earned":389,"phase":"task","trial_type":"horizons-task","trial_index":79,"time_elapsed":802769,"internal_node_id":"0.0-75.0","task_version":"0.2"},{"response_times":[639.7049999795854,363.31499996595085,606.7350001540035,433.06499999016523,586.3050001207739],"keys_pressed":["rightarrow","leftarrow","leftarrow","rightarrow","leftarrow"],"horizon":5,"forced_choices":["rightarrow","leftarrow","leftarrow","rightarrow"],"right_color":"orange","left_color":"lightblue","left_mu":40,"right_mu":44,"left_numbers":[50,40,48,32,40],"right_numbers":[38,45,47,38,41],"points_earned":204,"phase":"task","trial_type":"horizons-task","trial_index":80,"time_elapsed":806904,"internal_node_id":"0.0-76.0","task_version":"0.2"},{"response_times":[576.6499999444932,400.24999994784594,558.8900002185255,502.0200000144541,710.410000057891],"keys_pressed":["rightarrow","leftarrow","leftarrow","leftarrow","leftarrow"],"horizon":5,"forced_choices":["rightarrow","leftarrow","leftarrow","leftarrow"],"right_color":"orange","left_color":"lightblue","left_mu":40,"right_mu":10,"left_numbers":[34,25,38,41,27],"right_numbers":[19,14,6,0,10],"points_earned":150,"phase":"task","trial_type":"horizons-task","trial_index":81,"time_elapsed":811156,"internal_node_id":"0.0-77.0","task_version":"0.2"},{"response_times":[644.4600000977516,378.0499999411404,420.0999999884516,414.9650000035763,518.1100000627339],"keys_pressed":["leftarrow","rightarrow","leftarrow","rightarrow","leftarrow"],"horizon":5,"forced_choices":["leftarrow","rightarrow","leftarrow","rightarrow"],"right_color":"lightblue","left_color":"orange","left_mu":40,"right_mu":32,"left_numbers":[50,39,57,38,57],"right_numbers":[37,25,21,38,29],"points_earned":227,"phase":"task","trial_type":"horizons-task","trial_index":82,"time_elapsed":815038,"internal_node_id":"0.0-78.0","task_version":"0.2"},{"response_times":[645.5350001342595,3801.285000052303,645.3549999278039,440.70499995723367,1282.5150000862777,729.1900001000613,6282.769999932498,439.57499996759,231.77000018768013,197.96000001952052],"keys_pressed":["rightarrow","leftarrow","leftarrow","leftarrow","rightarrow","rightarrow","rightarrow","rightarrow","rightarrow","rightarrow"],"horizon":10,"forced_choices":["rightarrow","leftarrow","leftarrow","leftarrow"],"right_color":"orange","left_color":"lightblue","left_mu":60,"right_mu":68,"left_numbers":[64,62,67,50,50,53,45,65,61,63],"right_numbers":[57,67,67,67,77,63,73,70,60,62],"points_earned":641,"phase":"task","trial_type":"horizons-task","trial_index":83,"time_elapsed":831244,"internal_node_id":"0.0-79.0","task_version":"0.2"},{"response_times":[658.1699999514967,356.1150000896305,643.1350000202656,778.6449999548495,559.1049999929965],"keys_pressed":["rightarrow","leftarrow","leftarrow","rightarrow","leftarrow"],"horizon":5,"forced_choices":["rightarrow","leftarrow","leftarrow","rightarrow"],"right_color":"orange","left_color":"lightblue","left_mu":60,"right_mu":48,"left_numbers":[57,70,74,71,66],"right_numbers":[47,42,51,45,52],"points_earned":302,"phase":"task","trial_type":"horizons-task","trial_index":84,"time_elapsed":835744,"internal_node_id":"0.0-80.0","task_version":"0.2"},{"response_times":[751.105000032112,360.029999865219,459.25000007264316,1218.1750000454485,537.1850000228733],"keys_pressed":["leftarrow","rightarrow","leftarrow","rightarrow","rightarrow"],"horizon":5,"forced_choices":["leftarrow","rightarrow","leftarrow","rightarrow"],"right_color":"orange","left_color":"lightblue","left_mu":40,"right_mu":70,"left_numbers":[49,35,47,41,42],"right_numbers":[61,51,62,60,69],"points_earned":276,"phase":"task","trial_type":"horizons-task","trial_index":85,"time_elapsed":840573,"internal_node_id":"0.0-81.0","task_version":"0.2"},{"response_times":[677.3250000551343,618.0500001646578,586.3499999977648,414.3700001295656,890.6449999194592],"keys_pressed":["rightarrow","rightarrow","rightarrow","leftarrow","rightarrow"],"horizon":5,"forced_choices":["rightarrow","rightarrow","rightarrow","leftarrow"],"right_color":"lightblue","left_color":"orange","left_mu":40,"right_mu":32,"left_numbers":[53,45,16,21,46],"right_numbers":[19,30,28,31,38],"points_earned":136,"phase":"task","trial_type":"horizons-task","trial_index":86,"time_elapsed":845264,"internal_node_id":"0.0-82.0","task_version":"0.2"},{"response_times":[653.6199999973178,286.45500005222857,489.8099999409169,307.3350000195205,4215.709999902174,568.7249999027699,602.0849999040365,179.14999998174608,298.5600000247359,195.19499992020428],"keys_pressed":["leftarrow","rightarrow","leftarrow","rightarrow","leftarrow","leftarrow","leftarrow","leftarrow","leftarrow","leftarrow"],"horizon":10,"forced_choices":["leftarrow","rightarrow","leftarrow","rightarrow"],"right_color":"orange","left_color":"lightblue","left_mu":60,"right_mu":68,"left_numbers":[71,69,60,56,60,63,61,44,63,71],"right_numbers":[84,64,59,57,58,65,75,67,68,71],"points_earned":614,"phase":"task","trial_type":"horizons-task","trial_index":87,"time_elapsed":854566,"internal_node_id":"0.0-83.0","task_version":"0.2"},{"response_times":[595.3049999661744,383.4900001529604,320.04500017501414,450.7049999665469,297.7100000716746,423.41999989002943,1505.5299999658018,562.2950000688434,726.7950000241399,175.844999961555],"keys_pressed":["leftarrow","leftarrow","leftarrow","rightarrow","rightarrow","rightarrow","leftarrow","leftarrow","leftarrow","leftarrow"],"horizon":10,"forced_choices":["leftarrow","leftarrow","leftarrow","rightarrow"],"right_color":"lightblue","left_color":"orange","left_mu":60,"right_mu":56,"left_numbers":[49,49,59,77,73,73,73,60,59,70],"right_numbers":[60,58,38,56,44,62,58,58,61,73],"points_earned":581,"phase":"task","trial_type":"horizons-task","trial_index":88,"time_elapsed":861509,"internal_node_id":"0.0-84.0","task_version":"0.2"},{"response_times":[656.8350000306964,374.34000009670854,546.3349998462945,824.0449998993427,979.1550000663847,408.33000000566244,270.0500001665205,221.61500016227365,185.0550000090152,219.99499993398786],"keys_pressed":["rightarrow","leftarrow","leftarrow","rightarrow","leftarrow","leftarrow","leftarrow","leftarrow","leftarrow","leftarrow"],"horizon":10,"forced_choices":["rightarrow","leftarrow","leftarrow","rightarrow"],"right_color":"lightblue","left_color":"orange","left_mu":60,"right_mu":52,"left_numbers":[69,71,63,49,67,75,45,67,59,60],"right_numbers":[47,38,52,33,59,63,60,42,47,52],"points_earned":587,"phase":"task","trial_type":"horizons-task","trial_index":89,"time_elapsed":867709,"internal_node_id":"0.0-85.0","task_version":"0.2"},{"response_times":[619.2499999888241,425.6100000347942,483.4149999078363,469.6899999398738,423.4749998431653],"keys_pressed":["rightarrow","rightarrow","leftarrow","leftarrow","leftarrow"],"horizon":5,"forced_choices":["rightarrow","rightarrow","leftarrow","leftarrow"],"right_color":"lightblue","left_color":"orange","left_mu":60,"right_mu":30,"left_numbers":[51,51,61,62,77],"right_numbers":[29,28,24,30,30],"points_earned":257,"phase":"task","trial_type":"horizons-task","trial_index":90,"time_elapsed":871635,"internal_node_id":"0.0-86.0","task_version":"0.2"},{"response_times":[897.0650001429021,511.3450000062585,576.3099999167025,743.6049999669194,2179.1550000198185],"keys_pressed":["rightarrow","leftarrow","leftarrow","leftarrow","rightarrow"],"horizon":5,"forced_choices":["rightarrow","leftarrow","leftarrow","leftarrow"],"right_color":"lightblue","left_color":"orange","left_mu":40,"right_mu":28,"left_numbers":[40,25,57,44,63],"right_numbers":[33,34,34,30,51],"points_earned":210,"phase":"task","trial_type":"horizons-task","trial_index":91,"time_elapsed":878045,"internal_node_id":"0.0-87.0","task_version":"0.2"},{"rt":13336.914999876171,"responses":{"age":"22","gender-categorical":"Female","gender-free-response":"","ethnicity":"Not Hispanic or Latino","race":["Asian"],"language":"No","fluency":"Well"},"survey":"demographics","trial_type":"survey-demo","trial_index":92,"time_elapsed":891388,"internal_node_id":"0.0-88.0","task_version":"0.2"},{"rt":35737.84999991767,"responses":{"difficulty":"3","fun":"4","clarity":"5","strategy":"average the existing numbers","feedback":""},"survey":"debrief","trial_type":"survey-debrief","trial_index":93,"time_elapsed":927131,"internal_node_id":"0.0-89.0","task_version":"0.2","interactions":"[{\"event\":\"blur\",\"trial\":1,\"time\":10333},{\"event\":\"focus\",\"trial\":1,\"time\":15135},{\"event\":\"blur\",\"trial\":1,\"time\":18160},{\"event\":\"focus\",\"trial\":1,\"time\":22543},{\"event\":\"blur\",\"trial\":1,\"time\":22560},{\"event\":\"focus\",\"trial\":1,\"time\":22997},{\"event\":\"blur\",\"trial\":1,\"time\":23004},{\"event\":\"focus\",\"trial\":1,\"time\":23386},{\"event\":\"blur\",\"trial\":1,\"time\":23403},{\"event\":\"focus\",\"trial\":1,\"time\":66044},{\"event\":\"blur\",\"trial\":18,\"time\":376902},{\"event\":\"focus\",\"trial\":18,\"time\":380803},{\"event\":\"blur\",\"trial\":60,\"time\":675810},{\"event\":\"focus\",\"trial\":60,\"time\":680024},{\"event\":\"blur\",\"trial\":75,\"time\":773828},{\"event\":\"focus\",\"trial\":75,\"time\":776814},{\"event\":\"blur\",\"trial\":83,\"time\":815995},{\"event\":\"focus\",\"trial\":83,\"time\":818868},{\"event\":\"blur\",\"trial\":83,\"time\":823599},{\"event\":\"focus\",\"trial\":83,\"time\":826370},{\"event\":\"blur\",\"trial\":87,\"time\":847952},{\"event\":\"focus\",\"trial\":87,\"time\":850472},{\"event\":\"blur\",\"trial\":92,\"time\":889004},{\"event\":\"focus\",\"trial\":92,\"time\":890015},{\"event\":\"blur\",\"trial\":93,\"time\":893283},{\"event\":\"focus\",\"trial\":93,\"time\":895833},{\"event\":\"blur\",\"trial\":93,\"time\":898155},{\"event\":\"focus\",\"trial\":93,\"time\":902327}]"}]