[{"view_history":"[{\"page_index\":0,\"viewing_time\":4931.304999976419}]","rt":4934.955000062473,"trial_type":"instructions","trial_index":0,"time_elapsed":4976,"internal_node_id":"0.0-0.0","task_version":"0.2"},{"item_order":[10,12,14,11,7,8,3,15,5,13,1,9,2,4,6,0],"responses":{"Q11":"5","Q13":"4","Q15":"4","Q12":"5","Q08":"3","Q09":"3","Q04":"2","Q16":"5","Q06":"4","Q14":"0","Q02":"4","Q10":"5","Q03":"3","Q05":"4","Q07":"3","Q01":"4"},"radio_events":[6120.285000069998,6546.115000033751,9335.365000064485,17852.150000049733,19191.910000052303,26317.544999998063,31832.40499999374,36177.050000056624,38932.46999999974,67799.71500008833,72605.18000007141,76463.78500002902,82148.86499999557,85134.1099999845,90623.0050000595,94498.75500006601,99939.97000006493,102093.94000004977],"key_events":[],"mouse_events":[16.275000059977174,6120.285000069998,6546.115000033751,9335.365000064485,13379.24500007648,17852.150000049733,19191.910000052303,26317.544999998063,31832.40499999374,36177.050000056624,37540.93999997713,37567.61999998707,37877.70499999169,37916.50000005029,38932.46999999974,67799.71500008833,72605.18000007141,76463.78500002902,82148.86499999557,85134.1099999845,90623.0050000595,94498.75500006601,99939.97000006493,102093.94000004977,102982.29000007268],"rt":103003.86000005528,"survey":"nfc","trial_type":"survey-template","trial_index":1,"time_elapsed":108013,"internal_node_id":"0.0-1.0","task_version":"0.2"},{"item_order":[3,12,1,6,0,2,9,4,8,11,10,5,7],"responses":{"Q04":"3","Q13":"4","Q02":"2","Q07":"2","Q01":"3","Q03":"1","Q10":"1","Q05":"2","Q09":"2","Q12":"1","Q11":"3","Q06":"0","Q08":"3"},"radio_events":[11293.9100000076,12687.529999995604,17922.520000021905,18915.625000023283,20963.050000020303,24729.70999998506,27753.625000012107,33274.124999996275,40696.52500003576,41124.44000004325,45307.449999963865,46346.7299999902,51704.76500003133,55202.81499996781,62997.6350000361,66420.22500000894],"key_events":[],"mouse_events":[7739.419999998063,10451.929999981076,11293.9100000076,12687.529999995604,17922.520000021905,18915.625000023283,20963.050000020303,24729.70999998506,26379.225000040606,27753.625000012107,33274.124999996275,40696.52500003576,41124.44000004325,43238.64999995567,45307.449999963865,46346.7299999902,50546.66500003077,51704.76500003133,55202.81499996781,62997.6350000361,66420.22500000894,67698.5449999338],"rt":67710.89500002563,"survey":"ius12","trial_type":"survey-template","trial_index":2,"time_elapsed":175748,"internal_node_id":"0.0-2.0","task_version":"0.2"},{"item_order":[10,4,6,7,0,2,9,11,12,15,3,13,16,1,14,8,5],"responses":{"Q11":"3","Q05":"3","Q07":"0","Q08":"3","Q01":"2","Q03":"4","Q10":"4","Q12":"1","Q13":"2","Q16":"4","Q04":"1","Q14":"1","Q17":"0","Q02":"1","Q15":"1","Q09":"4","Q06":"3"},"radio_events":[18433.37999994401,25180.724999983795,31261.58499997109,34674.460000009276,35127.5499999756,42341.505000018515,46953.14999995753,47820.56999998167,58477.124999975786,61698.30000004731,71939.82500000857,74853.78999996465,75326.01499999873,76996.20000005234,79870.64500001725,86462.29000005405,93038.93499996047,94908.07000000495,97587.44499995373],"key_events":[],"mouse_events":[18433.37999994401,25180.724999983795,31261.58499997109,34674.460000009276,35127.5499999756,42341.505000018515,44355.699999956414,45071.86499994714,45092.59000001475,45641.99999999255,46953.14999995753,47820.56999998167,52887.31000002008,58477.124999975786,61698.30000004731,71939.82500000857,73511.90499996301,74853.78999996465,75326.01499999873,76996.20000005234,79870.64500001725,86462.29000005405,87996.0349999601,93038.93499996047,94908.07000000495,97587.44499995373,98798.23499999475],"rt":98813.92999994569,"survey":"pswq","trial_type":"survey-template","trial_index":3,"time_elapsed":274589,"internal_node_id":"0.0-3.0","task_version":"0.2"},{"view_history":"[{\"page_index\":0,\"viewing_time\":8214.879999984987},{\"page_index\":1,\"viewing_time\":6533.404999994673},{\"page_index\":2,\"viewing_time\":7851.25499998685},{\"page_index\":3,\"viewing_time\":7228.105000103824},{\"page_index\":4,\"viewing_time\":7926.734999986365},{\"page_index\":5,\"viewing_time\":5361.425000010058},{\"page_index\":6,\"viewing_time\":6377.314999932423},{\"page_index\":7,\"viewing_time\":81721.33500000928},{\"page_index\":8,\"viewing_time\":5353.370000026189},{\"page_index\":9,\"viewing_time\":8039.624999975786}]","rt":144609.53500005417,"trial_type":"instructions","trial_index":4,"time_elapsed":419206,"internal_node_id":"0.0-4.0-0.0","task_version":"0.2"},{"response_times":[1903.0300000449643,1052.2199999541044,744.3150000181049,719.4450000533834,1919.9449999723583],"keys_pressed":["rightarrow","leftarrow","rightarrow","rightarrow","rightarrow"],"horizon":5,"forced_choices":["rightarrow","leftarrow","rightarrow","rightarrow"],"right_color":"lightblue","left_color":"orange","left_mu":40,"right_mu":20,"left_numbers":[46,23,27,33,29],"right_numbers":[27,19,15,19,18],"points_earned":102,"phase":"practice","trial_type":"horizons-task","trial_index":5,"time_elapsed":427091,"internal_node_id":"0.0-4.0-1.0","task_version":"0.2"},{"response_times":[1220.8200000459328,1624.9400000087917,1015.7149999868125,894.5750000420958,2664.1399998916313,1384.5899999141693,1255.349999992177,920.7199999364093,781.7900000372902,633.3700000541285],"keys_pressed":["leftarrow","leftarrow","rightarrow","rightarrow","rightarrow","rightarrow","rightarrow","rightarrow","rightarrow","rightarrow"],"horizon":10,"forced_choices":["leftarrow","leftarrow","rightarrow","rightarrow"],"right_color":"orange","left_color":"lightblue","left_mu":60,"right_mu":70,"left_numbers":[39,59,54,63,55,64,54,59,74,51],"right_numbers":[78,67,75,74,65,93,61,73,76,68],"points_earned":683,"phase":"practice","trial_type":"horizons-task","trial_index":6,"time_elapsed":441002,"internal_node_id":"0.0-4.0-2.0","task_version":"0.2"},{"view_history":"[{\"page_index\":0,\"viewing_time\":3991.4049999788404},{\"page_index\":1,\"viewing_time\":4309.469999978319},{\"page_index\":2,\"viewing_time\":5110.480000032112},{\"page_index\":3,\"viewing_time\":4160.6149999424815}]","rt":17573.974999948405,"trial_type":"instructions","trial_index":7,"time_elapsed":458578,"internal_node_id":"0.0-4.0-3.0","task_version":"0.2"},{"responses":["true","false","true"],"num_errors":0,"rt":13723.37499994319,"trial_type":"horizons-comprehension","trial_index":8,"time_elapsed":472315,"internal_node_id":"0.0-4.0-4.0","task_version":"0.2"},{"trial_type":"call-function","trial_index":9,"time_elapsed":472331,"internal_node_id":"0.0-5.0","task_version":"0.2"},{"view_history":"[{\"page_index\":0,\"viewing_time\":2474.545000004582},{\"page_index\":1,\"viewing_time\":5038.809999939986}]","rt":7518.084999988787,"trial_type":"instructions","trial_index":10,"time_elapsed":479851,"internal_node_id":"0.0-6.0","task_version":"0.2"},{"response_times":[2293.195000034757,654.3799999635667,704.314999980852,711.4750000182539,2488.240000093356],"keys_pressed":["rightarrow","rightarrow","leftarrow","rightarrow","rightarrow"],"horizon":5,"forced_choices":["rightarrow","rightarrow","leftarrow","rightarrow"],"right_color":"lightblue","left_color":"orange","left_mu":40,"right_mu":10,"left_numbers":[34,39,44,36,23],"right_numbers":[12,14,0,5,3],"points_earned":78,"phase":"task","trial_type":"horizons-task","trial_index":11,"time_elapsed":488246,"internal_node_id":"0.0-7.0","task_version":"0.2"},{"response_times":[812.5350000336766,983.6949999444187,703.7799999816343,576.4749998925254,1456.0800000326708],"keys_pressed":["rightarrow","leftarrow","leftarrow","leftarrow","leftarrow"],"horizon":5,"forced_choices":["rightarrow","leftarrow","leftarrow","leftarrow"],"right_color":"orange","left_color":"lightblue","left_mu":60,"right_mu":64,"left_numbers":[55,65,64,58,65],"right_numbers":[61,64,59,57,59],"points_earned":313,"phase":"task","trial_type":"horizons-task","trial_index":12,"time_elapsed":494293,"internal_node_id":"0.0-8.0","task_version":"0.2"},{"response_times":[975.8650000439957,623.6000000499189,687.8400000277907,991.9600000139326,2448.615000001155,919.385000015609,848.0499999132007,839.7499999264255,696.4999999618158,647.8450000286102],"keys_pressed":["rightarrow","rightarrow","leftarrow","leftarrow","rightarrow","rightarrow","rightarrow","rightarrow","rightarrow","rightarrow"],"horizon":10,"forced_choices":["rightarrow","rightarrow","leftarrow","leftarrow"],"right_color":"lightblue","left_color":"orange","left_mu":40,"right_mu":48,"left_numbers":[53,49,37,48,34,47,45,42,28,33],"right_numbers":[53,51,52,53,47,50,41,39,48,46],"points_earned":460,"phase":"task","trial_type":"horizons-task","trial_index":13,"time_elapsed":505485,"internal_node_id":"0.0-9.0","task_version":"0.2"},{"response_times":[1184.3250000383705,1216.080000041984,735.6050000526011,1112.0499999960884,1840.5750000383705],"keys_pressed":["leftarrow","leftarrow","rightarrow","leftarrow","leftarrow"],"horizon":5,"forced_choices":["leftarrow","leftarrow","rightarrow","leftarrow"],"right_color":"lightblue","left_color":"orange","left_mu":60,"right_mu":90,"left_numbers":[57,54,62,55,59],"right_numbers":[87,79,91,104,88],"points_earned":316,"phase":"task","trial_type":"horizons-task","trial_index":14,"time_elapsed":513086,"internal_node_id":"0.0-10.0","task_version":"0.2"},{"response_times":[912.4199999496341,686.8950000498444,728.6699999822304,615.6150000169873,2751.5849999617785,752.5299999397248,728.3549999119714,816.0849999403581,631.639999919571,534.8399999784306],"keys_pressed":["leftarrow","rightarrow","leftarrow","rightarrow","leftarrow","leftarrow","leftarrow","leftarrow","leftarrow","leftarrow"],"horizon":10,"forced_choices":["leftarrow","rightarrow","leftarrow","rightarrow"],"right_color":"orange","left_color":"lightblue","left_mu":60,"right_mu":40,"left_numbers":[54,66,60,69,61,53,48,54,66,60],"right_numbers":[46,46,44,53,33,37,30,9,37,41],"points_earned":555,"phase":"task","trial_type":"horizons-task","trial_index":15,"time_elapsed":523757,"internal_node_id":"0.0-11.0","task_version":"0.2"},{"response_times":[1241.3099999539554,663.5300000198185,751.7450000159442,687.4100000131875,1400.495000067167],"keys_pressed":["leftarrow","leftarrow","rightarrow","rightarrow","leftarrow"],"horizon":5,"forced_choices":["leftarrow","leftarrow","rightarrow","rightarrow"],"right_color":"orange","left_color":"lightblue","left_mu":60,"right_mu":48,"left_numbers":[60,62,68,66,55],"right_numbers":[41,49,48,52,56],"points_earned":277,"phase":"task","trial_type":"horizons-task","trial_index":16,"time_elapsed":530047,"internal_node_id":"0.0-12.0","task_version":"0.2"},{"response_times":[879.190000006929,623.3499998925254,616.6049999883398,632.1000000461936,1519.7950000874698],"keys_pressed":["leftarrow","rightarrow","leftarrow","rightarrow","rightarrow"],"horizon":5,"forced_choices":["leftarrow","rightarrow","leftarrow","rightarrow"],"right_color":"orange","left_color":"lightblue","left_mu":60,"right_mu":68,"left_numbers":[58,56,49,77,61],"right_numbers":[62,73,67,76,74],"points_earned":330,"phase":"task","trial_type":"horizons-task","trial_index":17,"time_elapsed":535829,"internal_node_id":"0.0-13.0","task_version":"0.2"},{"response_times":[937.0149999158457,1311.8450000183657,1399.8500000452623,839.8250000318512,2760.664999950677,927.4049999658018,703.8350000511855,592.1100000850856,503.78000002820045,487.97000001650304],"keys_pressed":["rightarrow","leftarrow","leftarrow","rightarrow","rightarrow","rightarrow","rightarrow","rightarrow","rightarrow","rightarrow"],"horizon":10,"forced_choices":["rightarrow","leftarrow","leftarrow","rightarrow"],"right_color":"lightblue","left_color":"orange","left_mu":40,"right_mu":52,"left_numbers":[47,30,50,31,45,36,47,35,41,22],"right_numbers":[55,58,61,50,43,50,51,53,65,34],"points_earned":481,"phase":"task","trial_type":"horizons-task","trial_index":18,"time_elapsed":547806,"internal_node_id":"0.0-14.0","task_version":"0.2"},{"response_times":[985.2649999083951,679.1550000198185,584.0399999869987,648.2250000117347,1535.355000058189],"keys_pressed":["leftarrow","rightarrow","rightarrow","leftarrow","rightarrow"],"horizon":5,"forced_choices":["leftarrow","rightarrow","rightarrow","leftarrow"],"right_color":"orange","left_color":"lightblue","left_mu":40,"right_mu":44,"left_numbers":[37,20,42,45,37],"right_numbers":[37,52,53,50,44],"points_earned":231,"phase":"task","trial_type":"horizons-task","trial_index":19,"time_elapsed":553749,"internal_node_id":"0.0-15.0","task_version":"0.2"},{"response_times":[1177.8149999445304,655.2000000374392,743.7200000276789,704.7700000694022,1631.3800000352785],"keys_pressed":["leftarrow","rightarrow","leftarrow","rightarrow","leftarrow"],"horizon":5,"forced_choices":["leftarrow","rightarrow","leftarrow","rightarrow"],"right_color":"lightblue","left_color":"orange","left_mu":40,"right_mu":10,"left_numbers":[48,38,32,28,34],"right_numbers":[4,12,25,0,9],"points_earned":126,"phase":"task","trial_type":"horizons-task","trial_index":20,"time_elapsed":560175,"internal_node_id":"0.0-16.0","task_version":"0.2"},{"response_times":[1600.124999997206,551.1300000362098,551.9900000654161,920.3449999913573,2335.7750000432134,495.9299999754876,448.3699999982491,416.0400000400841,375.51499996334314,392.3150000628084],"keys_pressed":["leftarrow","rightarrow","leftarrow","rightarrow","rightarrow","rightarrow","rightarrow","rightarrow","rightarrow","rightarrow"],"horizon":10,"forced_choices":["leftarrow","rightarrow","leftarrow","rightarrow"],"right_color":"orange","left_color":"lightblue","left_mu":60,"right_mu":68,"left_numbers":[54,60,63,57,53,80,61,61,64,75],"right_numbers":[63,65,59,73,63,67,77,67,73,58],"points_earned":660,"phase":"task","trial_type":"horizons-task","trial_index":21,"time_elapsed":569775,"internal_node_id":"0.0-17.0","task_version":"0.2"},{"response_times":[897.5550000322983,559.7500000149012,584.7250000806525,696.1450000526384,1726.9049999304116],"keys_pressed":["rightarrow","rightarrow","leftarrow","leftarrow","rightarrow"],"horizon":5,"forced_choices":["rightarrow","rightarrow","leftarrow","leftarrow"],"right_color":"orange","left_color":"lightblue","left_mu":40,"right_mu":70,"left_numbers":[38,41,34,36,45],"right_numbers":[72,75,69,77,76],"points_earned":293,"phase":"task","trial_type":"horizons-task","trial_index":22,"time_elapsed":575750,"internal_node_id":"0.0-18.0","task_version":"0.2"},{"response_times":[1273.3599999919534,567.5950000295416,615.7999999122694,503.9250000845641,2072.6100000320002,695.2850000234321,392.87499990314245,358.9249999495223,336.3849999150261,480.0800000084564],"keys_pressed":["leftarrow","rightarrow","leftarrow","rightarrow","leftarrow","leftarrow","leftarrow","leftarrow","leftarrow","leftarrow"],"horizon":10,"forced_choices":["leftarrow","rightarrow","leftarrow","rightarrow"],"right_color":"lightblue","left_color":"orange","left_mu":40,"right_mu":10,"left_numbers":[33,51,37,24,28,42,43,32,38,38],"right_numbers":[13,7,27,0,7,18,15,22,20,12],"points_earned":298,"phase":"task","trial_type":"horizons-task","trial_index":23,"time_elapsed":584560,"internal_node_id":"0.0-19.0","task_version":"0.2"},{"response_times":[944.2149999085814,520.810000016354,695.0349999824539,792.1199999982491,1239.8999999277294],"keys_pressed":["leftarrow","leftarrow","leftarrow","rightarrow","leftarrow"],"horizon":5,"forced_choices":["leftarrow","leftarrow","leftarrow","rightarrow"],"right_color":"orange","left_color":"lightblue","left_mu":60,"right_mu":48,"left_numbers":[51,73,59,53,78],"right_numbers":[30,46,48,46,58],"points_earned":307,"phase":"task","trial_type":"horizons-task","trial_index":24,"time_elapsed":590264,"internal_node_id":"0.0-20.0","task_version":"0.2"},{"response_times":[1040.4400000115857,682.0450000232086,686.9849999202415,807.1999999228865,2495.950000011362,392.22999999765307,311.6949999239296,296.15000006742775,287.60999999940395,335.6800000183284],"keys_pressed":["leftarrow","rightarrow","rightarrow","leftarrow","leftarrow","leftarrow","leftarrow","leftarrow","leftarrow","leftarrow"],"horizon":10,"forced_choices":["leftarrow","rightarrow","rightarrow","leftarrow"],"right_color":"orange","left_color":"lightblue","left_mu":40,"right_mu":28,"left_numbers":[51,46,61,42,43,30,28,28,38,42],"right_numbers":[47,33,25,33,34,6,23,22,25,34],"points_earned":360,"phase":"task","trial_type":"horizons-task","trial_index":25,"time_elapsed":599113,"internal_node_id":"0.0-21.0","task_version":"0.2"},{"response_times":[1056.929999962449,615.665000048466,632.1949999546632,544.0149999922141,2097.014999948442,470.6500000320375,527.7700000442564,368.46500006504357,303.3149999100715,456.1799999792129],"keys_pressed":["rightarrow","leftarrow","rightarrow","rightarrow","rightarrow","rightarrow","rightarrow","rightarrow","rightarrow","rightarrow"],"horizon":10,"forced_choices":["rightarrow","leftarrow","rightarrow","rightarrow"],"right_color":"orange","left_color":"lightblue","left_mu":40,"right_mu":70,"left_numbers":[37,37,33,36,49,32,31,59,36,40],"right_numbers":[75,84,83,64,59,54,59,64,67,79],"points_earned":641,"phase":"task","trial_type":"horizons-task","trial_index":26,"time_elapsed":607697,"internal_node_id":"0.0-22.0","task_version":"0.2"},{"response_times":[1173.8950000144541,687.7699999604374,639.3549999920651,2360.4599999962375,1600.1600000308827],"keys_pressed":["rightarrow","rightarrow","leftarrow","leftarrow","rightarrow"],"horizon":5,"forced_choices":["rightarrow","rightarrow","leftarrow","leftarrow"],"right_color":"lightblue","left_color":"orange","left_mu":60,"right_mu":72,"left_numbers":[52,60,63,67,68],"right_numbers":[73,79,65,67,67],"points_earned":349,"phase":"task","trial_type":"horizons-task","trial_index":27,"time_elapsed":615706,"internal_node_id":"0.0-23.0","task_version":"0.2"},{"response_times":[759.7700000042096,543.7999999849126,495.8699999842793,536.2250000471249,1359.9300000350922],"keys_pressed":["rightarrow","leftarrow","rightarrow","rightarrow","rightarrow"],"horizon":5,"forced_choices":["rightarrow","leftarrow","rightarrow","rightarrow"],"right_color":"orange","left_color":"lightblue","left_mu":40,"right_mu":70,"left_numbers":[32,49,28,35,24],"right_numbers":[71,60,66,62,78],"points_earned":326,"phase":"task","trial_type":"horizons-task","trial_index":28,"time_elapsed":620914,"internal_node_id":"0.0-24.0","task_version":"0.2"},{"response_times":[952.0049999700859,520.310000050813,503.50500002969056,512.5649999827147,2640.3699999209493,407.08999999333173,544.5450000697747,543.4099999256432,408.36499992292374,455.59000002685934],"keys_pressed":["leftarrow","rightarrow","rightarrow","rightarrow","rightarrow","rightarrow","rightarrow","rightarrow","rightarrow","rightarrow"],"horizon":10,"forced_choices":["leftarrow","rightarrow","rightarrow","rightarrow"],"right_color":"lightblue","left_color":"orange","left_mu":60,"right_mu":72,"left_numbers":[52,57,68,51,64,42,43,65,68,66],"right_numbers":[69,79,80,77,67,73,65,74,64,68],"points_earned":699,"phase":"task","trial_type":"horizons-task","trial_index":29,"time_elapsed":629914,"internal_node_id":"0.0-25.0","task_version":"0.2"},{"response_times":[872.6250000763685,447.3149999976158,519.6299999952316,560.1999999489635,1352.225000038743],"keys_pressed":["rightarrow","rightarrow","leftarrow","rightarrow","rightarrow"],"horizon":5,"forced_choices":["rightarrow","rightarrow","leftarrow","rightarrow"],"right_color":"orange","left_color":"lightblue","left_mu":60,"right_mu":30,"left_numbers":[64,62,50,52,65],"right_numbers":[30,18,35,24,36],"points_earned":158,"phase":"task","trial_type":"horizons-task","trial_index":30,"time_elapsed":635177,"internal_node_id":"0.0-26.0","task_version":"0.2"},{"response_times":[946.8849999830127,567.1950000105426,575.2850000280887,584.6049999818206,1415.8700000261888],"keys_pressed":["rightarrow","leftarrow","rightarrow","rightarrow","rightarrow"],"horizon":5,"forced_choices":["rightarrow","leftarrow","rightarrow","rightarrow"],"right_color":"lightblue","left_color":"orange","left_mu":40,"right_mu":60,"left_numbers":[33,35,22,30,46],"right_numbers":[65,49,52,61,72],"points_earned":285,"phase":"task","trial_type":"horizons-task","trial_index":31,"time_elapsed":640778,"internal_node_id":"0.0-27.0","task_version":"0.2"},{"response_times":[1081.3400000333786,751.1449999874458,648.3099999604747,712.5400000950322,1920.3999999444932],"keys_pressed":["leftarrow","rightarrow","leftarrow","rightarrow","leftarrow"],"horizon":5,"forced_choices":["leftarrow","rightarrow","leftarrow","rightarrow"],"right_color":"orange","left_color":"lightblue","left_mu":60,"right_mu":40,"left_numbers":[54,42,64,49,55],"right_numbers":[25,44,29,38,50],"points_earned":255,"phase":"task","trial_type":"horizons-task","trial_index":32,"time_elapsed":647409,"internal_node_id":"0.0-28.0","task_version":"0.2"},{"response_times":[848.9500000141561,664.5000000717118,502.7550000231713,568.1099999928847,2032.6699999859557,335.2350000059232,255.96499990206212,255.75000001117587,248.06999997235835,264.1750000184402],"keys_pressed":["rightarrow","leftarrow","leftarrow","leftarrow","leftarrow","leftarrow","leftarrow","leftarrow","leftarrow","leftarrow"],"horizon":10,"forced_choices":["rightarrow","leftarrow","leftarrow","leftarrow"],"right_color":"orange","left_color":"lightblue","left_mu":60,"right_mu":68,"left_numbers":[50,54,46,55,55,48,57,53,73,59],"right_numbers":[55,61,62,68,80,93,70,76,57,73],"points_earned":555,"phase":"task","trial_type":"horizons-task","trial_index":33,"time_elapsed":654898,"internal_node_id":"0.0-29.0","task_version":"0.2"},{"response_times":[681.2149999896064,519.6249999571592,464.1750000882894,552.4649999570101,1976.8550000153482],"keys_pressed":["leftarrow","leftarrow","leftarrow","rightarrow","leftarrow"],"horizon":5,"forced_choices":["leftarrow","leftarrow","leftarrow","rightarrow"],"right_color":"lightblue","left_color":"orange","left_mu":40,"right_mu":48,"left_numbers":[49,42,41,47,34],"right_numbers":[46,41,66,42,44],"points_earned":208,"phase":"task","trial_type":"horizons-task","trial_index":34,"time_elapsed":660604,"internal_node_id":"0.0-30.0","task_version":"0.2"},{"response_times":[813.0700000328943,591.5950000053272,543.7999999849126,520.0349999358878,3143.969999975525,471.92500007804483,399.8450000071898,399.5449999347329,361.27999995369464,502.8800000436604],"keys_pressed":["rightarrow","leftarrow","leftarrow","rightarrow","rightarrow","rightarrow","rightarrow","rightarrow","rightarrow","rightarrow"],"horizon":10,"forced_choices":["rightarrow","leftarrow","leftarrow","rightarrow"],"right_color":"lightblue","left_color":"orange","left_mu":40,"right_mu":36,"left_numbers":[32,22,30,30,50,40,57,55,49,37],"right_numbers":[39,41,33,35,28,36,31,35,42,46],"points_earned":344,"phase":"task","trial_type":"horizons-task","trial_index":35,"time_elapsed":669899,"internal_node_id":"0.0-31.0","task_version":"0.2"},{"response_times":[850.0100000528619,463.1550000049174,471.98500006925315,655.8349999831989,1304.2999999597669,527.8549999929965,383.8000000687316,376.59500003792346,343.6249999795109,328.09500000439584],"keys_pressed":["leftarrow","leftarrow","leftarrow","rightarrow","leftarrow","leftarrow","leftarrow","leftarrow","leftarrow","leftarrow"],"horizon":10,"forced_choices":["leftarrow","leftarrow","leftarrow","rightarrow"],"right_color":"lightblue","left_color":"orange","left_mu":40,"right_mu":48,"left_numbers":[35,36,30,37,39,31,37,38,40,40],"right_numbers":[52,44,50,49,52,63,44,52,47,45],"points_earned":375,"phase":"task","trial_type":"horizons-task","trial_index":36,"time_elapsed":677116,"internal_node_id":"0.0-32.0","task_version":"0.2"},{"response_times":[3016.040000016801,551.5049999812618,616.4450000505894,745.5599999520928,3190.3999999631196],"keys_pressed":["leftarrow","rightarrow","leftarrow","rightarrow","rightarrow"],"horizon":5,"forced_choices":["leftarrow","rightarrow","leftarrow","rightarrow"],"right_color":"lightblue","left_color":"orange","left_mu":40,"right_mu":60,"left_numbers":[36,44,48,46,48],"right_numbers":[55,48,64,65,59],"points_earned":256,"phase":"task","trial_type":"horizons-task","trial_index":37,"time_elapsed":686748,"internal_node_id":"0.0-33.0","task_version":"0.2"},{"response_times":[832.3850000742823,480.06500001065433,584.1050000162795,479.90500007290393,3152.8549999929965,446.98499992955476,304.0599999949336,264.5449999254197,399.7100000269711,407.4450000189245],"keys_pressed":["rightarrow","rightarrow","leftarrow","leftarrow","rightarrow","rightarrow","rightarrow","rightarrow","rightarrow","rightarrow"],"horizon":10,"forced_choices":["rightarrow","rightarrow","leftarrow","leftarrow"],"right_color":"orange","left_color":"lightblue","left_mu":40,"right_mu":70,"left_numbers":[49,38,60,19,41,43,28,52,43,41],"right_numbers":[75,65,60,85,73,66,71,62,64,68],"points_earned":623,"phase":"task","trial_type":"horizons-task","trial_index":38,"time_elapsed":695612,"internal_node_id":"0.0-34.0","task_version":"0.2"},{"response_times":[6817.38999998197,655.9699999634176,535.7899999944493,655.4699999978766,3152.189999935217],"keys_pressed":["rightarrow","leftarrow","leftarrow","rightarrow","leftarrow"],"horizon":5,"forced_choices":["rightarrow","leftarrow","leftarrow","rightarrow"],"right_color":"lightblue","left_color":"orange","left_mu":40,"right_mu":32,"left_numbers":[45,24,52,33,44],"right_numbers":[41,27,30,13,37],"points_earned":174,"phase":"task","trial_type":"horizons-task","trial_index":39,"time_elapsed":708943,"internal_node_id":"0.0-35.0","task_version":"0.2"},{"response_times":[2493.48999990616,655.1899999612942,872.7699998999014,527.3250000318512,3951.920000021346],"keys_pressed":["rightarrow","leftarrow","leftarrow","leftarrow","leftarrow"],"horizon":5,"forced_choices":["rightarrow","leftarrow","leftarrow","leftarrow"],"right_color":"orange","left_color":"lightblue","left_mu":60,"right_mu":68,"left_numbers":[69,48,62,69,51],"right_numbers":[74,60,64,53,82],"points_earned":304,"phase":"task","trial_type":"horizons-task","trial_index":40,"time_elapsed":718957,"internal_node_id":"0.0-36.0","task_version":"0.2"},{"response_times":[13625.69999997504,591.7299999855459,535.6949999695644,423.66499989293516,1720.1750000240281],"keys_pressed":["leftarrow","rightarrow","rightarrow","rightarrow","rightarrow"],"horizon":5,"forced_choices":["leftarrow","rightarrow","rightarrow","rightarrow"],"right_color":"orange","left_color":"lightblue","left_mu":40,"right_mu":44,"left_numbers":[26,32,45,51,40],"right_numbers":[50,48,41,40,55],"points_earned":210,"phase":"task","trial_type":"horizons-task","trial_index":41,"time_elapsed":737368,"internal_node_id":"0.0-37.0","task_version":"0.2"},{"response_times":[5792.350000003353,679.1949999751523,447.82000000122935,488.41500002890825,1431.6349999280646],"keys_pressed":["leftarrow","rightarrow","leftarrow","leftarrow","leftarrow"],"horizon":5,"forced_choices":["leftarrow","rightarrow","leftarrow","leftarrow"],"right_color":"orange","left_color":"lightblue","left_mu":60,"right_mu":40,"left_numbers":[72,51,55,64,79],"right_numbers":[48,39,36,36,44],"points_earned":309,"phase":"task","trial_type":"horizons-task","trial_index":42,"time_elapsed":747719,"internal_node_id":"0.0-38.0","task_version":"0.2"},{"response_times":[4160.5299999937415,607.5500000733882,807.8300000634044,600.5199999781325,2527.6450000237674,351.4199999626726,272.1550000132993,255.9200000250712,256.2550000147894,263.8649999862537],"keys_pressed":["rightarrow","leftarrow","leftarrow","leftarrow","leftarrow","leftarrow","leftarrow","leftarrow","leftarrow","leftarrow"],"horizon":10,"forced_choices":["rightarrow","leftarrow","leftarrow","leftarrow"],"right_color":"lightblue","left_color":"orange","left_mu":40,"right_mu":52,"left_numbers":[38,45,36,31,36,28,38,54,24,41],"right_numbers":[62,58,51,51,46,58,57,68,34,60],"points_earned":395,"phase":"task","trial_type":"horizons-task","trial_index":43,"time_elapsed":759336,"internal_node_id":"0.0-39.0","task_version":"0.2"},{"response_times":[12625.420000054874,439.1149999573827,519.7200000984594,560.0349999731407,3176.164999953471,719.8749999515712,471.78499994333833,408.22999994270504,440.22500002756715,703.6749999970198],"keys_pressed":["rightarrow","rightarrow","leftarrow","leftarrow","rightarrow","rightarrow","rightarrow","rightarrow","rightarrow","rightarrow"],"horizon":10,"forced_choices":["rightarrow","rightarrow","leftarrow","leftarrow"],"right_color":"lightblue","left_color":"orange","left_mu":60,"right_mu":72,"left_numbers":[65,59,60,70,50,70,66,64,59,56],"right_numbers":[77,57,74,58,76,77,62,71,75,68],"points_earned":693,"phase":"task","trial_type":"horizons-task","trial_index":44,"time_elapsed":780912,"internal_node_id":"0.0-40.0","task_version":"0.2"},{"response_times":[3689.5149999763817,583.3900000434369,495.9899999666959,535.9999999636784,2104.0049999719486],"keys_pressed":["rightarrow","leftarrow","leftarrow","rightarrow","rightarrow"],"horizon":5,"forced_choices":["rightarrow","leftarrow","leftarrow","rightarrow"],"right_color":"orange","left_color":"lightblue","left_mu":60,"right_mu":64,"left_numbers":[55,55,53,51,54],"right_numbers":[76,55,44,63,56],"points_earned":303,"phase":"task","trial_type":"horizons-task","trial_index":45,"time_elapsed":789832,"internal_node_id":"0.0-41.0","task_version":"0.2"},{"response_times":[1666.6299999924377,639.5899999188259,607.9199999803677,543.4200000017881,2641.8500000145286,342.6699999254197,272.24500000011176,255.04499999806285,256.1449999921024,335.6699999421835],"keys_pressed":["leftarrow","rightarrow","leftarrow","leftarrow","leftarrow","leftarrow","leftarrow","leftarrow","leftarrow","leftarrow"],"horizon":10,"forced_choices":["leftarrow","rightarrow","leftarrow","leftarrow"],"right_color":"orange","left_color":"lightblue","left_mu":60,"right_mu":80,"left_numbers":[52,54,48,57,68,54,44,56,59,75],"right_numbers":[97,65,85,86,65,78,64,84,78,72],"points_earned":578,"phase":"task","trial_type":"horizons-task","trial_index":46,"time_elapsed":798904,"internal_node_id":"0.0-42.0","task_version":"0.2"},{"response_times":[2011.4799999864772,566.2599999923259,544.3049999885261,471.8799999682233,1671.6199999209493],"keys_pressed":["leftarrow","rightarrow","rightarrow","rightarrow","rightarrow"],"horizon":5,"forced_choices":["leftarrow","rightarrow","rightarrow","rightarrow"],"right_color":"lightblue","left_color":"orange","left_mu":60,"right_mu":56,"left_numbers":[61,51,55,66,56],"right_numbers":[66,55,47,69,41],"points_earned":273,"phase":"task","trial_type":"horizons-task","trial_index":47,"time_elapsed":805681,"internal_node_id":"0.0-43.0","task_version":"0.2"},{"response_times":[3471.4449999155477,535.9649999300018,471.4049999602139,712.8549999324605,2863.1149999564514,1337.5450000166893,518.8149999594316,472.14500000700355,447.8349999990314,376.39499991200864],"keys_pressed":["rightarrow","leftarrow","rightarrow","leftarrow","rightarrow","rightarrow","rightarrow","rightarrow","rightarrow","rightarrow"],"horizon":10,"forced_choices":["rightarrow","leftarrow","rightarrow","leftarrow"],"right_color":"orange","left_color":"lightblue","left_mu":60,"right_mu":52,"left_numbers":[59,41,59,73,70,60,74,57,56,67],"right_numbers":[58,53,64,64,57,37,41,47,57,50],"points_earned":525,"phase":"task","trial_type":"horizons-task","trial_index":48,"time_elapsed":818403,"internal_node_id":"0.0-44.0","task_version":"0.2"},{"response_times":[6280.665000085719,559.6149999182671,640.3900000732392,543.1349999271333,2624.9799999641255,335.2599999634549,263.7050000485033,240.00500002875924,255.96500001847744,272.3399999085814],"keys_pressed":["rightarrow","leftarrow","rightarrow","leftarrow","leftarrow","leftarrow","leftarrow","leftarrow","leftarrow","leftarrow"],"horizon":10,"forced_choices":["rightarrow","leftarrow","rightarrow","leftarrow"],"right_color":"orange","left_color":"lightblue","left_mu":60,"right_mu":30,"left_numbers":[56,56,71,57,53,57,40,53,60,69],"right_numbers":[23,25,29,43,36,33,26,20,39,24],"points_earned":497,"phase":"task","trial_type":"horizons-task","trial_index":49,"time_elapsed":831930,"internal_node_id":"0.0-45.0","task_version":"0.2"},{"response_times":[3569.6749999187887,583.2100000698119,464.65999993961304,496.12500006332994,1543.6450000852346],"keys_pressed":["rightarrow","leftarrow","leftarrow","leftarrow","leftarrow"],"horizon":5,"forced_choices":["rightarrow","leftarrow","leftarrow","leftarrow"],"right_color":"lightblue","left_color":"orange","left_mu":40,"right_mu":52,"left_numbers":[35,44,44,36,43],"right_numbers":[49,45,42,58,57],"points_earned":216,"phase":"task","trial_type":"horizons-task","trial_index":50,"time_elapsed":840100,"internal_node_id":"0.0-46.0","task_version":"0.2"},{"view_history":"[{\"page_index\":0,\"viewing_time\":54145.69500007201},{\"page_index\":1,\"viewing_time\":4985.9599999617785}]","rt":59134.21499996912,"trial_type":"instructions","trial_index":51,"time_elapsed":899236,"internal_node_id":"0.0-47.0","task_version":"0.2"},{"response_times":[2087.184999953024,544.1550000105053,679.7650000080466,519.9400000274181,2328.565000090748,375.21500000730157,263.73000000603497,287.9550000652671,280.3050000220537,376.2950000818819],"keys_pressed":["leftarrow","leftarrow","rightarrow","rightarrow","leftarrow","leftarrow","leftarrow","leftarrow","leftarrow","leftarrow"],"horizon":10,"forced_choices":["leftarrow","leftarrow","rightarrow","rightarrow"],"right_color":"lightblue","left_color":"orange","left_mu":40,"right_mu":20,"left_numbers":[46,44,36,39,52,41,23,51,48,42],"right_numbers":[13,19,31,27,28,14,18,26,24,25],"points_earned":405,"phase":"task","trial_type":"horizons-task","trial_index":52,"time_elapsed":908527,"internal_node_id":"0.0-48.0","task_version":"0.2"},{"response_times":[1153.539999970235,430.79500005114824,439.2999999690801,624.2050000000745,2616.509999963455,367.2899999655783,280.1949999993667,279.5000000623986,280.83500009961426,303.4800000023097],"keys_pressed":["rightarrow","rightarrow","leftarrow","rightarrow","rightarrow","rightarrow","rightarrow","rightarrow","rightarrow","rightarrow"],"horizon":10,"forced_choices":["rightarrow","rightarrow","leftarrow","rightarrow"],"right_color":"orange","left_color":"lightblue","left_mu":40,"right_mu":28,"left_numbers":[29,38,42,36,47,45,24,32,29,49],"right_numbers":[23,30,13,22,31,36,23,35,46,43],"points_earned":331,"phase":"task","trial_type":"horizons-task","trial_index":53,"time_elapsed":916815,"internal_node_id":"0.0-49.0","task_version":"0.2"},{"response_times":[792.3650000011548,560.6799999950454,855.6399999652058,3063.6100000701845,2192.284999997355],"keys_pressed":["rightarrow","leftarrow","leftarrow","rightarrow","rightarrow"],"horizon":5,"forced_choices":["rightarrow","leftarrow","leftarrow","rightarrow"],"right_color":"lightblue","left_color":"orange","left_mu":40,"right_mu":52,"left_numbers":[38,49,38,34,32],"right_numbers":[47,60,46,43,53],"points_earned":230,"phase":"task","trial_type":"horizons-task","trial_index":54,"time_elapsed":925790,"internal_node_id":"0.0-50.0","task_version":"0.2"},{"response_times":[2289.740000036545,551.0199998971075,472.0899999374524,575.524999992922,2120.380000094883,319.72999998833984,271.83500002138317,272.3399999085814,279.744999948889,287.67500002868474],"keys_pressed":["rightarrow","leftarrow","leftarrow","rightarrow","rightarrow","rightarrow","rightarrow","rightarrow","rightarrow","rightarrow"],"horizon":10,"forced_choices":["rightarrow","leftarrow","leftarrow","rightarrow"],"right_color":"lightblue","left_color":"orange","left_mu":40,"right_mu":32,"left_numbers":[45,40,37,33,44,45,46,45,41,18],"right_numbers":[44,46,15,49,26,28,27,35,25,11],"points_earned":322,"phase":"task","trial_type":"horizons-task","trial_index":55,"time_elapsed":934742,"internal_node_id":"0.0-51.0","task_version":"0.2"},{"response_times":[857.8049999196082,760.2449998958036,553.1649999320507,543.5750000178814,1190.4750000685453,288.8700000476092,271.10499993432313,271.78499998990446,279.82000005431473,304.14000002201647],"keys_pressed":["leftarrow","rightarrow","rightarrow","rightarrow","rightarrow","rightarrow","rightarrow","rightarrow","rightarrow","rightarrow"],"horizon":10,"forced_choices":["leftarrow","rightarrow","rightarrow","rightarrow"],"right_color":"orange","left_color":"lightblue","left_mu":40,"right_mu":44,"left_numbers":[25,43,46,40,25,45,41,50,40,33],"right_numbers":[43,45,44,50,35,37,61,44,34,37],"points_earned":412,"phase":"task","trial_type":"horizons-task","trial_index":56,"time_elapsed":941574,"internal_node_id":"0.0-52.0","task_version":"0.2"},{"response_times":[1329.1500000050291,583.9350000023842,559.8250000039116,1383.7400000775233,1720.8899999968708,295.2750000404194,279.9599999561906,287.42499998770654,247.92999995406717,344.3350000306964],"keys_pressed":["rightarrow","leftarrow","leftarrow","leftarrow","leftarrow","leftarrow","leftarrow","leftarrow","leftarrow","leftarrow"],"horizon":10,"forced_choices":["rightarrow","leftarrow","leftarrow","leftarrow"],"right_color":"orange","left_color":"lightblue","left_mu":60,"right_mu":64,"left_numbers":[67,64,52,68,71,56,71,68,61,68],"right_numbers":[64,62,65,80,63,54,60,64,67,55],"points_earned":643,"phase":"task","trial_type":"horizons-task","trial_index":57,"time_elapsed":950119,"internal_node_id":"0.0-53.0","task_version":"0.2"},{"response_times":[1898.1199999107048,766.425000037998,535.8099999139085,593.0749999824911,2695.6500000087544],"keys_pressed":["leftarrow","rightarrow","rightarrow","leftarrow","leftarrow"],"horizon":5,"forced_choices":["leftarrow","rightarrow","rightarrow","leftarrow"],"right_color":"orange","left_color":"lightblue","left_mu":40,"right_mu":28,"left_numbers":[38,43,35,44,36],"right_numbers":[19,25,34,33,22],"points_earned":177,"phase":"task","trial_type":"horizons-task","trial_index":58,"time_elapsed":958121,"internal_node_id":"0.0-54.0","task_version":"0.2"},{"response_times":[3080.8400000678375,727.6249999413267,503.57000005897135,624.0700000198558,2304.4000000227243],"keys_pressed":["leftarrow","rightarrow","rightarrow","leftarrow","rightarrow"],"horizon":5,"forced_choices":["leftarrow","rightarrow","rightarrow","leftarrow"],"right_color":"orange","left_color":"lightblue","left_mu":60,"right_mu":80,"left_numbers":[68,64,61,69,61],"right_numbers":[79,85,84,81,67],"points_earned":373,"phase":"task","trial_type":"horizons-task","trial_index":59,"time_elapsed":966872,"internal_node_id":"0.0-55.0","task_version":"0.2"},{"response_times":[825.3249999834225,432.28500010445714,640.1599999517202,463.5100000305101,3368.514999980107],"keys_pressed":["leftarrow","leftarrow","rightarrow","rightarrow","leftarrow"],"horizon":5,"forced_choices":["leftarrow","leftarrow","rightarrow","rightarrow"],"right_color":"lightblue","left_color":"orange","left_mu":40,"right_mu":20,"left_numbers":[31,43,56,37,50],"right_numbers":[29,3,8,22,20],"points_earned":154,"phase":"task","trial_type":"horizons-task","trial_index":60,"time_elapsed":974113,"internal_node_id":"0.0-56.0","task_version":"0.2"},{"response_times":[856.2399999937043,591.6450000368059,567.754999967292,520.1450000749901,1879.7049999702722,335.97499993629754,312.015000032261,272.29499991517514,287.49499993864447,336.32000000216067],"keys_pressed":["leftarrow","rightarrow","leftarrow","rightarrow","rightarrow","rightarrow","rightarrow","rightarrow","rightarrow","rightarrow"],"horizon":10,"forced_choices":["leftarrow","rightarrow","leftarrow","rightarrow"],"right_color":"lightblue","left_color":"orange","left_mu":40,"right_mu":60,"left_numbers":[46,37,43,43,36,45,46,45,44,47],"right_numbers":[67,52,64,51,56,69,58,59,61,54],"points_earned":549,"phase":"task","trial_type":"horizons-task","trial_index":61,"time_elapsed":981586,"internal_node_id":"0.0-57.0","task_version":"0.2"},{"response_times":[1016.109999967739,848.2749999966472,519.5450000464916,647.5050000008196,3752.3049999726936,1120.6600000150502,695.6200000131503,495.7449999637902,415.80000007525086,448.1199999572709],"keys_pressed":["leftarrow","rightarrow","rightarrow","leftarrow","rightarrow","rightarrow","rightarrow","rightarrow","rightarrow","rightarrow"],"horizon":10,"forced_choices":["leftarrow","rightarrow","rightarrow","leftarrow"],"right_color":"orange","left_color":"lightblue","left_mu":60,"right_mu":80,"left_numbers":[71,58,55,68,63,57,54,69,61,71],"right_numbers":[74,67,77,93,82,68,79,85,84,91],"points_earned":772,"phase":"task","trial_type":"horizons-task","trial_index":62,"time_elapsed":993058,"internal_node_id":"0.0-58.0","task_version":"0.2"},{"response_times":[953.4099999582395,614.8449999745935,751.7500000540167,3800.329999998212,1376.494999974966],"keys_pressed":["rightarrow","rightarrow","leftarrow","rightarrow","rightarrow"],"horizon":5,"forced_choices":["rightarrow","rightarrow","leftarrow","rightarrow"],"right_color":"orange","left_color":"lightblue","left_mu":40,"right_mu":28,"left_numbers":[39,30,43,30,34],"right_numbers":[21,33,25,19,34],"points_earned":150,"phase":"task","trial_type":"horizons-task","trial_index":63,"time_elapsed":1002067,"internal_node_id":"0.0-59.0","task_version":"0.2"},{"response_times":[1808.2050000084564,1184.2750000068918,663.6850000359118,1352.2449999582022,847.9700000025332,439.1300000716001,400.4450000356883,335.8299999963492,327.95499998610467,352.004999993369],"keys_pressed":["leftarrow","leftarrow","rightarrow","leftarrow","leftarrow","leftarrow","leftarrow","leftarrow","leftarrow","leftarrow"],"horizon":10,"forced_choices":["leftarrow","leftarrow","rightarrow","leftarrow"],"right_color":"lightblue","left_color":"orange","left_mu":60,"right_mu":90,"left_numbers":[51,57,57,57,54,70,64,48,56,68],"right_numbers":[86,100,98,93,93,89,97,87,85,102],"points_earned":623,"phase":"task","trial_type":"horizons-task","trial_index":64,"time_elapsed":1011291,"internal_node_id":"0.0-60.0","task_version":"0.2"},{"response_times":[856.3200000207871,615.7799999928102,607.9100000206381,616.1149999825284,3048.714999924414,391.1199999274686,672.2600000211969,464.48500000406057,943.2500000111759,456.4500000560656],"keys_pressed":["leftarrow","rightarrow","leftarrow","leftarrow","leftarrow","leftarrow","leftarrow","rightarrow","leftarrow","leftarrow"],"horizon":10,"forced_choices":["leftarrow","rightarrow","leftarrow","leftarrow"],"right_color":"orange","left_color":"lightblue","left_mu":60,"right_mu":40,"left_numbers":[43,52,46,47,66,68,44,52,61,69],"right_numbers":[30,48,36,37,48,49,35,34,41,32],"points_earned":526,"phase":"task","trial_type":"horizons-task","trial_index":65,"time_elapsed":1021475,"internal_node_id":"0.0-61.0","task_version":"0.2"},{"response_times":[1064.9299999931827,807.5500000268221,1175.8350000018254,1065.2300000656396,1063.1899998988956],"keys_pressed":["leftarrow","rightarrow","rightarrow","rightarrow","rightarrow"],"horizon":5,"forced_choices":["leftarrow","rightarrow","rightarrow","rightarrow"],"right_color":"lightblue","left_color":"orange","left_mu":60,"right_mu":72,"left_numbers":[66,65,57,60,59],"right_numbers":[67,54,81,52,72],"points_earned":325,"phase":"task","trial_type":"horizons-task","trial_index":66,"time_elapsed":1028163,"internal_node_id":"0.0-62.0","task_version":"0.2"},{"response_times":[1920.8599999547005,709.6299999393523,600.6249999627471,655.5499999085441,4712.375000002794,439.9049999192357,375.8649999508634,551.9799999892712,583.8500000536442,511.77999994251877],"keys_pressed":["rightarrow","leftarrow","leftarrow","rightarrow","leftarrow","leftarrow","leftarrow","rightarrow","leftarrow","leftarrow"],"horizon":10,"forced_choices":["rightarrow","leftarrow","leftarrow","rightarrow"],"right_color":"orange","left_color":"lightblue","left_mu":60,"right_mu":64,"left_numbers":[62,50,69,65,53,60,50,48,60,64],"right_numbers":[56,65,64,69,57,70,44,53,63,64],"points_earned":584,"phase":"task","trial_type":"horizons-task","trial_index":67,"time_elapsed":1040739,"internal_node_id":"0.0-63.0","task_version":"0.2"},{"response_times":[962.1949999127537,503.2300000311807,656.3750000204891,535.6399999000132,1528.7350000580773],"keys_pressed":["leftarrow","rightarrow","leftarrow","leftarrow","leftarrow"],"horizon":5,"forced_choices":["leftarrow","rightarrow","leftarrow","leftarrow"],"right_color":"orange","left_color":"lightblue","left_mu":60,"right_mu":80,"left_numbers":[69,69,59,52,57],"right_numbers":[80,77,77,73,89],"points_earned":314,"phase":"task","trial_type":"horizons-task","trial_index":68,"time_elapsed":1046436,"internal_node_id":"0.0-64.0","task_version":"0.2"},{"response_times":[1161.530000041239,711.600000038743,584.1700000455603,903.3849999541417,2928.900000057183],"keys_pressed":["rightarrow","leftarrow","rightarrow","leftarrow","leftarrow"],"horizon":5,"forced_choices":["rightarrow","leftarrow","rightarrow","leftarrow"],"right_color":"orange","left_color":"lightblue","left_mu":60,"right_mu":52,"left_numbers":[56,70,66,68,75],"right_numbers":[61,51,62,57,49],"points_earned":336,"phase":"task","trial_type":"horizons-task","trial_index":69,"time_elapsed":1054236,"internal_node_id":"0.0-65.0","task_version":"0.2"},{"response_times":[1095.7349999807775,583.9799999957904,568.8899999950081,502.6350000407547,1719.8199999984354,527.9950000112876,458.0500000156462,454.8649999778718,598.9599999738857,695.8449999801815],"keys_pressed":["rightarrow","leftarrow","rightarrow","leftarrow","leftarrow","leftarrow","leftarrow","leftarrow","leftarrow","rightarrow"],"horizon":10,"forced_choices":["rightarrow","leftarrow","rightarrow","leftarrow"],"right_color":"lightblue","left_color":"orange","left_mu":60,"right_mu":56,"left_numbers":[57,66,51,55,52,57,47,52,54,67],"right_numbers":[51,54,53,59,54,53,59,59,54,58],"points_earned":545,"phase":"task","trial_type":"horizons-task","trial_index":70,"time_elapsed":1062957,"internal_node_id":"0.0-66.0","task_version":"0.2"},{"response_times":[1181.3799999654293,687.5200000358745,632.0850000483915,647.8249999927357,2816.4450000040233,527.4950000457466,656.360000022687,824.4500000728294,591.2350000580773,408.7099999887869],"keys_pressed":["leftarrow","leftarrow","rightarrow","rightarrow","leftarrow","leftarrow","rightarrow","leftarrow","leftarrow","leftarrow"],"horizon":10,"forced_choices":["leftarrow","leftarrow","rightarrow","rightarrow"],"right_color":"orange","left_color":"lightblue","left_mu":60,"right_mu":48,"left_numbers":[46,53,69,65,49,49,52,51,49,51],"right_numbers":[45,65,38,39,53,61,46,50,36,61],"points_earned":471,"phase":"task","trial_type":"horizons-task","trial_index":71,"time_elapsed":1073445,"internal_node_id":"0.0-67.0","task_version":"0.2"},{"response_times":[1704.9849999602884,567.4450000515208,632.2350000264123,1055.4299999494106,1736.475000041537],"keys_pressed":["rightarrow","leftarrow","rightarrow","leftarrow","leftarrow"],"horizon":5,"forced_choices":["rightarrow","leftarrow","rightarrow","leftarrow"],"right_color":"orange","left_color":"lightblue","left_mu":60,"right_mu":30,"left_numbers":[57,65,52,48,65],"right_numbers":[38,37,24,27,38],"points_earned":240,"phase":"task","trial_type":"horizons-task","trial_index":72,"time_elapsed":1080653,"internal_node_id":"0.0-68.0","task_version":"0.2"},{"response_times":[880.7149999774992,504.3399999849498,583.7749999482185,776.2699999148026,2424.615000025369,591.4500000653788,745.4999999608845,581.8849999923259,888.4499999694526,352.5249999947846],"keys_pressed":["rightarrow","rightarrow","leftarrow","rightarrow","rightarrow","leftarrow","leftarrow","leftarrow","rightarrow","leftarrow"],"horizon":10,"forced_choices":["rightarrow","rightarrow","leftarrow","rightarrow"],"right_color":"lightblue","left_color":"orange","left_mu":40,"right_mu":10,"left_numbers":[26,47,39,31,45,34,41,52,41,38],"right_numbers":[19,23,20,8,4,0,4,4,16,10],"points_earned":274,"phase":"task","trial_type":"horizons-task","trial_index":73,"time_elapsed":1090495,"internal_node_id":"0.0-69.0","task_version":"0.2"},{"response_times":[1039.2099999589846,511.9249999988824,496.36999994982034,816.0099999513477,2055.8549999259412,448.24999989941716,447.80500000342727,423.55499998666346,336.06000000145286,472.0749999396503],"keys_pressed":["rightarrow","rightarrow","rightarrow","leftarrow","rightarrow","rightarrow","rightarrow","rightarrow","rightarrow","rightarrow"],"horizon":10,"forced_choices":["rightarrow","rightarrow","rightarrow","leftarrow"],"right_color":"lightblue","left_color":"orange","left_mu":40,"right_mu":36,"left_numbers":[47,37,51,26,32,45,40,37,40,42],"right_numbers":[45,28,20,34,40,35,39,37,50,31],"points_earned":351,"phase":"task","trial_type":"horizons-task","trial_index":74,"time_elapsed":1099055,"internal_node_id":"0.0-70.0","task_version":"0.2"},{"response_times":[905.6300000520423,551.2749999761581,519.7400000179186,551.8799999263138,2073.0250000488013],"keys_pressed":["rightarrow","leftarrow","rightarrow","leftarrow","leftarrow"],"horizon":5,"forced_choices":["rightarrow","leftarrow","rightarrow","leftarrow"],"right_color":"lightblue","left_color":"orange","left_mu":60,"right_mu":56,"left_numbers":[60,68,51,75,58],"right_numbers":[51,59,51,66,56],"points_earned":303,"phase":"task","trial_type":"horizons-task","trial_index":75,"time_elapsed":1105166,"internal_node_id":"0.0-71.0","task_version":"0.2"},{"response_times":[1273.0049999663606,423.634999897331,560.4349999921396,511.3100000889972,3208.350000088103,511.9399999966845,776.5300000319257,727.4949999991804,584.2350000748411,567.3250000691041],"keys_pressed":["rightarrow","rightarrow","leftarrow","rightarrow","rightarrow","rightarrow","leftarrow","leftarrow","leftarrow","leftarrow"],"horizon":10,"forced_choices":["rightarrow","rightarrow","leftarrow","rightarrow"],"right_color":"orange","left_color":"lightblue","left_mu":60,"right_mu":30,"left_numbers":[49,63,55,57,58,49,66,56,56,53],"right_numbers":[23,31,23,19,32,47,31,35,38,23],"points_earned":438,"phase":"task","trial_type":"horizons-task","trial_index":76,"time_elapsed":1115822,"internal_node_id":"0.0-72.0","task_version":"0.2"},{"response_times":[786.2500000046566,735.3050000965595,495.4699999652803,560.2250000229105,2896.48999995552,431.6200000466779,416.2299999734387,495.80000003334135,279.77000002283603,888.0049999570474],"keys_pressed":["leftarrow","rightarrow","rightarrow","leftarrow","rightarrow","rightarrow","rightarrow","rightarrow","leftarrow","rightarrow"],"horizon":10,"forced_choices":["leftarrow","rightarrow","rightarrow","leftarrow"],"right_color":"orange","left_color":"lightblue","left_mu":40,"right_mu":44,"left_numbers":[41,48,38,30,40,39,27,40,31,48],"right_numbers":[43,38,46,41,50,50,39,52,38,32],"points_earned":409,"phase":"task","trial_type":"horizons-task","trial_index":77,"time_elapsed":1125320,"internal_node_id":"0.0-73.0","task_version":"0.2"},{"response_times":[888.440000009723,464.55999999307096,559.2600000090897,592.1450000023469,1288.4000000776723],"keys_pressed":["leftarrow","leftarrow","rightarrow","rightarrow","leftarrow"],"horizon":5,"forced_choices":["leftarrow","leftarrow","rightarrow","rightarrow"],"right_color":"lightblue","left_color":"orange","left_mu":60,"right_mu":90,"left_numbers":[63,63,63,62,73],"right_numbers":[85,73,97,106,83],"points_earned":402,"phase":"task","trial_type":"horizons-task","trial_index":78,"time_elapsed":1130624,"internal_node_id":"0.0-74.0","task_version":"0.2"},{"response_times":[991.8850000249222,655.8649999788031,456.20499993674457,575.7600000360981,2728.1750000547618,551.83999997098,656.5300000365824,487.8249999601394,719.8300000745803,464.380000019446],"keys_pressed":["rightarrow","leftarrow","rightarrow","rightarrow","rightarrow","rightarrow","rightarrow","rightarrow","leftarrow","rightarrow"],"horizon":10,"forced_choices":["rightarrow","leftarrow","rightarrow","rightarrow"],"right_color":"lightblue","left_color":"orange","left_mu":40,"right_mu":60,"left_numbers":[41,29,42,37,41,38,37,41,35,40],"right_numbers":[55,74,67,52,66,51,62,75,55,71],"points_earned":563,"phase":"task","trial_type":"horizons-task","trial_index":79,"time_elapsed":1140424,"internal_node_id":"0.0-75.0","task_version":"0.2"},{"response_times":[1753.5350000252947,455.39999997708946,568.1249999906868,471.2199999485165,1664.325000019744,311.74999999348074,272.3599999444559,263.44499993138015,712.195000029169,376.2400000123307],"keys_pressed":["leftarrow","leftarrow","rightarrow","rightarrow","rightarrow","rightarrow","rightarrow","rightarrow","rightarrow","rightarrow"],"horizon":10,"forced_choices":["leftarrow","leftarrow","rightarrow","rightarrow"],"right_color":"lightblue","left_color":"orange","left_mu":60,"right_mu":90,"left_numbers":[68,60,52,68,54,61,60,53,60,55],"right_numbers":[98,92,88,84,85,113,72,102,89,95],"points_earned":856,"phase":"task","trial_type":"horizons-task","trial_index":80,"time_elapsed":1148785,"internal_node_id":"0.0-76.0","task_version":"0.2"},{"response_times":[1352.7600000379607,416.0050000064075,815.8299999777228,879.9400000134483,2608.7700000498444],"keys_pressed":["rightarrow","rightarrow","leftarrow","leftarrow","rightarrow"],"horizon":5,"forced_choices":["rightarrow","rightarrow","leftarrow","leftarrow"],"right_color":"lightblue","left_color":"orange","left_mu":40,"right_mu":48,"left_numbers":[45,36,28,50,38],"right_numbers":[33,53,56,37,47],"points_earned":211,"phase":"task","trial_type":"horizons-task","trial_index":81,"time_elapsed":1156369,"internal_node_id":"0.0-77.0","task_version":"0.2"},{"response_times":[1320.9599999245256,463.3150000590831,519.5850000018254,528.0299999285489,3623.8850000081584,376.09999999403954,352.74500004015863,335.39500006008893,320.15000004321337,287.6049999613315],"keys_pressed":["leftarrow","leftarrow","rightarrow","leftarrow","leftarrow","leftarrow","leftarrow","leftarrow","leftarrow","leftarrow"],"horizon":10,"forced_choices":["leftarrow","leftarrow","rightarrow","leftarrow"],"right_color":"lightblue","left_color":"orange","left_mu":40,"right_mu":32,"left_numbers":[45,37,44,46,31,32,34,41,49,41],"right_numbers":[31,38,24,25,17,37,36,29,34,22],"points_earned":380,"phase":"task","trial_type":"horizons-task","trial_index":82,"time_elapsed":1166010,"internal_node_id":"0.0-78.0","task_version":"0.2"},{"response_times":[791.7599999345839,503.8100000238046,561.1849999986589,711.2049999414012,2551.949999993667],"keys_pressed":["leftarrow","leftarrow","rightarrow","leftarrow","leftarrow"],"horizon":5,"forced_choices":["leftarrow","leftarrow","rightarrow","leftarrow"],"right_color":"lightblue","left_color":"orange","left_mu":40,"right_mu":20,"left_numbers":[53,41,53,33,24],"right_numbers":[34,18,19,6,24],"points_earned":170,"phase":"task","trial_type":"horizons-task","trial_index":83,"time_elapsed":1172642,"internal_node_id":"0.0-79.0","task_version":"0.2"},{"response_times":[2088.7199999997392,480.2549999440089,696.0050000343472,1095.644999993965,2776.72999992501],"keys_pressed":["leftarrow","leftarrow","rightarrow","leftarrow","leftarrow"],"horizon":5,"forced_choices":["leftarrow","leftarrow","rightarrow","leftarrow"],"right_color":"lightblue","left_color":"orange","left_mu":40,"right_mu":32,"left_numbers":[38,39,50,42,39],"right_numbers":[32,27,36,45,40],"points_earned":194,"phase":"task","trial_type":"horizons-task","trial_index":84,"time_elapsed":1181291,"internal_node_id":"0.0-80.0","task_version":"0.2"},{"response_times":[765.445000026375,447.52000004518777,432.5249999528751,599.4149999460205,1387.860000017099],"keys_pressed":["rightarrow","rightarrow","rightarrow","leftarrow","rightarrow"],"horizon":5,"forced_choices":["rightarrow","rightarrow","rightarrow","leftarrow"],"right_color":"lightblue","left_color":"orange","left_mu":40,"right_mu":36,"left_numbers":[31,36,39,37,29],"right_numbers":[41,38,35,27,38],"points_earned":189,"phase":"task","trial_type":"horizons-task","trial_index":85,"time_elapsed":1186437,"internal_node_id":"0.0-81.0","task_version":"0.2"},{"response_times":[924.460000009276,496.01000000257045,447.20000005327165,520.810000016354,1567.8949999855831],"keys_pressed":["rightarrow","rightarrow","rightarrow","leftarrow","rightarrow"],"horizon":5,"forced_choices":["rightarrow","rightarrow","rightarrow","leftarrow"],"right_color":"orange","left_color":"lightblue","left_mu":60,"right_mu":52,"left_numbers":[55,66,46,55,59],"right_numbers":[55,41,55,51,61],"points_earned":267,"phase":"task","trial_type":"horizons-task","trial_index":86,"time_elapsed":1191907,"internal_node_id":"0.0-82.0","task_version":"0.2"},{"response_times":[917.2350000590086,744.1600000020117,464.44999997038394,711.284999968484,2281.529999920167],"keys_pressed":["rightarrow","leftarrow","leftarrow","rightarrow","leftarrow"],"horizon":5,"forced_choices":["rightarrow","leftarrow","leftarrow","rightarrow"],"right_color":"lightblue","left_color":"orange","left_mu":40,"right_mu":36,"left_numbers":[34,39,49,47,35],"right_numbers":[26,27,41,32,19],"points_earned":181,"phase":"task","trial_type":"horizons-task","trial_index":87,"time_elapsed":1198540,"internal_node_id":"0.0-83.0","task_version":"0.2"},{"response_times":[1015.1499999919906,432.5849999440834,439.7350000217557,639.4400000572205,2864.6100000478327,455.445000086911,383.62000009510666,432.25499999243766,672.1350000007078,751.3599999947473],"keys_pressed":["rightarrow","rightarrow","rightarrow","leftarrow","leftarrow","leftarrow","leftarrow","leftarrow","rightarrow","leftarrow"],"horizon":10,"forced_choices":["rightarrow","rightarrow","rightarrow","leftarrow"],"right_color":"orange","left_color":"lightblue","left_mu":60,"right_mu":52,"left_numbers":[60,57,65,57,55,58,46,58,69,55],"right_numbers":[34,34,44,80,44,37,38,46,51,54],"points_earned":492,"phase":"task","trial_type":"horizons-task","trial_index":88,"time_elapsed":1208146,"internal_node_id":"0.0-84.0","task_version":"0.2"},{"response_times":[733.0100000835955,535.909999976866,496.0549999959767,471.4649999514222,3369.025000021793,447.62999995145947,447.8250000393018,807.5550000648946,488.7550000566989,743.7200000276789],"keys_pressed":["leftarrow","rightarrow","rightarrow","rightarrow","leftarrow","leftarrow","rightarrow","rightarrow","rightarrow","leftarrow"],"horizon":10,"forced_choices":["leftarrow","rightarrow","rightarrow","rightarrow"],"right_color":"lightblue","left_color":"orange","left_mu":60,"right_mu":56,"left_numbers":[58,49,62,46,50,58,58,55,68,47],"right_numbers":[51,52,51,53,72,47,75,52,31,57],"points_earned":527,"phase":"task","trial_type":"horizons-task","trial_index":89,"time_elapsed":1218204,"internal_node_id":"0.0-85.0","task_version":"0.2"},{"response_times":[1769.4449999835342,495.3199999872595,543.5600000200793,744.414999964647,1871.709999977611,497.0350000075996,470.9850000217557,448.14500003121793,327.3200000403449,360.47499999403954],"keys_pressed":["leftarrow","leftarrow","rightarrow","leftarrow","leftarrow","leftarrow","leftarrow","leftarrow","leftarrow","leftarrow"],"horizon":10,"forced_choices":["leftarrow","leftarrow","rightarrow","leftarrow"],"right_color":"lightblue","left_color":"orange","left_mu":40,"right_mu":20,"left_numbers":[39,40,33,32,59,44,47,38,41,46],"right_numbers":[27,24,16,13,15,14,5,20,31,19],"points_earned":402,"phase":"task","trial_type":"horizons-task","trial_index":90,"time_elapsed":1227244,"internal_node_id":"0.0-86.0","task_version":"0.2"},{"response_times":[1183.8149999966845,440.5700000934303,487.7349999733269,520.2399999834597,2295.410000020638,416.47000005468726,296.1399999912828,271.52499998919666,239.60000008810312,256.1049999203533],"keys_pressed":["leftarrow","leftarrow","leftarrow","rightarrow","leftarrow","leftarrow","leftarrow","leftarrow","leftarrow","leftarrow"],"horizon":10,"forced_choices":["leftarrow","leftarrow","leftarrow","rightarrow"],"right_color":"orange","left_color":"lightblue","left_mu":60,"right_mu":48,"left_numbers":[47,51,56,49,63,51,55,65,61,54],"right_numbers":[55,54,58,50,51,33,54,42,49,45],"points_earned":553,"phase":"task","trial_type":"horizons-task","trial_index":91,"time_elapsed":1235163,"internal_node_id":"0.0-87.0","task_version":"0.2"},{"rt":24393.91500002239,"responses":{"age":"54","gender-categorical":"Male","gender-free-response":"","ethnicity":"Not Hispanic or Latino","race":["White"],"language":"Yes","fluency":"Very well"},"survey":"demographics","trial_type":"survey-demo","trial_index":92,"time_elapsed":1259570,"internal_node_id":"0.0-88.0","task_version":"0.2"},{"rt":20590.45000001788,"responses":{"difficulty":"4","fun":"4","clarity":"5","strategy":"no","feedback":""},"survey":"debrief","trial_type":"survey-debrief","trial_index":93,"time_elapsed":1280177,"internal_node_id":"0.0-89.0","task_version":"0.2","interactions":"[]"}]