[{"view_history":"[{\"page_index\":0,\"viewing_time\":2373.9549999590963}]","rt":2374.3999999715015,"trial_type":"instructions","trial_index":0,"time_elapsed":2383,"internal_node_id":"0.0-0.0","task_version":"0.2"},{"item_order":[12,14,15,16,11,4,2,5,0,1,7,10,3,8,6,9,13],"responses":{"Q13":"2","Q15":"0","Q16":"2","Q17":"0","Q12":"2","Q05":"2","Q03":"3","Q06":"2","Q01":"1","Q02":"0","Q08":"2","Q11":"3","Q04":"1","Q09":"0","Q07":"1","Q10":"3","Q14":"2"},"radio_events":[3030.0000000279397,6976.569999998901,9784.169999998994,15514.140000042971,19022.84500002861,21051.97000002954,28028.655000030994,38628.1650000019,39229.97500002384,50366.1050000228,54060.80000003567,59370.205000042915,62958.52000004379,68818.26000002911,76876.32999999914,79364.77000004379,83410.30000004685,85492.15500004357,89338.29500002321,99700.50000003539],"key_events":[],"mouse_events":[0.10000000474974513,3030.0000000279397,6144.61499999743,6976.569999998901,9784.169999998994,13444.880000024568,14843.830000027083,15514.140000042971,18373.920000041835,19022.84500002861,20376.705000002403,21051.97000002954,27274.340000003576,28028.655000030994,35802.890000049956,36868.51000000024,37525.9350000415,38628.1650000019,39229.97500002384,49034.535000042524,49734.25500001758,50366.1050000228,54060.80000003567,58714.955000032205,59370.205000042915,62958.52000004379,65764.87000001362,66327.85500003956,66928.46500000451,68818.26000002911,73550.10500003118,76162.20500000054,76876.32999999914,79364.77000004379,82581.92500000587,83410.30000004685,84798.07000001892,85492.15500004357,89338.29500002321,99168.76000002958,99700.50000003539,100640.09500003885],"rt":100645.9250000189,"survey":"pswq","trial_type":"survey-template","trial_index":1,"time_elapsed":103041,"internal_node_id":"0.0-1.0","task_version":"0.2"},{"item_order":[10,7,5,14,6,3,2,8,12,9,4,1,13,0,11,15],"responses":{"Q11":"2","Q08":"2","Q06":"2","Q15":"2","Q07":"3","Q04":"2","Q03":"2","Q09":"2","Q13":"2","Q10":"2","Q05":"1","Q02":"1","Q14":"3","Q01":"2","Q12":"2","Q16":"5"},"radio_events":[6888.180000009015,13089.7100000293,14830.435000010766,20566.244999994524,22791.800000006333,26563.610000011977,30220.35000001779,34631.700000027195,38022.06500002649,43344.50000000652,47422.03000001609,48339.96500005014,54103.6750000203,59721.86500002863,63348.800000036135,71897.88000000408,77469.85000005225,83726.29500000039,89512.17000000179],"key_events":[],"mouse_events":[6888.180000009015,12458.53000000352,13089.7100000293,14830.435000010766,18555.665000050794,19278.11000001384,20067.745000007562,20566.244999994524,22068.560000043362,22791.800000006333,26563.610000011977,30220.35000001779,32745.73500000406,34208.19000003394,34631.700000027195,38022.06500002649,42812.69000004977,43344.50000000652,46297.860000049695,47422.03000001609,48339.96500005014,53481.96500004269,54103.6750000203,59240.13500002911,59721.86500002863,62622.01000005007,63348.800000036135,71131.9450000301,71897.88000000408,76174.17000001296,76983.72000001837,77469.85000005225,82971.9599999953,83726.29500000039,85951.52000000235,86916.1450000247,87463.44500000123,87935.75000000419,89512.17000000179,90102.19500004314],"rt":90107.30000003241,"survey":"nfc","trial_type":"survey-template","trial_index":2,"time_elapsed":193153,"internal_node_id":"0.0-2.0","task_version":"0.2"},{"item_order":[10,11,7,6,2,3,0,12,8,4,5,1,9],"responses":{"Q11":"2","Q12":"0","Q08":"0","Q07":"0","Q03":"0","Q04":"0","Q01":"1","Q13":"4","Q09":"2","Q05":"1","Q06":"0","Q02":"1","Q10":"1"},"radio_events":[6836.609999998473,14381.024999951478,18224.36499997275,23338.99499999825,24380.429999961052,36480.54999997839,40000.33999996958,43204.295000003185,47818.30499996431,54219.02499999851,58278.23499997612,61308.39500000002,64416.589999978896,67440.14500000048],"key_events":[],"mouse_events":[6836.609999998473,11478.66999998223,12342.45999995619,13868.84499998996,14381.024999951478,17492.22999997437,18224.36499997275,22438.384999986738,23338.99499999825,24380.429999961052,35454.854999959935,36480.54999997839,38814.83999994816,40000.33999996958,43204.295000003185,47818.30499996431,54219.02499999851,57532.979999959935,58278.23499997612,60596.92499996163,61308.39500000002,63758.52499995381,64416.589999978896,67108.26999996789,67440.14500000048,68940.65499998396],"rt":68944.55499999458,"survey":"ius12","trial_type":"survey-template","trial_index":3,"time_elapsed":262100,"internal_node_id":"0.0-3.0","task_version":"0.2"},{"view_history":"[{\"page_index\":0,\"viewing_time\":3906.840000010561},{\"page_index\":1,\"viewing_time\":3969.7950000409037},{\"page_index\":2,\"viewing_time\":10565.954999998212},{\"page_index\":3,\"viewing_time\":4838.04499998223},{\"page_index\":4,\"viewing_time\":12224.25500000827},{\"page_index\":5,\"viewing_time\":4295.924999983981},{\"page_index\":6,\"viewing_time\":6719.885000027716},{\"page_index\":7,\"viewing_time\":8970.139999990351},{\"page_index\":8,\"viewing_time\":5766.07499999227},{\"page_index\":9,\"viewing_time\":41563.604999973904}]","rt":102821.04000000982,"trial_type":"instructions","trial_index":4,"time_elapsed":364927,"internal_node_id":"0.0-4.0-0.0","task_version":"0.2"},{"response_times":[1506.200000003446,926.9949999870732,507.1449999813922,1716.9950000243261,2694.439999992028],"keys_pressed":["rightarrow","leftarrow","rightarrow","rightarrow","rightarrow"],"horizon":5,"forced_choices":["rightarrow","leftarrow","rightarrow","rightarrow"],"right_color":"lightblue","left_color":"orange","left_mu":40,"right_mu":20,"left_numbers":[40,44,56,36,51],"right_numbers":[19,31,11,27,23],"points_earned":124,"phase":"practice","trial_type":"horizons-task","trial_index":5,"time_elapsed":373800,"internal_node_id":"0.0-4.0-1.0","task_version":"0.2"},{"response_times":[2367.575000040233,1262.3350000358187,1092.7750000264496,1297.2350000054576,2217.3900000052527,1168.8849999918602,734.6900000120513,699.9899999937043,1897.0250000129454,878.4499999601394],"keys_pressed":["leftarrow","leftarrow","rightarrow","rightarrow","rightarrow","rightarrow","rightarrow","rightarrow","rightarrow","rightarrow"],"horizon":10,"forced_choices":["leftarrow","leftarrow","rightarrow","rightarrow"],"right_color":"orange","left_color":"lightblue","left_mu":60,"right_mu":70,"left_numbers":[60,76,63,72,66,52,75,67,56,59],"right_numbers":[85,88,70,82,65,83,74,59,84,84],"points_earned":737,"phase":"practice","trial_type":"horizons-task","trial_index":6,"time_elapsed":388922,"internal_node_id":"0.0-4.0-2.0","task_version":"0.2"},{"view_history":"[{\"page_index\":0,\"viewing_time\":1795.299999997951},{\"page_index\":1,\"viewing_time\":3378.214999975171},{\"page_index\":2,\"viewing_time\":3436.2700000056066},{\"page_index\":3,\"viewing_time\":1895.3150000306778}]","rt":10505.43999997899,"trial_type":"instructions","trial_index":7,"time_elapsed":399422,"internal_node_id":"0.0-4.0-3.0","task_version":"0.2"},{"responses":["true","false","true"],"num_errors":0,"rt":11698.554999951739,"trial_type":"horizons-comprehension","trial_index":8,"time_elapsed":411123,"internal_node_id":"0.0-4.0-4.0","task_version":"0.2"},{"trial_type":"call-function","trial_index":9,"time_elapsed":411127,"internal_node_id":"0.0-5.0","task_version":"0.2"},{"view_history":"[{\"page_index\":0,\"viewing_time\":1508.2450000336394},{\"page_index\":1,\"viewing_time\":4399.864999984857}]","rt":5908.410000032745,"trial_type":"instructions","trial_index":10,"time_elapsed":417036,"internal_node_id":"0.0-6.0","task_version":"0.2"},{"response_times":[1518.8499999931082,1311.2850000034086,1038.2249999674968,1107.9000000027008,2232.590000028722],"keys_pressed":["leftarrow","rightarrow","leftarrow","rightarrow","leftarrow"],"horizon":5,"forced_choices":["leftarrow","rightarrow","leftarrow","rightarrow"],"right_color":"lightblue","left_color":"orange","left_mu":40,"right_mu":28,"left_numbers":[44,43,45,44,42],"right_numbers":[33,35,34,38,25],"points_earned":204,"phase":"task","trial_type":"horizons-task","trial_index":11,"time_elapsed":425761,"internal_node_id":"0.0-7.0","task_version":"0.2"},{"response_times":[1417.6349999615923,664.3199999816716,696.8699999852106,1075.0649999827147,2930.9899999643676],"keys_pressed":["rightarrow","leftarrow","leftarrow","rightarrow","rightarrow"],"horizon":5,"forced_choices":["rightarrow","leftarrow","leftarrow","rightarrow"],"right_color":"orange","left_color":"lightblue","left_mu":60,"right_mu":72,"left_numbers":[56,59,65,55,68],"right_numbers":[81,75,78,75,69],"points_earned":349,"phase":"task","trial_type":"horizons-task","trial_index":12,"time_elapsed":434052,"internal_node_id":"0.0-8.0","task_version":"0.2"},{"response_times":[845.8199999877252,451.9250000012107,482.3150000302121,535.9450000105426,2274.890000000596,2758.525000012014,1725.6100000231527,1136.4850000245497,359.92000001715496,601.2950000003912],"keys_pressed":["leftarrow","rightarrow","leftarrow","rightarrow","leftarrow","leftarrow","leftarrow","leftarrow","leftarrow","leftarrow"],"horizon":10,"forced_choices":["leftarrow","rightarrow","leftarrow","rightarrow"],"right_color":"orange","left_color":"lightblue","left_mu":40,"right_mu":32,"left_numbers":[49,41,34,36,40,36,53,41,58,34],"right_numbers":[33,26,18,29,23,27,39,31,44,27],"points_earned":400,"phase":"task","trial_type":"horizons-task","trial_index":13,"time_elapsed":446732,"internal_node_id":"0.0-9.0","task_version":"0.2"},{"response_times":[1200.2949999878183,441.1449999897741,670.5100000253879,610.1050000288524,4035.9349999926053,1473.2250000233762,806.6550000221469,860.6550000258721,363.95999998785555,300.1700000022538],"keys_pressed":["rightarrow","leftarrow","leftarrow","rightarrow","leftarrow","leftarrow","leftarrow","leftarrow","leftarrow","leftarrow"],"horizon":10,"forced_choices":["rightarrow","leftarrow","leftarrow","rightarrow"],"right_color":"orange","left_color":"lightblue","left_mu":60,"right_mu":72,"left_numbers":[65,54,72,57,51,52,75,58,54,57],"right_numbers":[47,69,73,56,81,70,73,67,76,84],"points_earned":576,"phase":"task","trial_type":"horizons-task","trial_index":14,"time_elapsed":459012,"internal_node_id":"0.0-10.0","task_version":"0.2"},{"response_times":[1119.9849999975413,1871.4099999633618,764.2750000231899,890.4099999926984,17123.629999987315],"keys_pressed":["leftarrow","leftarrow","rightarrow","leftarrow","rightarrow"],"horizon":5,"forced_choices":["leftarrow","leftarrow","rightarrow","leftarrow"],"right_color":"orange","left_color":"lightblue","left_mu":40,"right_mu":70,"left_numbers":[37,36,39,37,36],"right_numbers":[90,55,64,74,64],"points_earned":238,"phase":"task","trial_type":"horizons-task","trial_index":15,"time_elapsed":482292,"internal_node_id":"0.0-11.0","task_version":"0.2"},{"response_times":[1940.2399999671616,550.3749999916181,588.7149999616668,552.7250000159256,4284.585000015795,10883.090000017546,1906.7100000102073,2266.34999999078,1396.904999972321,1283.5849999682978],"keys_pressed":["leftarrow","leftarrow","rightarrow","leftarrow","rightarrow","rightarrow","rightarrow","rightarrow","rightarrow","rightarrow"],"horizon":10,"forced_choices":["leftarrow","leftarrow","rightarrow","leftarrow"],"right_color":"orange","left_color":"lightblue","left_mu":60,"right_mu":52,"left_numbers":[61,63,64,49,47,53,62,55,54,60],"right_numbers":[49,56,63,56,47,64,57,61,45,79],"points_earned":589,"phase":"task","trial_type":"horizons-task","trial_index":16,"time_elapsed":509456,"internal_node_id":"0.0-12.0","task_version":"0.2"},{"response_times":[911.5950000123121,522.5500000524335,589.5449999952689,482.2149999672547,2219.669999962207,1722.5900000194088,535.7749999966472,648.3899999875575,455.9199999785051,335.54000000003725],"keys_pressed":["rightarrow","rightarrow","leftarrow","rightarrow","rightarrow","rightarrow","rightarrow","rightarrow","rightarrow","rightarrow"],"horizon":10,"forced_choices":["rightarrow","rightarrow","leftarrow","rightarrow"],"right_color":"lightblue","left_color":"orange","left_mu":60,"right_mu":90,"left_numbers":[56,58,55,50,54,46,63,54,56,66],"right_numbers":[83,91,92,90,90,89,111,92,85,91],"points_earned":877,"phase":"task","trial_type":"horizons-task","trial_index":17,"time_elapsed":519387,"internal_node_id":"0.0-13.0","task_version":"0.2"},{"response_times":[654.1650000144728,1262.28500000434,471.529999980703,612.5000000465661,1586.0700000193901],"keys_pressed":["rightarrow","rightarrow","leftarrow","rightarrow","rightarrow"],"horizon":5,"forced_choices":["rightarrow","rightarrow","leftarrow","rightarrow"],"right_color":"lightblue","left_color":"orange","left_mu":60,"right_mu":90,"left_numbers":[63,57,58,46,66],"right_numbers":[95,95,80,75,90],"points_earned":413,"phase":"task","trial_type":"horizons-task","trial_index":18,"time_elapsed":525484,"internal_node_id":"0.0-14.0","task_version":"0.2"},{"response_times":[788.0249999579974,468.6249999795109,526.769999996759,534.4199999817647,2322.9999999748543,1597.1250000293367,1349.9750000191852,577.8250000439584,318.485000054352,628.4699999960139],"keys_pressed":["leftarrow","leftarrow","leftarrow","rightarrow","rightarrow","rightarrow","rightarrow","rightarrow","rightarrow","rightarrow"],"horizon":10,"forced_choices":["leftarrow","leftarrow","leftarrow","rightarrow"],"right_color":"lightblue","left_color":"orange","left_mu":40,"right_mu":44,"left_numbers":[39,44,41,36,35,35,42,32,44,38],"right_numbers":[38,50,50,50,51,48,45,36,45,36],"points_earned":435,"phase":"task","trial_type":"horizons-task","trial_index":19,"time_elapsed":536109,"internal_node_id":"0.0-15.0","task_version":"0.2"},{"response_times":[962.52000000095,546.909999975469,482.82999999355525,542.3500000033528,2023.6150000127964,2431.8749999511056,760.8500000205822,491.0950000048615,302.43500001961365,321.5199999976903],"keys_pressed":["leftarrow","rightarrow","leftarrow","leftarrow","leftarrow","rightarrow","rightarrow","rightarrow","rightarrow","rightarrow"],"horizon":10,"forced_choices":["leftarrow","rightarrow","leftarrow","leftarrow"],"right_color":"lightblue","left_color":"orange","left_mu":60,"right_mu":80,"left_numbers":[64,55,61,61,51,53,53,60,70,62],"right_numbers":[100,53,71,84,90,79,91,80,93,72],"points_earned":705,"phase":"task","trial_type":"horizons-task","trial_index":20,"time_elapsed":546486,"internal_node_id":"0.0-16.0","task_version":"0.2"},{"response_times":[1280.8300000033341,428.0600000056438,706.8199999630451,1193.715000001248,1591.9649999705143],"keys_pressed":["rightarrow","leftarrow","leftarrow","rightarrow","rightarrow"],"horizon":5,"forced_choices":["rightarrow","leftarrow","leftarrow","rightarrow"],"right_color":"lightblue","left_color":"orange","left_mu":60,"right_mu":80,"left_numbers":[56,57,55,47,54],"right_numbers":[66,85,90,82,77],"points_earned":337,"phase":"task","trial_type":"horizons-task","trial_index":21,"time_elapsed":553191,"internal_node_id":"0.0-17.0","task_version":"0.2"},{"response_times":[728.7650000071153,594.1149999853224,437.2299999813549,491.40999995870516,3299.8650000081398,913.9299999806099,816.6099999798462,482.5350000173785,372.98500002361834,283.70000002905726],"keys_pressed":["leftarrow","rightarrow","leftarrow","rightarrow","leftarrow","rightarrow","leftarrow","leftarrow","leftarrow","leftarrow"],"horizon":10,"forced_choices":["leftarrow","rightarrow","leftarrow","rightarrow"],"right_color":"lightblue","left_color":"orange","left_mu":40,"right_mu":28,"left_numbers":[48,26,34,51,51,30,54,43,13,36],"right_numbers":[21,23,23,38,29,13,27,22,20,28],"points_earned":353,"phase":"task","trial_type":"horizons-task","trial_index":22,"time_elapsed":563119,"internal_node_id":"0.0-18.0","task_version":"0.2"},{"response_times":[1084.7349999821745,556.7900000023656,600.4700000048615,594.4499999750406,1348.4000000171363],"keys_pressed":["leftarrow","leftarrow","rightarrow","rightarrow","leftarrow"],"horizon":5,"forced_choices":["leftarrow","leftarrow","rightarrow","rightarrow"],"right_color":"orange","left_color":"lightblue","left_mu":60,"right_mu":30,"left_numbers":[66,51,58,54,71],"right_numbers":[46,30,26,34,30],"points_earned":248,"phase":"task","trial_type":"horizons-task","trial_index":23,"time_elapsed":568810,"internal_node_id":"0.0-19.0","task_version":"0.2"},{"response_times":[686.1700000008568,379.8700000043027,603.3300000126474,467.90000004693866,4063.2600000244565,884.1350000002421,335.5800000135787,281.1850000289269,273.0800000135787,258.74000001931563],"keys_pressed":["rightarrow","leftarrow","rightarrow","leftarrow","rightarrow","leftarrow","leftarrow","leftarrow","leftarrow","leftarrow"],"horizon":10,"forced_choices":["rightarrow","leftarrow","rightarrow","leftarrow"],"right_color":"lightblue","left_color":"orange","left_mu":60,"right_mu":40,"left_numbers":[42,69,72,58,57,68,65,62,52,59],"right_numbers":[42,45,39,29,32,46,50,33,56,56],"points_earned":546,"phase":"task","trial_type":"horizons-task","trial_index":24,"time_elapsed":578547,"internal_node_id":"0.0-20.0","task_version":"0.2"},{"response_times":[881.1599999899045,408.26999995624647,741.8450000113808,1215.5750000383705,4192.190000030678,2475.17000004882,1358.4450000198558,533.1749999895692,305.4450000054203,260.4949999949895],"keys_pressed":["leftarrow","rightarrow","rightarrow","rightarrow","leftarrow","leftarrow","rightarrow","rightarrow","rightarrow","rightarrow"],"horizon":10,"forced_choices":["leftarrow","rightarrow","rightarrow","rightarrow"],"right_color":"orange","left_color":"lightblue","left_mu":60,"right_mu":72,"left_numbers":[54,61,61,72,65,59,65,74,60,61],"right_numbers":[79,76,72,66,68,91,74,65,76,76],"points_earned":683,"phase":"task","trial_type":"horizons-task","trial_index":25,"time_elapsed":592423,"internal_node_id":"0.0-21.0","task_version":"0.2"},{"response_times":[631.6000000224449,388.94999999320135,541.884999955073,466.81000001262873,2111.6999999503605,2448.7999999546446,536.8000000016764,263.4649999672547,272.0050000352785,259.215000027325],"keys_pressed":["rightarrow","leftarrow","rightarrow","rightarrow","leftarrow","leftarrow","leftarrow","leftarrow","leftarrow","leftarrow"],"horizon":10,"forced_choices":["rightarrow","leftarrow","rightarrow","rightarrow"],"right_color":"orange","left_color":"lightblue","left_mu":60,"right_mu":48,"left_numbers":[54,62,60,72,63,70,69,50,72,40],"right_numbers":[52,42,47,53,52,40,56,50,51,51],"points_earned":578,"phase":"task","trial_type":"horizons-task","trial_index":26,"time_elapsed":601849,"internal_node_id":"0.0-22.0","task_version":"0.2"},{"response_times":[1371.5349999838509,399.62500002002344,472.5999999791384,720.4700000002049,3154.930000018794,727.7649999596179,486.10999999800697,305.5199999944307,243.7950000166893,238.75499999849126],"keys_pressed":["leftarrow","rightarrow","leftarrow","leftarrow","leftarrow","rightarrow","leftarrow","leftarrow","leftarrow","leftarrow"],"horizon":10,"forced_choices":["leftarrow","rightarrow","leftarrow","leftarrow"],"right_color":"lightblue","left_color":"orange","left_mu":40,"right_mu":28,"left_numbers":[46,42,47,40,46,33,47,28,41,34],"right_numbers":[34,28,47,15,36,13,25,25,27,26],"points_earned":370,"phase":"task","trial_type":"horizons-task","trial_index":27,"time_elapsed":611478,"internal_node_id":"0.0-23.0","task_version":"0.2"},{"response_times":[602.7799999574199,366.4600000483915,987.2849999810569,524.2750000325032,2578.4850000054576,2017.275000049267,546.6149999992922,350.8249999722466,361.05999996652827,646.6249999939464],"keys_pressed":["leftarrow","rightarrow","rightarrow","leftarrow","rightarrow","rightarrow","rightarrow","rightarrow","rightarrow","rightarrow"],"horizon":10,"forced_choices":["leftarrow","rightarrow","rightarrow","leftarrow"],"right_color":"orange","left_color":"lightblue","left_mu":40,"right_mu":60,"left_numbers":[42,48,34,38,41,46,56,48,39,46],"right_numbers":[55,60,58,68,66,55,70,74,62,65],"points_earned":590,"phase":"task","trial_type":"horizons-task","trial_index":28,"time_elapsed":621966,"internal_node_id":"0.0-24.0","task_version":"0.2"},{"response_times":[668.100000009872,343.98000000510365,484.86500000581145,553.0449999496341,3403.065000020433,693.6100000166334,260.3850000305101,228.05500001413748,226.42500000074506,219.40500003984198],"keys_pressed":["rightarrow","leftarrow","leftarrow","leftarrow","rightarrow","leftarrow","leftarrow","leftarrow","leftarrow","leftarrow"],"horizon":10,"forced_choices":["rightarrow","leftarrow","leftarrow","leftarrow"],"right_color":"orange","left_color":"lightblue","left_mu":40,"right_mu":10,"left_numbers":[41,32,44,27,42,51,46,40,36,29],"right_numbers":[10,7,15,29,11,4,9,0,0,12],"points_earned":326,"phase":"task","trial_type":"horizons-task","trial_index":29,"time_elapsed":630560,"internal_node_id":"0.0-25.0","task_version":"0.2"},{"response_times":[565.5099999858066,452.0500000216998,442.86500004818663,607.2099999873899,1558.290000015404],"keys_pressed":["leftarrow","rightarrow","leftarrow","leftarrow","leftarrow"],"horizon":5,"forced_choices":["leftarrow","rightarrow","leftarrow","leftarrow"],"right_color":"lightblue","left_color":"orange","left_mu":40,"right_mu":28,"left_numbers":[41,31,37,37,38],"right_numbers":[42,20,26,31,25],"points_earned":173,"phase":"task","trial_type":"horizons-task","trial_index":30,"time_elapsed":635696,"internal_node_id":"0.0-26.0","task_version":"0.2"},{"response_times":[512.9949999973178,549.3199999909848,434.0199999860488,421.0099999909289,2793.5600000200793,1387.28500000434,1377.1399999968708,480.039999994915,250.1250000204891,206.27999998396263],"keys_pressed":["leftarrow","leftarrow","rightarrow","leftarrow","rightarrow","rightarrow","rightarrow","rightarrow","rightarrow","rightarrow"],"horizon":10,"forced_choices":["leftarrow","leftarrow","rightarrow","leftarrow"],"right_color":"orange","left_color":"lightblue","left_mu":40,"right_mu":70,"left_numbers":[53,46,32,47,25,42,57,40,45,31],"right_numbers":[69,74,66,82,53,61,58,71,79,78],"points_earned":612,"phase":"task","trial_type":"horizons-task","trial_index":31,"time_elapsed":645619,"internal_node_id":"0.0-27.0","task_version":"0.2"},{"response_times":[603.8399999961257,531.6950000124052,471.61999996751547,629.9800000269897,1801.4449999900535],"keys_pressed":["rightarrow","leftarrow","rightarrow","rightarrow","leftarrow"],"horizon":5,"forced_choices":["rightarrow","leftarrow","rightarrow","rightarrow"],"right_color":"orange","left_color":"lightblue","left_mu":60,"right_mu":48,"left_numbers":[69,65,75,50,64],"right_numbers":[33,54,46,56,54],"points_earned":264,"phase":"task","trial_type":"horizons-task","trial_index":32,"time_elapsed":651167,"internal_node_id":"0.0-28.0","task_version":"0.2"},{"response_times":[1681.2600000412203,578.3899999805726,483.6549999890849,485.2050000336021,2645.105000003241,1674.7450000257231,314.6800000104122,285.8099999721162,265.72500000474975,268.7100000330247],"keys_pressed":["leftarrow","leftarrow","rightarrow","rightarrow","leftarrow","leftarrow","leftarrow","leftarrow","leftarrow","leftarrow"],"horizon":10,"forced_choices":["leftarrow","leftarrow","rightarrow","rightarrow"],"right_color":"lightblue","left_color":"orange","left_mu":40,"right_mu":20,"left_numbers":[49,40,47,32,44,45,32,30,30,54],"right_numbers":[24,20,35,21,1,24,11,27,14,17],"points_earned":380,"phase":"task","trial_type":"horizons-task","trial_index":33,"time_elapsed":661354,"internal_node_id":"0.0-29.0","task_version":"0.2"},{"response_times":[611.8000000133179,626.7600000137463,351.78499994799495,361.38000001665205,3194.0300000132993],"keys_pressed":["leftarrow","rightarrow","leftarrow","rightarrow","leftarrow"],"horizon":5,"forced_choices":["leftarrow","rightarrow","leftarrow","rightarrow"],"right_color":"orange","left_color":"lightblue","left_mu":60,"right_mu":56,"left_numbers":[65,40,73,70,43],"right_numbers":[71,47,42,51,62],"points_earned":279,"phase":"task","trial_type":"horizons-task","trial_index":34,"time_elapsed":668008,"internal_node_id":"0.0-30.0","task_version":"0.2"},{"response_times":[929.7050000168383,333.9849999756552,541.849999979604,531.174999952782,2289.9099999922328],"keys_pressed":["rightarrow","leftarrow","leftarrow","leftarrow","leftarrow"],"horizon":5,"forced_choices":["rightarrow","leftarrow","leftarrow","leftarrow"],"right_color":"orange","left_color":"lightblue","left_mu":40,"right_mu":10,"left_numbers":[51,24,39,40,48],"right_numbers":[7,2,29,6,14],"points_earned":158,"phase":"task","trial_type":"horizons-task","trial_index":35,"time_elapsed":674142,"internal_node_id":"0.0-31.0","task_version":"0.2"},{"response_times":[662.4999999767169,494.49999997159466,438.7550000101328,475.3350000246428,2143.5250000213273],"keys_pressed":["rightarrow","rightarrow","leftarrow","leftarrow","leftarrow"],"horizon":5,"forced_choices":["rightarrow","rightarrow","leftarrow","leftarrow"],"right_color":"orange","left_color":"lightblue","left_mu":40,"right_mu":10,"left_numbers":[36,42,37,43,35],"right_numbers":[10,0,4,12,3],"points_earned":125,"phase":"task","trial_type":"horizons-task","trial_index":36,"time_elapsed":679859,"internal_node_id":"0.0-32.0","task_version":"0.2"},{"response_times":[619.9349999660626,819.7149999905378,339.6599999978207,351.68000002158806,6251.194999960717,720.595000020694,1647.3300000070594,2060.4099999764003,937.2550000553019,6058.940000017174],"keys_pressed":["leftarrow","rightarrow","leftarrow","rightarrow","rightarrow","leftarrow","leftarrow","leftarrow","rightarrow","rightarrow"],"horizon":10,"forced_choices":["leftarrow","rightarrow","leftarrow","rightarrow"],"right_color":"lightblue","left_color":"orange","left_mu":40,"right_mu":52,"left_numbers":[27,52,39,36,36,48,55,22,29,27],"right_numbers":[54,51,57,45,61,59,42,40,45,53],"points_earned":446,"phase":"task","trial_type":"horizons-task","trial_index":37,"time_elapsed":701175,"internal_node_id":"0.0-33.0","task_version":"0.2"},{"response_times":[720.6400000141002,405.1249999902211,611.5749999880791,421.23500001616776,1320.8849999937229,1014.9450000026263,545.5200000433251,608.3199999993667,224.32999999728054,205.71499998914078],"keys_pressed":["leftarrow","rightarrow","rightarrow","leftarrow","leftarrow","rightarrow","leftarrow","leftarrow","leftarrow","leftarrow"],"horizon":10,"forced_choices":["leftarrow","rightarrow","rightarrow","leftarrow"],"right_color":"orange","left_color":"lightblue","left_mu":60,"right_mu":52,"left_numbers":[59,56,56,63,62,55,61,61,57,56],"right_numbers":[48,53,61,62,67,50,49,35,58,51],"points_earned":583,"phase":"task","trial_type":"horizons-task","trial_index":38,"time_elapsed":708758,"internal_node_id":"0.0-34.0","task_version":"0.2"},{"response_times":[631.4300000085495,534.540000022389,504.0999999619089,435.0500000291504,2236.7550000199117,1280.635000031907,2382.0900000282563,1164.4749999977648,1136.56000001356,696.2099999655038],"keys_pressed":["rightarrow","rightarrow","rightarrow","leftarrow","leftarrow","rightarrow","rightarrow","leftarrow","leftarrow","rightarrow"],"horizon":10,"forced_choices":["rightarrow","rightarrow","rightarrow","leftarrow"],"right_color":"orange","left_color":"lightblue","left_mu":40,"right_mu":36,"left_numbers":[40,43,35,51,34,46,35,44,35,39],"right_numbers":[31,36,43,28,31,40,44,39,26,38],"points_earned":396,"phase":"task","trial_type":"horizons-task","trial_index":39,"time_elapsed":721267,"internal_node_id":"0.0-35.0","task_version":"0.2"},{"response_times":[553.1349999946542,383.8800000376068,510.1600000052713,402.7450000285171,1842.9500000202097,622.655000013765,309.8500000196509,254.27499995566905,227.14999999152496,234.08000002382323],"keys_pressed":["rightarrow","leftarrow","leftarrow","rightarrow","rightarrow","rightarrow","rightarrow","rightarrow","rightarrow","rightarrow"],"horizon":10,"forced_choices":["rightarrow","leftarrow","leftarrow","rightarrow"],"right_color":"lightblue","left_color":"orange","left_mu":60,"right_mu":90,"left_numbers":[64,63,63,48,59,58,59,53,64,65],"right_numbers":[82,86,81,94,86,80,78,75,97,95],"points_earned":813,"phase":"task","trial_type":"horizons-task","trial_index":40,"time_elapsed":728115,"internal_node_id":"0.0-36.0","task_version":"0.2"},{"response_times":[1038.4399999747984,475.7899999967776,517.0100000104867,676.1150000384077,1181.71999999322,640.7450000406243,540.1100000017323,256.4499999862164,203.76000000396743,214.57999997073784],"keys_pressed":["leftarrow","leftarrow","rightarrow","rightarrow","leftarrow","leftarrow","leftarrow","leftarrow","leftarrow","leftarrow"],"horizon":10,"forced_choices":["leftarrow","leftarrow","rightarrow","rightarrow"],"right_color":"orange","left_color":"lightblue","left_mu":60,"right_mu":30,"left_numbers":[61,73,55,63,60,63,73,74,52,61],"right_numbers":[20,21,28,29,14,38,34,27,42,24],"points_earned":574,"phase":"task","trial_type":"horizons-task","trial_index":41,"time_elapsed":735365,"internal_node_id":"0.0-37.0","task_version":"0.2"},{"response_times":[631.885000038892,717.865000013262,403.7349999998696,1010.9599999850616,1876.029999984894,1912.2150000184774,650.6049999734387,466.9850000063889,244.83999999938533,225.9399999747984],"keys_pressed":["rightarrow","rightarrow","leftarrow","leftarrow","rightarrow","rightarrow","leftarrow","leftarrow","leftarrow","leftarrow"],"horizon":10,"forced_choices":["rightarrow","rightarrow","leftarrow","leftarrow"],"right_color":"orange","left_color":"lightblue","left_mu":40,"right_mu":36,"left_numbers":[34,31,34,57,36,52,42,46,58,34],"right_numbers":[41,34,32,40,38,38,32,43,44,17],"points_earned":422,"phase":"task","trial_type":"horizons-task","trial_index":42,"time_elapsed":745012,"internal_node_id":"0.0-38.0","task_version":"0.2"},{"response_times":[542.7900000358932,521.0400000214577,497.12499999441206,992.1699999831617,2134.554999996908,1287.0899999979883,451.16500003496185,266.3149999571033,248.45499999355525,211.974999983795],"keys_pressed":["rightarrow","leftarrow","leftarrow","leftarrow","rightarrow","rightarrow","rightarrow","rightarrow","rightarrow","rightarrow"],"horizon":10,"forced_choices":["rightarrow","leftarrow","leftarrow","leftarrow"],"right_color":"lightblue","left_color":"orange","left_mu":60,"right_mu":68,"left_numbers":[69,64,64,57,63,77,62,47,49,73],"right_numbers":[75,76,71,51,77,70,59,75,67,71],"points_earned":679,"phase":"task","trial_type":"horizons-task","trial_index":43,"time_elapsed":753672,"internal_node_id":"0.0-39.0","task_version":"0.2"},{"response_times":[514.4599999766797,453.9249999797903,536.8400000152178,478.8950000074692,1853.800000040792,1072.184999997262,299.5600000140257,241.39999999897555,224.12999998778105,227.8599999845028],"keys_pressed":["rightarrow","leftarrow","leftarrow","rightarrow","rightarrow","rightarrow","rightarrow","rightarrow","rightarrow","rightarrow"],"horizon":10,"forced_choices":["rightarrow","leftarrow","leftarrow","rightarrow"],"right_color":"lightblue","left_color":"orange","left_mu":60,"right_mu":80,"left_numbers":[72,62,52,51,54,52,49,61,45,43],"right_numbers":[88,67,81,74,77,87,72,80,76,78],"points_earned":746,"phase":"task","trial_type":"horizons-task","trial_index":44,"time_elapsed":761085,"internal_node_id":"0.0-40.0","task_version":"0.2"},{"response_times":[624.7199999634176,455.4150000330992,420.72499997448176,461.829999985639,3432.4650000198744,602.4099999922328,598.5700000310317,257.1699999971315,225.12999997707084,197.44999997783452],"keys_pressed":["rightarrow","rightarrow","leftarrow","rightarrow","rightarrow","leftarrow","leftarrow","leftarrow","leftarrow","leftarrow"],"horizon":10,"forced_choices":["rightarrow","rightarrow","leftarrow","rightarrow"],"right_color":"orange","left_color":"lightblue","left_mu":60,"right_mu":56,"left_numbers":[62,62,43,60,65,69,58,41,57,58],"right_numbers":[64,51,49,45,45,65,53,32,45,40],"points_earned":531,"phase":"task","trial_type":"horizons-task","trial_index":45,"time_elapsed":769870,"internal_node_id":"0.0-41.0","task_version":"0.2"},{"response_times":[825.0549999647774,330.2200000034645,537.7149999840185,454.15000000502914,1577.7299999608658],"keys_pressed":["leftarrow","rightarrow","rightarrow","leftarrow","leftarrow"],"horizon":5,"forced_choices":["leftarrow","rightarrow","rightarrow","leftarrow"],"right_color":"orange","left_color":"lightblue","left_mu":60,"right_mu":52,"left_numbers":[69,59,51,60,50],"right_numbers":[51,54,53,59,58],"points_earned":286,"phase":"task","trial_type":"horizons-task","trial_index":46,"time_elapsed":775100,"internal_node_id":"0.0-42.0","task_version":"0.2"},{"response_times":[669.0999999991618,344.3699999479577,464.4899999839254,799.8599999700673,1675.0650000176392,888.3949999581091,1415.9099999815226,834.0050000115298,617.9450000054203,297.01000003842637],"keys_pressed":["leftarrow","rightarrow","rightarrow","rightarrow","leftarrow","rightarrow","leftarrow","rightarrow","rightarrow","rightarrow"],"horizon":10,"forced_choices":["leftarrow","rightarrow","rightarrow","rightarrow"],"right_color":"lightblue","left_color":"orange","left_mu":40,"right_mu":48,"left_numbers":[51,38,45,45,45,39,42,30,43,24],"right_numbers":[41,50,45,48,47,46,33,55,51,42],"points_earned":475,"phase":"task","trial_type":"horizons-task","trial_index":47,"time_elapsed":784612,"internal_node_id":"0.0-43.0","task_version":"0.2"},{"response_times":[1054.1599999996834,567.1699999948032,2868.4900000225753,501.1950000189245,1045.0200000195764,1281.2600000179373,880.1799999782816,566.5949999820441,238.87000000104308,224.01000000536442],"keys_pressed":["leftarrow","rightarrow","rightarrow","rightarrow","leftarrow","leftarrow","leftarrow","leftarrow","leftarrow","leftarrow"],"horizon":10,"forced_choices":["leftarrow","rightarrow","rightarrow","rightarrow"],"right_color":"orange","left_color":"lightblue","left_mu":60,"right_mu":30,"left_numbers":[60,60,49,62,53,74,59,60,63,71],"right_numbers":[14,16,46,43,38,24,18,29,35,31],"points_earned":545,"phase":"task","trial_type":"horizons-task","trial_index":48,"time_elapsed":795346,"internal_node_id":"0.0-44.0","task_version":"0.2"},{"response_times":[587.8399999928661,566.4149999502115,498.8249999587424,1020.3849999816157,968.0450000450946,3231.9250000291504,1055.2950000273995,245.9750000271015,463.75500003341585,932.7799999737181],"keys_pressed":["rightarrow","rightarrow","leftarrow","leftarrow","rightarrow","rightarrow","rightarrow","rightarrow","rightarrow","leftarrow"],"horizon":10,"forced_choices":["rightarrow","rightarrow","leftarrow","leftarrow"],"right_color":"lightblue","left_color":"orange","left_mu":40,"right_mu":48,"left_numbers":[27,40,35,49,42,25,36,42,40,37],"right_numbers":[58,55,58,41,59,58,53,39,34,37],"points_earned":477,"phase":"task","trial_type":"horizons-task","trial_index":49,"time_elapsed":806428,"internal_node_id":"0.0-45.0","task_version":"0.2"},{"response_times":[797.2799999988638,401.94499999051914,957.18999998644,1851.3199999579228,1463.9749999623746],"keys_pressed":["leftarrow","rightarrow","rightarrow","rightarrow","leftarrow"],"horizon":5,"forced_choices":["leftarrow","rightarrow","rightarrow","rightarrow"],"right_color":"orange","left_color":"lightblue","left_mu":60,"right_mu":30,"left_numbers":[47,55,60,57,54],"right_numbers":[30,33,35,39,33],"points_earned":208,"phase":"task","trial_type":"horizons-task","trial_index":50,"time_elapsed":813406,"internal_node_id":"0.0-46.0","task_version":"0.2"},{"view_history":"[{\"page_index\":0,\"viewing_time\":3608.7699999916367},{\"page_index\":1,\"viewing_time\":2564.009999972768}]","rt":6173.284999968018,"trial_type":"instructions","trial_index":51,"time_elapsed":819580,"internal_node_id":"0.0-47.0","task_version":"0.2"},{"response_times":[1129.9800000269897,465.75000003213063,472.0300000044517,1331.0549999587238,4024.3050000281073],"keys_pressed":["rightarrow","leftarrow","leftarrow","leftarrow","leftarrow"],"horizon":5,"forced_choices":["rightarrow","leftarrow","leftarrow","leftarrow"],"right_color":"lightblue","left_color":"orange","left_mu":60,"right_mu":68,"left_numbers":[48,68,64,54,54],"right_numbers":[82,70,77,71,75],"points_earned":322,"phase":"task","trial_type":"horizons-task","trial_index":52,"time_elapsed":828519,"internal_node_id":"0.0-48.0","task_version":"0.2"},{"response_times":[874.2300000158139,1692.4250000156462,436.3149999990128,451.5150000224821,3479.8449999652803],"keys_pressed":["rightarrow","rightarrow","leftarrow","leftarrow","leftarrow"],"horizon":5,"forced_choices":["rightarrow","rightarrow","leftarrow","leftarrow"],"right_color":"lightblue","left_color":"orange","left_mu":40,"right_mu":48,"left_numbers":[41,37,63,43,39],"right_numbers":[54,46,31,43,47],"points_earned":245,"phase":"task","trial_type":"horizons-task","trial_index":53,"time_elapsed":836956,"internal_node_id":"0.0-49.0","task_version":"0.2"},{"response_times":[1204.0300000226125,848.5850000288337,438.9599999994971,454.8349999822676,2290.325000009034],"keys_pressed":["leftarrow","leftarrow","leftarrow","rightarrow","leftarrow"],"horizon":5,"forced_choices":["leftarrow","leftarrow","leftarrow","rightarrow"],"right_color":"lightblue","left_color":"orange","left_mu":40,"right_mu":44,"left_numbers":[38,40,8,45,48],"right_numbers":[41,53,37,30,27],"points_earned":164,"phase":"task","trial_type":"horizons-task","trial_index":54,"time_elapsed":843698,"internal_node_id":"0.0-50.0","task_version":"0.2"},{"response_times":[667.3300000256859,405.5950000183657,465.009999985341,407.40999998524785,1347.9700000025332],"keys_pressed":["leftarrow","leftarrow","rightarrow","rightarrow","leftarrow"],"horizon":5,"forced_choices":["leftarrow","leftarrow","rightarrow","rightarrow"],"right_color":"lightblue","left_color":"orange","left_mu":40,"right_mu":20,"left_numbers":[50,33,35,47,41],"right_numbers":[24,28,37,15,15],"points_earned":176,"phase":"task","trial_type":"horizons-task","trial_index":55,"time_elapsed":848501,"internal_node_id":"0.0-51.0","task_version":"0.2"},{"response_times":[512.8850000328384,613.4249999886379,396.45499998005107,404.89999996498227,2421.665000030771],"keys_pressed":["rightarrow","leftarrow","rightarrow","leftarrow","rightarrow"],"horizon":5,"forced_choices":["rightarrow","leftarrow","rightarrow","leftarrow"],"right_color":"lightblue","left_color":"orange","left_mu":40,"right_mu":44,"left_numbers":[22,39,40,25,54],"right_numbers":[51,51,32,50,36],"points_earned":183,"phase":"task","trial_type":"horizons-task","trial_index":56,"time_elapsed":854357,"internal_node_id":"0.0-52.0","task_version":"0.2"},{"response_times":[695.8749999757856,384.78000002214685,772.9650000110269,402.2349999868311,1351.859999995213],"keys_pressed":["leftarrow","rightarrow","rightarrow","leftarrow","rightarrow"],"horizon":5,"forced_choices":["leftarrow","rightarrow","rightarrow","leftarrow"],"right_color":"orange","left_color":"lightblue","left_mu":40,"right_mu":60,"left_numbers":[45,50,43,49,47],"right_numbers":[66,56,49,72,66],"points_earned":265,"phase":"task","trial_type":"horizons-task","trial_index":57,"time_elapsed":859474,"internal_node_id":"0.0-53.0","task_version":"0.2"},{"response_times":[615.8799999975599,543.9149999874644,405.7299999985844,474.9850000371225,2751.4049999881536],"keys_pressed":["leftarrow","leftarrow","rightarrow","rightarrow","leftarrow"],"horizon":5,"forced_choices":["leftarrow","leftarrow","rightarrow","rightarrow"],"right_color":"orange","left_color":"lightblue","left_mu":60,"right_mu":48,"left_numbers":[46,54,53,62,68],"right_numbers":[46,45,46,50,43],"points_earned":264,"phase":"task","trial_type":"horizons-task","trial_index":58,"time_elapsed":865768,"internal_node_id":"0.0-54.0","task_version":"0.2"},{"response_times":[580.5750000290573,393.68000003742054,478.6500000045635,392.2450000536628,1646.599999978207],"keys_pressed":["rightarrow","leftarrow","leftarrow","rightarrow","rightarrow"],"horizon":5,"forced_choices":["rightarrow","leftarrow","leftarrow","rightarrow"],"right_color":"orange","left_color":"lightblue","left_mu":40,"right_mu":70,"left_numbers":[39,50,46,33,25],"right_numbers":[51,67,59,68,67],"points_earned":282,"phase":"task","trial_type":"horizons-task","trial_index":59,"time_elapsed":870769,"internal_node_id":"0.0-55.0","task_version":"0.2"},{"response_times":[843.0950000183657,451.85499999206513,371.4649999747053,448.2749999733642,1599.5750000001863],"keys_pressed":["leftarrow","rightarrow","leftarrow","rightarrow","rightarrow"],"horizon":5,"forced_choices":["leftarrow","rightarrow","leftarrow","rightarrow"],"right_color":"lightblue","left_color":"orange","left_mu":40,"right_mu":52,"left_numbers":[32,52,32,43,42],"right_numbers":[65,58,66,43,46],"points_earned":211,"phase":"task","trial_type":"horizons-task","trial_index":60,"time_elapsed":875991,"internal_node_id":"0.0-56.0","task_version":"0.2"},{"response_times":[612.7950000227429,791.7100000195205,539.2700000084005,403.4300000057556,3059.545000025537,3266.925000003539,614.4949999870732,1072.329999995418,333.37499998742715,262.54500000504777],"keys_pressed":["rightarrow","leftarrow","leftarrow","leftarrow","rightarrow","rightarrow","leftarrow","rightarrow","rightarrow","rightarrow"],"horizon":10,"forced_choices":["rightarrow","leftarrow","leftarrow","leftarrow"],"right_color":"orange","left_color":"lightblue","left_mu":40,"right_mu":32,"left_numbers":[52,46,36,38,42,44,16,43,40,41],"right_numbers":[22,35,38,30,37,26,33,34,25,11],"points_earned":291,"phase":"task","trial_type":"horizons-task","trial_index":61,"time_elapsed":888458,"internal_node_id":"0.0-57.0","task_version":"0.2"},{"response_times":[726.6700000036508,462.91000000201166,730.7950000395067,371.4900000486523,1524.1650000098161,1963.3750000502914,1157.9599999822676,546.0400000447407,279.18499999213964,243.34500002441928],"keys_pressed":["rightarrow","rightarrow","rightarrow","leftarrow","leftarrow","leftarrow","leftarrow","leftarrow","leftarrow","leftarrow"],"horizon":10,"forced_choices":["rightarrow","rightarrow","rightarrow","leftarrow"],"right_color":"lightblue","left_color":"orange","left_mu":40,"right_mu":20,"left_numbers":[37,25,34,40,32,31,42,44,40,42],"right_numbers":[32,10,22,32,23,28,25,16,3,27],"points_earned":335,"phase":"task","trial_type":"horizons-task","trial_index":62,"time_elapsed":897969,"internal_node_id":"0.0-58.0","task_version":"0.2"},{"response_times":[870.7549999817275,521.134999988135,417.0699999667704,426.2950000120327,2421.730000001844,752.8549999697134,925.6750000058673,511.41000003553927,347.0499999821186,307.3650000151247],"keys_pressed":["rightarrow","rightarrow","leftarrow","leftarrow","leftarrow","leftarrow","leftarrow","leftarrow","leftarrow","leftarrow"],"horizon":10,"forced_choices":["rightarrow","rightarrow","leftarrow","leftarrow"],"right_color":"orange","left_color":"lightblue","left_mu":40,"right_mu":10,"left_numbers":[44,40,44,25,39,37,38,24,44,28],"right_numbers":[0,15,22,6,3,0,10,19,22,13],"points_earned":294,"phase":"task","trial_type":"horizons-task","trial_index":63,"time_elapsed":906982,"internal_node_id":"0.0-59.0","task_version":"0.2"},{"response_times":[1042.3549999832176,444.4600000279024,347.88499999558553,309.9849999998696,2929.385000024922],"keys_pressed":["leftarrow","rightarrow","leftarrow","rightarrow","leftarrow"],"horizon":5,"forced_choices":["leftarrow","rightarrow","leftarrow","rightarrow"],"right_color":"orange","left_color":"lightblue","left_mu":40,"right_mu":32,"left_numbers":[31,45,45,24,42],"right_numbers":[33,26,46,24,27],"points_earned":168,"phase":"task","trial_type":"horizons-task","trial_index":64,"time_elapsed":913567,"internal_node_id":"0.0-60.0","task_version":"0.2"},{"response_times":[742.8550000186078,371.2449999875389,549.3600000045262,506.5399999730289,1995.2100000227802],"keys_pressed":["rightarrow","leftarrow","leftarrow","leftarrow","leftarrow"],"horizon":5,"forced_choices":["rightarrow","leftarrow","leftarrow","leftarrow"],"right_color":"orange","left_color":"lightblue","left_mu":40,"right_mu":32,"left_numbers":[33,36,36,43,48],"right_numbers":[25,28,25,45,40],"points_earned":188,"phase":"task","trial_type":"horizons-task","trial_index":65,"time_elapsed":919240,"internal_node_id":"0.0-61.0","task_version":"0.2"},{"response_times":[716.3200000068173,398.18499999819323,326.4700000290759,338.309999962803,2850.5700000096112,1506.67999999132,4346.975000051316,1830.9850000077859,619.4350000005215,349.42000004230067],"keys_pressed":["leftarrow","rightarrow","leftarrow","rightarrow","rightarrow","leftarrow","rightarrow","leftarrow","leftarrow","leftarrow"],"horizon":10,"forced_choices":["leftarrow","rightarrow","leftarrow","rightarrow"],"right_color":"orange","left_color":"lightblue","left_mu":60,"right_mu":56,"left_numbers":[56,65,69,61,52,66,54,66,45,67],"right_numbers":[46,70,64,57,65,57,61,49,46,47],"points_earned":622,"phase":"task","trial_type":"horizons-task","trial_index":66,"time_elapsed":934027,"internal_node_id":"0.0-62.0","task_version":"0.2"},{"response_times":[619.9399999459274,626.3449999969453,412.4449999653734,1627.0500000100583,1249.0999999572523],"keys_pressed":["leftarrow","leftarrow","rightarrow","leftarrow","leftarrow"],"horizon":5,"forced_choices":["leftarrow","leftarrow","rightarrow","leftarrow"],"right_color":"orange","left_color":"lightblue","left_mu":60,"right_mu":52,"left_numbers":[80,53,64,59,55],"right_numbers":[52,43,36,50,62],"points_earned":283,"phase":"task","trial_type":"horizons-task","trial_index":67,"time_elapsed":940064,"internal_node_id":"0.0-63.0","task_version":"0.2"},{"response_times":[668.790000025183,553.1499999924563,599.965000001248,562.7650000387803,3036.48999996949],"keys_pressed":["rightarrow","rightarrow","leftarrow","leftarrow","leftarrow"],"horizon":5,"forced_choices":["rightarrow","rightarrow","leftarrow","leftarrow"],"right_color":"orange","left_color":"lightblue","left_mu":40,"right_mu":36,"left_numbers":[28,18,55,34,53],"right_numbers":[36,49,48,25,35],"points_earned":227,"phase":"task","trial_type":"horizons-task","trial_index":68,"time_elapsed":946990,"internal_node_id":"0.0-64.0","task_version":"0.2"},{"response_times":[543.9449999830686,556.3749999855645,338.2899999851361,424.66000001877546,5865.654999972321,1309.1049999929965,1864.5300000207499,416.0249999840744,264.74000001326203,258.365000016056],"keys_pressed":["rightarrow","rightarrow","leftarrow","rightarrow","leftarrow","leftarrow","leftarrow","leftarrow","leftarrow","leftarrow"],"horizon":10,"forced_choices":["rightarrow","rightarrow","leftarrow","rightarrow"],"right_color":"lightblue","left_color":"orange","left_mu":60,"right_mu":40,"left_numbers":[69,59,74,52,56,52,61,71,65,72],"right_numbers":[30,35,53,40,30,35,42,36,34,54],"points_earned":556,"phase":"task","trial_type":"horizons-task","trial_index":69,"time_elapsed":960343,"internal_node_id":"0.0-65.0","task_version":"0.2"},{"response_times":[513.0149999749847,414.18500000145286,411.1549999797717,317.7099999738857,2205.835000029765],"keys_pressed":["rightarrow","leftarrow","rightarrow","leftarrow","leftarrow"],"horizon":5,"forced_choices":["rightarrow","leftarrow","rightarrow","leftarrow"],"right_color":"lightblue","left_color":"orange","left_mu":60,"right_mu":40,"left_numbers":[58,51,43,65,65],"right_numbers":[33,44,40,42,52],"points_earned":254,"phase":"task","trial_type":"horizons-task","trial_index":70,"time_elapsed":965707,"internal_node_id":"0.0-66.0","task_version":"0.2"},{"response_times":[544.995000003837,329.86500003607944,439.5200000144541,396.6150000342168,6585.35499998834,861.6299999994226,712.2100000269711,569.6049999678507,308.95500001497567,280.66500002751127],"keys_pressed":["rightarrow","leftarrow","leftarrow","rightarrow","rightarrow","rightarrow","rightarrow","rightarrow","rightarrow","rightarrow"],"horizon":10,"forced_choices":["rightarrow","leftarrow","leftarrow","rightarrow"],"right_color":"orange","left_color":"lightblue","left_mu":40,"right_mu":70,"left_numbers":[36,46,34,43,37,53,23,50,31,35],"right_numbers":[72,73,68,62,62,76,80,74,71,65],"points_earned":642,"phase":"task","trial_type":"horizons-task","trial_index":71,"time_elapsed":978247,"internal_node_id":"0.0-67.0","task_version":"0.2"},{"response_times":[973.2450000010431,793.2150000124238,1202.40000000922,1195.145000005141,4188.8400000170805,1293.6299999710172,1392.16500002658,484.93500001495704,272.3450000048615,246.21999997179955],"keys_pressed":["leftarrow","leftarrow","leftarrow","rightarrow","rightarrow","rightarrow","rightarrow","rightarrow","rightarrow","rightarrow"],"horizon":10,"forced_choices":["leftarrow","leftarrow","leftarrow","rightarrow"],"right_color":"lightblue","left_color":"orange","left_mu":40,"right_mu":52,"left_numbers":[40,33,52,32,57,44,49,44,45,44],"right_numbers":[44,57,52,62,48,52,52,41,66,43],"points_earned":489,"phase":"task","trial_type":"horizons-task","trial_index":72,"time_elapsed":991796,"internal_node_id":"0.0-68.0","task_version":"0.2"},{"response_times":[716.8449999880977,325.1550000277348,1020.2300000237301,949.1949999937788,1927.6799999643117],"keys_pressed":["leftarrow","rightarrow","rightarrow","rightarrow","rightarrow"],"horizon":5,"forced_choices":["leftarrow","rightarrow","rightarrow","rightarrow"],"right_color":"orange","left_color":"lightblue","left_mu":60,"right_mu":72,"left_numbers":[60,49,66,51,75],"right_numbers":[71,69,66,65,75],"points_earned":335,"phase":"task","trial_type":"horizons-task","trial_index":73,"time_elapsed":998244,"internal_node_id":"0.0-69.0","task_version":"0.2"},{"response_times":[877.8150000143796,878.374999971129,381.22500001918525,1407.210000033956,1401.3700000359677],"keys_pressed":["rightarrow","leftarrow","rightarrow","rightarrow","rightarrow"],"horizon":5,"forced_choices":["rightarrow","leftarrow","rightarrow","rightarrow"],"right_color":"lightblue","left_color":"orange","left_mu":60,"right_mu":64,"left_numbers":[71,55,54,53,62],"right_numbers":[74,65,65,58,48],"points_earned":300,"phase":"task","trial_type":"horizons-task","trial_index":74,"time_elapsed":1004699,"internal_node_id":"0.0-70.0","task_version":"0.2"},{"response_times":[513.1050000200048,454.1000000317581,712.3549999669194,372.73999996250495,1412.1599999489263],"keys_pressed":["rightarrow","rightarrow","leftarrow","rightarrow","rightarrow"],"horizon":5,"forced_choices":["rightarrow","rightarrow","leftarrow","rightarrow"],"right_color":"orange","left_color":"lightblue","left_mu":60,"right_mu":56,"left_numbers":[65,73,54,64,64],"right_numbers":[59,62,51,60,61],"points_earned":296,"phase":"task","trial_type":"horizons-task","trial_index":75,"time_elapsed":1009669,"internal_node_id":"0.0-71.0","task_version":"0.2"},{"response_times":[397.4100000341423,454.07500001601875,523.8099999842234,485.1199999684468,1690.065000031609],"keys_pressed":["rightarrow","rightarrow","rightarrow","leftarrow","rightarrow"],"horizon":5,"forced_choices":["rightarrow","rightarrow","rightarrow","leftarrow"],"right_color":"orange","left_color":"lightblue","left_mu":40,"right_mu":36,"left_numbers":[48,40,42,36,35],"right_numbers":[52,45,30,29,31],"points_earned":194,"phase":"task","trial_type":"horizons-task","trial_index":76,"time_elapsed":1014725,"internal_node_id":"0.0-72.0","task_version":"0.2"},{"response_times":[511.3649999839254,485.1100000087172,331.9749999791384,461.72500000102445,1131.8399999872781,1501.0749999783002,843.6699999729171,5808.929999999236,574.7100000153296,296.6850000084378],"keys_pressed":["rightarrow","leftarrow","rightarrow","rightarrow","rightarrow","leftarrow","leftarrow","rightarrow","rightarrow","rightarrow"],"horizon":10,"forced_choices":["rightarrow","leftarrow","rightarrow","rightarrow"],"right_color":"lightblue","left_color":"orange","left_mu":60,"right_mu":64,"left_numbers":[54,55,57,49,59,67,56,54,74,55],"right_numbers":[74,53,65,78,65,65,68,69,78,66],"points_earned":673,"phase":"task","trial_type":"horizons-task","trial_index":77,"time_elapsed":1028176,"internal_node_id":"0.0-73.0","task_version":"0.2"},{"response_times":[788.9750000322238,386.1349999788217,364.4649999914691,402.79500000178814,1686.4949999726377,591.8400000082329,996.6100000310689,889.7950000246055,310.1449999958277,290.90500000165775],"keys_pressed":["leftarrow","leftarrow","rightarrow","leftarrow","rightarrow","rightarrow","rightarrow","rightarrow","rightarrow","rightarrow"],"horizon":10,"forced_choices":["leftarrow","leftarrow","rightarrow","leftarrow"],"right_color":"orange","left_color":"lightblue","left_mu":40,"right_mu":60,"left_numbers":[45,42,44,55,42,40,39,47,45,40],"right_numbers":[61,59,55,52,71,59,75,56,50,67],"points_earned":575,"phase":"task","trial_type":"horizons-task","trial_index":78,"time_elapsed":1036390,"internal_node_id":"0.0-74.0","task_version":"0.2"},{"response_times":[705.5200000177138,526.6500000143424,378.1600000220351,412.53999999025837,1233.0049999873154],"keys_pressed":["leftarrow","leftarrow","rightarrow","leftarrow","rightarrow"],"horizon":5,"forced_choices":["leftarrow","leftarrow","rightarrow","leftarrow"],"right_color":"orange","left_color":"lightblue","left_mu":40,"right_mu":60,"left_numbers":[42,43,29,42,44],"right_numbers":[59,76,58,58,65],"points_earned":250,"phase":"task","trial_type":"horizons-task","trial_index":79,"time_elapsed":1041148,"internal_node_id":"0.0-75.0","task_version":"0.2"},{"response_times":[1040.175000031013,1611.5850000060163,1113.7549999984913,1600.1699999906123,3334.610000019893],"keys_pressed":["rightarrow","rightarrow","rightarrow","leftarrow","leftarrow"],"horizon":5,"forced_choices":["rightarrow","rightarrow","rightarrow","leftarrow"],"right_color":"lightblue","left_color":"orange","left_mu":40,"right_mu":20,"left_numbers":[37,16,43,43,32],"right_numbers":[10,21,11,21,26],"points_earned":117,"phase":"task","trial_type":"horizons-task","trial_index":80,"time_elapsed":1051355,"internal_node_id":"0.0-76.0","task_version":"0.2"},{"response_times":[1870.215000002645,388.3650000207126,393.63000000594184,344.4049999816343,1544.2000000039116],"keys_pressed":["rightarrow","leftarrow","rightarrow","leftarrow","leftarrow"],"horizon":5,"forced_choices":["rightarrow","leftarrow","rightarrow","leftarrow"],"right_color":"lightblue","left_color":"orange","left_mu":60,"right_mu":64,"left_numbers":[53,56,44,84,70],"right_numbers":[61,55,59,65,68],"points_earned":330,"phase":"task","trial_type":"horizons-task","trial_index":81,"time_elapsed":1057403,"internal_node_id":"0.0-77.0","task_version":"0.2"},{"response_times":[969.3250000127591,428.24999999720603,353.29499997897074,218.72499998426065,6841.57500002766,957.6999999699183,713.0350000225008,367.3049999633804,253.545000043232,218.7549999798648],"keys_pressed":["rightarrow","leftarrow","rightarrow","leftarrow","rightarrow","leftarrow","rightarrow","rightarrow","rightarrow","rightarrow"],"horizon":10,"forced_choices":["rightarrow","leftarrow","rightarrow","leftarrow"],"right_color":"lightblue","left_color":"orange","left_mu":60,"right_mu":64,"left_numbers":[85,71,80,61,67,55,70,67,58,58],"right_numbers":[69,75,64,68,61,55,44,55,55,61],"points_earned":596,"phase":"task","trial_type":"horizons-task","trial_index":82,"time_elapsed":1070233,"internal_node_id":"0.0-78.0","task_version":"0.2"},{"response_times":[908.0050000338815,395.93499997863546,558.2899999571964,578.7399999680929,1423.0899999965914],"keys_pressed":["leftarrow","rightarrow","rightarrow","rightarrow","rightarrow"],"horizon":5,"forced_choices":["leftarrow","rightarrow","rightarrow","rightarrow"],"right_color":"lightblue","left_color":"orange","left_mu":40,"right_mu":48,"left_numbers":[35,51,45,30,39],"right_numbers":[52,27,62,46,51],"points_earned":221,"phase":"task","trial_type":"horizons-task","trial_index":83,"time_elapsed":1075610,"internal_node_id":"0.0-79.0","task_version":"0.2"},{"response_times":[557.8950000344776,509.615000046324,400.179999996908,385.88500005425885,7693.889999995008],"keys_pressed":["rightarrow","rightarrow","leftarrow","rightarrow","leftarrow"],"horizon":5,"forced_choices":["rightarrow","rightarrow","leftarrow","rightarrow"],"right_color":"lightblue","left_color":"orange","left_mu":60,"right_mu":40,"left_numbers":[71,68,64,48,76],"right_numbers":[27,37,35,40,42],"points_earned":244,"phase":"task","trial_type":"horizons-task","trial_index":84,"time_elapsed":1086667,"internal_node_id":"0.0-80.0","task_version":"0.2"},{"response_times":[668.8599999761209,376.34499999694526,336.2700000288896,467.415000020992,7482.9350000363775],"keys_pressed":["leftarrow","rightarrow","leftarrow","leftarrow","rightarrow"],"horizon":5,"forced_choices":["leftarrow","rightarrow","leftarrow","leftarrow"],"right_color":"lightblue","left_color":"orange","left_mu":60,"right_mu":80,"left_numbers":[59,66,65,52,66],"right_numbers":[66,70,78,92,80],"points_earned":326,"phase":"task","trial_type":"horizons-task","trial_index":85,"time_elapsed":1097501,"internal_node_id":"0.0-81.0","task_version":"0.2"},{"response_times":[835.2999999769963,324.52500000363216,547.3299999721348,421.3200000231154,2165.2849999954924,943.1599999661557,648.3250000164844,513.7949999771081,402.79500000178814,253.87000001501292],"keys_pressed":["leftarrow","rightarrow","rightarrow","leftarrow","rightarrow","leftarrow","rightarrow","rightarrow","rightarrow","rightarrow"],"horizon":10,"forced_choices":["leftarrow","rightarrow","rightarrow","leftarrow"],"right_color":"lightblue","left_color":"orange","left_mu":60,"right_mu":68,"left_numbers":[60,55,63,52,64,51,72,61,50,64],"right_numbers":[88,76,66,77,58,77,56,61,65,78],"points_earned":623,"phase":"task","trial_type":"horizons-task","trial_index":86,"time_elapsed":1106063,"internal_node_id":"0.0-82.0","task_version":"0.2"},{"response_times":[739.1150000039488,787.4399999855086,400.8250000188127,474.6900000027381,4151.190000004135],"keys_pressed":["leftarrow","leftarrow","leftarrow","rightarrow","rightarrow"],"horizon":5,"forced_choices":["leftarrow","leftarrow","leftarrow","rightarrow"],"right_color":"lightblue","left_color":"orange","left_mu":40,"right_mu":52,"left_numbers":[23,41,40,23,36],"right_numbers":[56,66,42,50,50],"points_earned":204,"phase":"task","trial_type":"horizons-task","trial_index":87,"time_elapsed":1114126,"internal_node_id":"0.0-83.0","task_version":"0.2"},{"response_times":[582.4049999937415,363.3300000219606,365.8999999752268,297.919999982696,2055.3749999962747,1334.915000014007,2676.4299999922514,596.7999999993481,373.8199999788776,273.8750000135042],"keys_pressed":["rightarrow","leftarrow","rightarrow","leftarrow","leftarrow","leftarrow","leftarrow","leftarrow","leftarrow","leftarrow"],"horizon":10,"forced_choices":["rightarrow","leftarrow","rightarrow","leftarrow"],"right_color":"lightblue","left_color":"orange","left_mu":40,"right_mu":44,"left_numbers":[29,35,40,40,54,41,41,42,38,36],"right_numbers":[36,48,39,41,25,42,42,46,39,38],"points_earned":402,"phase":"task","trial_type":"horizons-task","trial_index":88,"time_elapsed":1124550,"internal_node_id":"0.0-84.0","task_version":"0.2"},{"response_times":[598.0050000362098,304.8199999611825,722.8699999977835,426.9549999735318,4236.979999986943],"keys_pressed":["leftarrow","rightarrow","rightarrow","leftarrow","rightarrow"],"horizon":5,"forced_choices":["leftarrow","rightarrow","rightarrow","leftarrow"],"right_color":"lightblue","left_color":"orange","left_mu":60,"right_mu":68,"left_numbers":[66,61,67,54,55],"right_numbers":[55,86,62,74,64],"points_earned":332,"phase":"task","trial_type":"horizons-task","trial_index":89,"time_elapsed":1132349,"internal_node_id":"0.0-85.0","task_version":"0.2"},{"response_times":[577.4200000450946,457.0700000040233,757.6000000117347,430.3049999871291,2542.6649999571964,1469.1450000391342,1251.3799999724142,496.92000000504777,307.874999998603,247.7550000185147],"keys_pressed":["leftarrow","leftarrow","rightarrow","rightarrow","leftarrow","leftarrow","leftarrow","leftarrow","leftarrow","leftarrow"],"horizon":10,"forced_choices":["leftarrow","leftarrow","rightarrow","rightarrow"],"right_color":"orange","left_color":"lightblue","left_mu":60,"right_mu":48,"left_numbers":[50,57,55,57,61,62,77,68,55,59],"right_numbers":[41,51,47,41,38,50,56,49,60,43],"points_earned":577,"phase":"task","trial_type":"horizons-task","trial_index":90,"time_elapsed":1142397,"internal_node_id":"0.0-86.0","task_version":"0.2"},{"response_times":[555.7649999973364,357.4599999701604,761.0700000077486,807.3999999905936,857.819999975618],"keys_pressed":["rightarrow","leftarrow","leftarrow","rightarrow","rightarrow"],"horizon":5,"forced_choices":["rightarrow","leftarrow","leftarrow","rightarrow"],"right_color":"lightblue","left_color":"orange","left_mu":60,"right_mu":90,"left_numbers":[57,64,62,65,50],"right_numbers":[91,99,96,81,91],"points_earned":389,"phase":"task","trial_type":"horizons-task","trial_index":91,"time_elapsed":1147242,"internal_node_id":"0.0-87.0","task_version":"0.2"},{"rt":19074.16999997804,"responses":{"age":"51","gender-categorical":"Female","gender-free-response":"","ethnicity":"Not Hispanic or Latino","race":["White"],"language":"Yes","fluency":"Very well"},"survey":"demographics","trial_type":"survey-demo","trial_index":92,"time_elapsed":1166320,"internal_node_id":"0.0-88.0","task_version":"0.2"},{"rt":64941.5099999751,"responses":{"difficulty":"3","fun":"4","clarity":"5","strategy":"Looked for higher numbers and how often they appeared","feedback":"Have a lovely day!"},"survey":"debrief","trial_type":"survey-debrief","trial_index":93,"time_elapsed":1231260,"internal_node_id":"0.0-89.0","task_version":"0.2","interactions":"[{\"event\":\"blur\",\"trial\":4,\"time\":339113},{\"event\":\"focus\",\"trial\":4,\"time\":364809}]"}]