[{"view_history":"[{\"page_index\":0,\"viewing_time\":3632.369999999355}]","rt":3633.2599999950617,"trial_type":"instructions","trial_index":0,"time_elapsed":3654,"internal_node_id":"0.0-0.0","task_version":"0.2"},{"item_order":[5,12,1,11,0,9,14,15,4,8,7,6,2,10,3,13,16],"responses":{"Q06":"1","Q13":"1","Q02":"1","Q12":"1","Q01":"2","Q10":"4","Q15":"1","Q16":"1","Q05":"1","Q09":"1","Q08":"4","Q07":"1","Q03":"4","Q11":"4","Q04":"0","Q14":"2","Q17":"0"},"radio_events":[6753.759999999602,11441.704999997455,13490.639999996347,15502.704999998969,19640.959999996994,23201.554999999644,24247.879999995348,25963.79999999772,27239.990000001853,29768.49499999662,36138.66499999858,40634.31000000128,43545.45499999949,46898.87499999895,51196.43499999802,56245.51000000065,58611.01499999495,63093.66500000033],"key_events":[],"mouse_events":[0.13000000035390258,4247.295000001031,6753.759999999602,9097.204999998212,10048.224999998638,10624.469999995199,10800.27500000142,11441.704999997455,13490.639999996347,15502.704999998969,19640.959999996994,23201.554999999644,24247.879999995348,25963.79999999772,27239.990000001853,29768.49499999662,36138.66499999858,38475.50499999488,40634.31000000128,43545.45499999949,45424.81499999849,46898.87499999895,51196.43499999802,53709.96000000014,55161.739999995916,56245.51000000065,58220.60999999667,58611.01499999495,63093.66500000033,65599.63499999867],"rt":65603.19499999605,"survey":"pswq","trial_type":"survey-template","trial_index":1,"time_elapsed":69265,"internal_node_id":"0.0-1.0","task_version":"0.2"},{"item_order":[5,8,9,4,3,1,11,7,2,6,10,0,12],"responses":{"Q06":"2","Q09":"2","Q10":"2","Q05":"2","Q04":"2","Q02":"3","Q12":"3","Q08":"2","Q03":"1","Q07":"2","Q11":"2","Q01":"2","Q13":"4"},"radio_events":[6678.195000000414,9825.514999996813,12125.514999999723,16149.534999996831,20365.089999999327,22730.384999995294,24403.449999997974,28251.24999999389,33277.35499999835,38111.98499999591,42158.35999999399,46705.739999997604,49808.664999996836,53184.089999995194,54961.10999999655],"key_events":[],"mouse_events":[6678.195000000414,8653.609999993932,9825.514999996813,12125.514999999723,14992.444999996223,16149.534999996831,19598.814999997558,20365.089999999327,22730.384999995294,24403.449999997974,28251.24999999389,33277.35499999835,35178.57999999978,38111.98499999591,41303.64499999996,42158.35999999399,46705.739999997604,49808.664999996836,53184.089999995194,54961.10999999655,55984.80999999447],"rt":55987.13499999576,"survey":"ius12","trial_type":"survey-template","trial_index":2,"time_elapsed":125261,"internal_node_id":"0.0-2.0","task_version":"0.2"},{"item_order":[0,3,6,1,2,12,8,4,11,5,7,9,15,10,14,13],"responses":{"Q01":"4","Q04":"4","Q07":"4","Q02":"3","Q03":"3","Q13":"1","Q09":"3","Q05":"1","Q12":"0","Q06":"3","Q08":"3","Q10":"4","Q16":"4","Q11":"4","Q15":"4","Q14":"4"},"radio_events":[6335.16999999847,12790.539999994508,16968.87499999866,22009.849999994913,27094.929999999295,31738.344999997935,37508.88999999734,37684.784999997646,40816.77999999374,51430.07999999827,58895.39999999397,62566.03999999788,67504.55499999953,72352.4499999985,75427.48500000016,77040.58999999688,79635.42999999481],"key_events":[],"mouse_events":[6335.16999999847,10764.029999998456,12790.539999994508,16968.87499999866,22009.849999994913,27094.929999999295,31738.344999997935,36859.55499999545,37508.88999999734,37684.784999997646,40816.77999999374,51430.07999999827,57901.92999999999,57996.924999999464,58527.80999999959,58895.39999999397,62566.03999999788,66649.0449999983,67504.55499999953,70466.25999999378,72352.4499999985,75427.48500000016,77040.58999999688,79635.42999999481,82303.8349999988],"rt":82307.31999999989,"survey":"nfc","trial_type":"survey-template","trial_index":3,"time_elapsed":207579,"internal_node_id":"0.0-3.0","task_version":"0.2"},{"view_history":"[{\"page_index\":0,\"viewing_time\":3489.369999995688},{\"page_index\":1,\"viewing_time\":14406.374999998661},{\"page_index\":2,\"viewing_time\":10007.275000003574},{\"page_index\":3,\"viewing_time\":7022.904999997991},{\"page_index\":4,\"viewing_time\":1990.380000002915},{\"page_index\":5,\"viewing_time\":3478.2449999984237},{\"page_index\":6,\"viewing_time\":5984.384999996109},{\"page_index\":7,\"viewing_time\":6322.935000003781},{\"page_index\":8,\"viewing_time\":5931.835000003048},{\"page_index\":9,\"viewing_time\":14754.349999995611}]","rt":73388.41999999568,"trial_type":"instructions","trial_index":4,"time_elapsed":280972,"internal_node_id":"0.0-4.0-0.0","task_version":"0.2"},{"response_times":[1270.1249999954598,883.2200000033481,613.5050000011688,617.4099999989267,1977.8000000005704],"keys_pressed":["rightarrow","leftarrow","rightarrow","rightarrow","leftarrow"],"horizon":5,"forced_choices":["rightarrow","leftarrow","rightarrow","rightarrow"],"right_color":"lightblue","left_color":"orange","left_mu":40,"right_mu":20,"left_numbers":[39,43,41,32,39],"right_numbers":[20,29,16,24,19],"points_earned":142,"phase":"practice","trial_type":"horizons-task","trial_index":5,"time_elapsed":287849,"internal_node_id":"0.0-4.0-1.0","task_version":"0.2"},{"response_times":[2310.184999994817,595.6350000051316,535.650000005262,532.8599999993457,2457.399999999325,940.8000000039465,1445.9249999999884,816.5700000026845,1020.3899999978603,776.0750000015832],"keys_pressed":["leftarrow","leftarrow","rightarrow","rightarrow","rightarrow","leftarrow","rightarrow","rightarrow","rightarrow","leftarrow"],"horizon":10,"forced_choices":["leftarrow","leftarrow","rightarrow","rightarrow"],"right_color":"orange","left_color":"lightblue","left_mu":60,"right_mu":70,"left_numbers":[57,67,61,67,64,49,64,58,57,56],"right_numbers":[69,60,87,81,69,65,72,83,63,63],"points_earned":684,"phase":"practice","trial_type":"horizons-task","trial_index":6,"time_elapsed":300786,"internal_node_id":"0.0-4.0-2.0","task_version":"0.2"},{"view_history":"[{\"page_index\":0,\"viewing_time\":2210.370000000694},{\"page_index\":1,\"viewing_time\":3169.3899999954738},{\"page_index\":2,\"viewing_time\":2719.475000005332},{\"page_index\":3,\"viewing_time\":3235.004999994999}]","rt":11334.555000001274,"trial_type":"instructions","trial_index":7,"time_elapsed":312122,"internal_node_id":"0.0-4.0-3.0","task_version":"0.2"},{"responses":["true","false","true"],"num_errors":0,"rt":12536.750000006577,"trial_type":"horizons-comprehension","trial_index":8,"time_elapsed":324661,"internal_node_id":"0.0-4.0-4.0","task_version":"0.2"},{"trial_type":"call-function","trial_index":9,"time_elapsed":324669,"internal_node_id":"0.0-5.0","task_version":"0.2"},{"view_history":"[{\"page_index\":0,\"viewing_time\":1190.8350000012433},{\"page_index\":1,\"viewing_time\":4422.41500000091}]","rt":5613.555000003544,"trial_type":"instructions","trial_index":10,"time_elapsed":330283,"internal_node_id":"0.0-6.0","task_version":"0.2"},{"response_times":[748.4149999945657,566.1000000036438,436.65499999769963,1560.540000005858,2034.2900000032387,937.195000005886,1136.529999996128,973.8849999994272,809.5849999954225,709.9400000006426],"keys_pressed":["leftarrow","leftarrow","leftarrow","rightarrow","rightarrow","leftarrow","leftarrow","rightarrow","rightarrow","leftarrow"],"horizon":10,"forced_choices":["leftarrow","leftarrow","leftarrow","rightarrow"],"right_color":"lightblue","left_color":"orange","left_mu":40,"right_mu":44,"left_numbers":[48,47,46,47,32,39,50,45,46,36],"right_numbers":[46,42,45,47,39,31,51,47,46,29],"points_earned":445,"phase":"task","trial_type":"horizons-task","trial_index":11,"time_elapsed":341706,"internal_node_id":"0.0-7.0","task_version":"0.2"},{"response_times":[968.9399999988382,1061.1299999945913,531.6499999971711,586.8550000013784,1501.0550000006333,1161.7449999976088,951.9800000052783,1584.1199999995297,715.8899999994901,507.68000000243774],"keys_pressed":["rightarrow","leftarrow","leftarrow","leftarrow","rightarrow","rightarrow","leftarrow","rightarrow","rightarrow","leftarrow"],"horizon":10,"forced_choices":["rightarrow","leftarrow","leftarrow","leftarrow"],"right_color":"lightblue","left_color":"orange","left_mu":60,"right_mu":64,"left_numbers":[61,62,43,67,70,50,52,69,60,52],"right_numbers":[51,67,63,64,58,80,62,68,69,61],"points_earned":602,"phase":"task","trial_type":"horizons-task","trial_index":12,"time_elapsed":352781,"internal_node_id":"0.0-8.0","task_version":"0.2"},{"response_times":[976.1499999949592,528.2749999969383,481.5100000050734,415.4449999987264,1308.9149999941583,1274.2450000005192,785.0600000019767,948.1999999989057,726.1199999993551,936.6750000044703],"keys_pressed":["rightarrow","leftarrow","leftarrow","rightarrow","rightarrow","leftarrow","leftarrow","rightarrow","leftarrow","rightarrow"],"horizon":10,"forced_choices":["rightarrow","leftarrow","leftarrow","rightarrow"],"right_color":"orange","left_color":"lightblue","left_mu":60,"right_mu":40,"left_numbers":[62,55,65,52,46,59,55,65,39,58],"right_numbers":[31,40,41,44,22,46,44,54,46,42],"points_earned":466,"phase":"task","trial_type":"horizons-task","trial_index":13,"time_elapsed":362668,"internal_node_id":"0.0-9.0","task_version":"0.2"},{"response_times":[1044.914999998582,613.0800000028103,535.2500000008149,570.7299999994575,2485.259999994014,771.7049999992014,809.0549999978975,909.220000001369,774.8300000021118,817.0499999978347],"keys_pressed":["leftarrow","leftarrow","rightarrow","rightarrow","rightarrow","leftarrow","rightarrow","leftarrow","leftarrow","leftarrow"],"horizon":10,"forced_choices":["leftarrow","leftarrow","rightarrow","rightarrow"],"right_color":"lightblue","left_color":"orange","left_mu":60,"right_mu":68,"left_numbers":[60,62,55,50,41,69,51,64,70,69],"right_numbers":[59,63,62,51,61,61,61,74,80,71],"points_earned":629,"phase":"task","trial_type":"horizons-task","trial_index":14,"time_elapsed":373505,"internal_node_id":"0.0-10.0","task_version":"0.2"},{"response_times":[936.2049999981537,480.25500000221655,824.7249999985797,701.9499999951222,2266.779999998107],"keys_pressed":["rightarrow","leftarrow","leftarrow","rightarrow","leftarrow"],"horizon":5,"forced_choices":["rightarrow","leftarrow","leftarrow","rightarrow"],"right_color":"orange","left_color":"lightblue","left_mu":40,"right_mu":36,"left_numbers":[35,39,33,34,49],"right_numbers":[48,34,47,24,45],"points_earned":193,"phase":"task","trial_type":"horizons-task","trial_index":15,"time_elapsed":380223,"internal_node_id":"0.0-11.0","task_version":"0.2"},{"response_times":[736.9200000030105,597.7950000014971,1378.9099999994505,451.42000000487315,1149.0450000055716,1079.0350000024773,1252.4649999977555,592.6399999952991,895.0499999991735,749.8899999991409],"keys_pressed":["rightarrow","rightarrow","leftarrow","rightarrow","leftarrow","leftarrow","leftarrow","rightarrow","rightarrow","rightarrow"],"horizon":10,"forced_choices":["rightarrow","rightarrow","leftarrow","rightarrow"],"right_color":"orange","left_color":"lightblue","left_mu":60,"right_mu":30,"left_numbers":[52,59,63,48,55,69,58,67,57,58],"right_numbers":[30,28,31,48,22,17,17,21,37,23],"points_earned":432,"phase":"task","trial_type":"horizons-task","trial_index":16,"time_elapsed":390613,"internal_node_id":"0.0-12.0","task_version":"0.2"},{"response_times":[830.1050000009127,457.19000000099186,544.9399999997695,579.3699999994715,1689.8950000031618,973.9950000002864,960.3149999966263,1427.4599999989732,660.9849999949802,517.7799999946728],"keys_pressed":["rightarrow","rightarrow","rightarrow","leftarrow","leftarrow","leftarrow","rightarrow","leftarrow","leftarrow","leftarrow"],"horizon":10,"forced_choices":["rightarrow","rightarrow","rightarrow","leftarrow"],"right_color":"orange","left_color":"lightblue","left_mu":40,"right_mu":20,"left_numbers":[51,24,35,40,37,34,49,25,46,41],"right_numbers":[12,37,22,21,34,17,8,13,20,20],"points_earned":302,"phase":"task","trial_type":"horizons-task","trial_index":17,"time_elapsed":400762,"internal_node_id":"0.0-13.0","task_version":"0.2"},{"response_times":[1021.5850000022328,484.7799999988638,475.11500000109663,445.13500000175554,971.9350000013947],"keys_pressed":["leftarrow","leftarrow","rightarrow","rightarrow","leftarrow"],"horizon":5,"forced_choices":["leftarrow","leftarrow","rightarrow","rightarrow"],"right_color":"lightblue","left_color":"orange","left_mu":60,"right_mu":64,"left_numbers":[42,65,49,47,73],"right_numbers":[69,64,58,62,45],"points_earned":300,"phase":"task","trial_type":"horizons-task","trial_index":18,"time_elapsed":405666,"internal_node_id":"0.0-14.0","task_version":"0.2"},{"response_times":[937.0549999948707,552.9999999998836,809.0299999967101,647.2500000018044,1321.7900000017835],"keys_pressed":["rightarrow","rightarrow","rightarrow","leftarrow","leftarrow"],"horizon":5,"forced_choices":["rightarrow","rightarrow","rightarrow","leftarrow"],"right_color":"orange","left_color":"lightblue","left_mu":40,"right_mu":48,"left_numbers":[15,43,40,42,41],"right_numbers":[59,44,61,41,39],"points_earned":247,"phase":"task","trial_type":"horizons-task","trial_index":19,"time_elapsed":411438,"internal_node_id":"0.0-15.0","task_version":"0.2"},{"response_times":[1287.2199999983422,1442.8850000040256,485.22999999840977,465.4000000009546,1893.4299999964423,929.8300000009476,987.2800000011921,1009.6849999972619,760.4550000032759,610.8099999983096],"keys_pressed":["leftarrow","rightarrow","rightarrow","rightarrow","leftarrow","leftarrow","leftarrow","leftarrow","rightarrow","rightarrow"],"horizon":10,"forced_choices":["leftarrow","rightarrow","rightarrow","rightarrow"],"right_color":"lightblue","left_color":"orange","left_mu":40,"right_mu":32,"left_numbers":[48,47,37,54,38,40,43,38,36,37],"right_numbers":[27,25,11,29,34,27,25,27,30,26],"points_earned":328,"phase":"task","trial_type":"horizons-task","trial_index":20,"time_elapsed":422816,"internal_node_id":"0.0-16.0","task_version":"0.2"},{"response_times":[1436.490000000049,790.6100000036531,567.1999999976833,611.2399999983609,2312.064999998256,808.3350000015344,760.840000002645,501.89499999396503,646.9649999999092,739.8549999998068],"keys_pressed":["rightarrow","leftarrow","rightarrow","leftarrow","leftarrow","leftarrow","rightarrow","rightarrow","rightarrow","rightarrow"],"horizon":10,"forced_choices":["rightarrow","leftarrow","rightarrow","leftarrow"],"right_color":"lightblue","left_color":"orange","left_mu":60,"right_mu":72,"left_numbers":[50,62,49,64,59,52,72,62,70,57],"right_numbers":[65,65,61,68,69,78,67,81,77,70],"points_earned":658,"phase":"task","trial_type":"horizons-task","trial_index":21,"time_elapsed":433497,"internal_node_id":"0.0-17.0","task_version":"0.2"},{"response_times":[718.7950000006822,407.8349999981583,422.20999999699416,542.5800000011805,1632.6950000002398],"keys_pressed":["rightarrow","leftarrow","rightarrow","rightarrow","rightarrow"],"horizon":5,"forced_choices":["rightarrow","leftarrow","rightarrow","rightarrow"],"right_color":"orange","left_color":"lightblue","left_mu":60,"right_mu":90,"left_numbers":[55,63,67,51,54],"right_numbers":[87,97,91,81,106],"points_earned":428,"phase":"task","trial_type":"horizons-task","trial_index":22,"time_elapsed":438728,"internal_node_id":"0.0-18.0","task_version":"0.2"},{"response_times":[741.0750000053667,574.8400000011316,712.0300000024145,526.1450000034529,1968.0300000036368,965.9949999986566,818.3749999952852,885.6700000033015,740.8999999970547,646.454999994603],"keys_pressed":["leftarrow","rightarrow","leftarrow","leftarrow","leftarrow","leftarrow","leftarrow","rightarrow","leftarrow","leftarrow"],"horizon":10,"forced_choices":["leftarrow","rightarrow","leftarrow","leftarrow"],"right_color":"orange","left_color":"lightblue","left_mu":60,"right_mu":40,"left_numbers":[51,56,64,55,72,74,72,55,69,60],"right_numbers":[32,43,42,48,37,50,35,48,35,56],"points_earned":608,"phase":"task","trial_type":"horizons-task","trial_index":23,"time_elapsed":448813,"internal_node_id":"0.0-19.0","task_version":"0.2"},{"response_times":[901.545000000624,401.99500000016997,403.8799999980256,544.385000001057,2275.4099999947357],"keys_pressed":["rightarrow","leftarrow","rightarrow","leftarrow","rightarrow"],"horizon":5,"forced_choices":["rightarrow","leftarrow","rightarrow","leftarrow"],"right_color":"lightblue","left_color":"orange","left_mu":60,"right_mu":72,"left_numbers":[67,60,53,57,60],"right_numbers":[75,76,75,68,73],"points_earned":340,"phase":"task","trial_type":"horizons-task","trial_index":24,"time_elapsed":454846,"internal_node_id":"0.0-20.0","task_version":"0.2"},{"response_times":[1195.930000001681,591.3500000024214,519.8400000008405,959.1849999997066,721.3550000014948],"keys_pressed":["leftarrow","leftarrow","rightarrow","leftarrow","rightarrow"],"horizon":5,"forced_choices":["leftarrow","leftarrow","rightarrow","leftarrow"],"right_color":"lightblue","left_color":"orange","left_mu":60,"right_mu":72,"left_numbers":[51,58,49,48,51],"right_numbers":[77,91,78,67,66],"points_earned":301,"phase":"task","trial_type":"horizons-task","trial_index":25,"time_elapsed":460339,"internal_node_id":"0.0-21.0","task_version":"0.2"},{"response_times":[774.5649999997113,1046.780000004219,801.2149999995017,1106.885000001057,1031.3000000023749],"keys_pressed":["rightarrow","rightarrow","rightarrow","leftarrow","leftarrow"],"horizon":5,"forced_choices":["rightarrow","rightarrow","rightarrow","leftarrow"],"right_color":"orange","left_color":"lightblue","left_mu":40,"right_mu":20,"left_numbers":[40,43,32,50,39],"right_numbers":[37,22,30,30,10],"points_earned":178,"phase":"task","trial_type":"horizons-task","trial_index":26,"time_elapsed":466606,"internal_node_id":"0.0-22.0","task_version":"0.2"},{"response_times":[783.674999998766,519.6600000053877,400.41500000370434,534.9999999962165,680.8000000019092],"keys_pressed":["leftarrow","rightarrow","rightarrow","rightarrow","leftarrow"],"horizon":5,"forced_choices":["leftarrow","rightarrow","rightarrow","rightarrow"],"right_color":"lightblue","left_color":"orange","left_mu":40,"right_mu":70,"left_numbers":[37,44,46,40,46],"right_numbers":[71,60,56,67,68],"points_earned":266,"phase":"task","trial_type":"horizons-task","trial_index":27,"time_elapsed":471030,"internal_node_id":"0.0-23.0","task_version":"0.2"},{"response_times":[808.0400000035297,586.4099999962491,612.7199999973527,463.2400000045891,566.3100000019767],"keys_pressed":["rightarrow","leftarrow","leftarrow","rightarrow","rightarrow"],"horizon":5,"forced_choices":["rightarrow","leftarrow","leftarrow","rightarrow"],"right_color":"orange","left_color":"lightblue","left_mu":60,"right_mu":40,"left_numbers":[57,66,55,60,68],"right_numbers":[43,40,35,39,42],"points_earned":245,"phase":"task","trial_type":"horizons-task","trial_index":28,"time_elapsed":475572,"internal_node_id":"0.0-24.0","task_version":"0.2"},{"response_times":[601.0150000001886,429.82499999925494,357.5349999955506,609.98500000278,413.54499999579275,1867.10000000312,1378.4599999999045,806.5249999999651,876.5150000035646,371.9550000023446],"keys_pressed":["leftarrow","rightarrow","rightarrow","leftarrow","rightarrow","rightarrow","leftarrow","leftarrow","rightarrow","rightarrow"],"horizon":10,"forced_choices":["leftarrow","rightarrow","rightarrow","leftarrow"],"right_color":"lightblue","left_color":"orange","left_mu":40,"right_mu":60,"left_numbers":[37,40,39,35,42,48,37,32,43,37],"right_numbers":[58,69,42,59,48,48,51,74,60,59],"points_earned":467,"phase":"task","trial_type":"horizons-task","trial_index":29,"time_elapsed":484791,"internal_node_id":"0.0-25.0","task_version":"0.2"},{"response_times":[995.5299999928684,449.73499999468913,452.83000000199536,689.2050000024028,663.1699999998091,713.610000006156,967.994999999064,838.5850000049686,349.52999999950407,573.3299999992596],"keys_pressed":["rightarrow","rightarrow","rightarrow","leftarrow","rightarrow","rightarrow","leftarrow","rightarrow","rightarrow","rightarrow"],"horizon":10,"forced_choices":["rightarrow","rightarrow","rightarrow","leftarrow"],"right_color":"orange","left_color":"lightblue","left_mu":40,"right_mu":48,"left_numbers":[43,45,37,42,49,29,22,19,44,40],"right_numbers":[39,50,47,53,50,52,46,43,53,51],"points_earned":449,"phase":"task","trial_type":"horizons-task","trial_index":30,"time_elapsed":492990,"internal_node_id":"0.0-26.0","task_version":"0.2"},{"response_times":[694.9099999983446,302.92500000359723,638.2550000053016,347.7950000014971,921.9149999989895],"keys_pressed":["rightarrow","rightarrow","leftarrow","rightarrow","rightarrow"],"horizon":5,"forced_choices":["rightarrow","rightarrow","leftarrow","rightarrow"],"right_color":"lightblue","left_color":"orange","left_mu":40,"right_mu":60,"left_numbers":[34,33,24,32,43],"right_numbers":[65,60,65,46,49],"points_earned":244,"phase":"task","trial_type":"horizons-task","trial_index":31,"time_elapsed":497400,"internal_node_id":"0.0-27.0","task_version":"0.2"},{"response_times":[676.6050000005635,514.484999999695,1223.2100000037462,552.0399999950314,856.9700000007288],"keys_pressed":["rightarrow","rightarrow","leftarrow","leftarrow","leftarrow"],"horizon":5,"forced_choices":["rightarrow","rightarrow","leftarrow","leftarrow"],"right_color":"lightblue","left_color":"orange","left_mu":60,"right_mu":48,"left_numbers":[54,65,60,45,80],"right_numbers":[47,32,33,42,59],"points_earned":264,"phase":"task","trial_type":"horizons-task","trial_index":32,"time_elapsed":502728,"internal_node_id":"0.0-28.0","task_version":"0.2"},{"response_times":[589.654999996128,662.3699999981909,472.7550000025076,495.96500000188826,541.6350000014063,1193.2149999993271,1088.1999999983236,765.3399999981048,778.055000002496,583.5549999974319],"keys_pressed":["rightarrow","leftarrow","rightarrow","rightarrow","rightarrow","leftarrow","rightarrow","leftarrow","leftarrow","leftarrow"],"horizon":10,"forced_choices":["rightarrow","leftarrow","rightarrow","rightarrow"],"right_color":"lightblue","left_color":"orange","left_mu":60,"right_mu":56,"left_numbers":[60,70,61,64,51,54,53,67,62,53],"right_numbers":[61,44,53,53,54,71,61,59,52,49],"points_earned":588,"phase":"task","trial_type":"horizons-task","trial_index":33,"time_elapsed":511405,"internal_node_id":"0.0-29.0","task_version":"0.2"},{"response_times":[1214.9700000009034,824.575000006007,513.4749999997439,837.1399999959976,972.1199999985402,744.6250000066357,1202.7149999994435,580.4649999990943,772.4049999960698,556.1600000000908],"keys_pressed":["leftarrow","rightarrow","leftarrow","leftarrow","leftarrow","rightarrow","leftarrow","leftarrow","leftarrow","rightarrow"],"horizon":10,"forced_choices":["leftarrow","rightarrow","leftarrow","leftarrow"],"right_color":"orange","left_color":"lightblue","left_mu":40,"right_mu":10,"left_numbers":[36,39,50,54,41,48,50,30,46,42],"right_numbers":[2,3,16,18,0,11,13,18,17,5],"points_earned":326,"phase":"task","trial_type":"horizons-task","trial_index":34,"time_elapsed":521130,"internal_node_id":"0.0-30.0","task_version":"0.2"},{"response_times":[838.3300000058953,819.4700000023004,410.94000000157394,1101.2199999969453,1918.680000002496,1401.754999998957,767.5400000007357,916.1850000018021,669.1050000007963,777.3000000016764],"keys_pressed":["rightarrow","leftarrow","leftarrow","rightarrow","rightarrow","rightarrow","leftarrow","leftarrow","rightarrow","leftarrow"],"horizon":10,"forced_choices":["rightarrow","leftarrow","leftarrow","rightarrow"],"right_color":"lightblue","left_color":"orange","left_mu":40,"right_mu":32,"left_numbers":[34,35,27,36,47,44,45,38,42,56],"right_numbers":[33,17,32,25,36,34,34,35,23,24],"points_earned":352,"phase":"task","trial_type":"horizons-task","trial_index":35,"time_elapsed":532257,"internal_node_id":"0.0-31.0","task_version":"0.2"},{"response_times":[887.5649999972666,523.2800000013085,498.31000000273343,622.6299999980256,2048.81999999634,972.6999999985565,720.1599999971222,615.7250000033528,947.7199999964796,534.0850000065984],"keys_pressed":["leftarrow","rightarrow","rightarrow","rightarrow","rightarrow","rightarrow","rightarrow","rightarrow","leftarrow","rightarrow"],"horizon":10,"forced_choices":["leftarrow","rightarrow","rightarrow","rightarrow"],"right_color":"lightblue","left_color":"orange","left_mu":40,"right_mu":70,"left_numbers":[42,32,44,30,45,48,46,46,39,38],"right_numbers":[61,71,63,74,95,81,80,65,73,68],"points_earned":678,"phase":"task","trial_type":"horizons-task","trial_index":36,"time_elapsed":542134,"internal_node_id":"0.0-32.0","task_version":"0.2"},{"response_times":[4391.100000000792,355.3699999974342,509.0199999976903,369.4499999983236,1059.8849999951199],"keys_pressed":["leftarrow","leftarrow","rightarrow","rightarrow","leftarrow"],"horizon":5,"forced_choices":["leftarrow","leftarrow","rightarrow","rightarrow"],"right_color":"lightblue","left_color":"orange","left_mu":60,"right_mu":68,"left_numbers":[67,67,56,53,62],"right_numbers":[71,63,72,69,67],"points_earned":337,"phase":"task","trial_type":"horizons-task","trial_index":37,"time_elapsed":550324,"internal_node_id":"0.0-33.0","task_version":"0.2"},{"response_times":[694.1499999957159,838.38999999722,496.9049999999115,694.3100000063423,1999.7799999982817,777.9200000005076,652.9950000039535,581.7650000025751,623.7400000026682,521.1500000006054],"keys_pressed":["leftarrow","rightarrow","leftarrow","rightarrow","leftarrow","leftarrow","leftarrow","rightarrow","leftarrow","leftarrow"],"horizon":10,"forced_choices":["leftarrow","rightarrow","leftarrow","rightarrow"],"right_color":"orange","left_color":"lightblue","left_mu":40,"right_mu":28,"left_numbers":[32,39,40,29,39,44,36,43,51,46],"right_numbers":[24,25,33,24,22,34,22,33,19,26],"points_earned":370,"phase":"task","trial_type":"horizons-task","trial_index":38,"time_elapsed":559712,"internal_node_id":"0.0-34.0","task_version":"0.2"},{"response_times":[782.72999999905,660.5699999999488,453.35500000510365,556.4500000036787,2513.830000003567],"keys_pressed":["rightarrow","leftarrow","rightarrow","leftarrow","leftarrow"],"horizon":5,"forced_choices":["rightarrow","leftarrow","rightarrow","leftarrow"],"right_color":"orange","left_color":"lightblue","left_mu":60,"right_mu":30,"left_numbers":[45,59,68,49,58],"right_numbers":[39,33,31,40,18],"points_earned":236,"phase":"task","trial_type":"horizons-task","trial_index":39,"time_elapsed":566184,"internal_node_id":"0.0-35.0","task_version":"0.2"},{"response_times":[752.2299999982351,514.2100000012433,436.72499999951106,427.35499999986496,1555.4550000014715],"keys_pressed":["leftarrow","rightarrow","rightarrow","leftarrow","rightarrow"],"horizon":5,"forced_choices":["leftarrow","rightarrow","rightarrow","leftarrow"],"right_color":"lightblue","left_color":"orange","left_mu":40,"right_mu":44,"left_numbers":[27,43,36,31,49],"right_numbers":[41,47,39,50,50],"points_earned":194,"phase":"task","trial_type":"horizons-task","trial_index":40,"time_elapsed":571376,"internal_node_id":"0.0-36.0","task_version":"0.2"},{"response_times":[1015.659999997355,426.625,512.300000002142,486.4799999996321,1695.9250000000466],"keys_pressed":["leftarrow","rightarrow","rightarrow","leftarrow","leftarrow"],"horizon":5,"forced_choices":["leftarrow","rightarrow","rightarrow","leftarrow"],"right_color":"orange","left_color":"lightblue","left_mu":40,"right_mu":48,"left_numbers":[47,32,40,37,32],"right_numbers":[56,36,38,42,59],"points_earned":190,"phase":"task","trial_type":"horizons-task","trial_index":41,"time_elapsed":577016,"internal_node_id":"0.0-37.0","task_version":"0.2"},{"response_times":[725.8749999965075,392.25500000605825,527.0799999998417,605.0350000006147,646.0900000020629],"keys_pressed":["rightarrow","leftarrow","leftarrow","leftarrow","rightarrow"],"horizon":5,"forced_choices":["rightarrow","leftarrow","leftarrow","leftarrow"],"right_color":"lightblue","left_color":"orange","left_mu":40,"right_mu":52,"left_numbers":[38,38,62,45,63],"right_numbers":[55,47,53,41,52],"points_earned":252,"phase":"task","trial_type":"horizons-task","trial_index":42,"time_elapsed":581420,"internal_node_id":"0.0-38.0","task_version":"0.2"},{"response_times":[710.0500000014435,445.40000000421423,468.95999999833293,577.1800000001676,802.7949999959674,1352.359999997192,631.9000000002561,852.8549999974202,1502.9200000063283,764.1900000016904],"keys_pressed":["leftarrow","leftarrow","leftarrow","rightarrow","rightarrow","leftarrow","rightarrow","leftarrow","rightarrow","leftarrow"],"horizon":10,"forced_choices":["leftarrow","leftarrow","leftarrow","rightarrow"],"right_color":"orange","left_color":"lightblue","left_mu":60,"right_mu":52,"left_numbers":[69,64,53,44,59,60,62,53,69,64],"right_numbers":[51,47,65,45,55,45,51,44,69,41],"points_earned":583,"phase":"task","trial_type":"horizons-task","trial_index":43,"time_elapsed":591035,"internal_node_id":"0.0-39.0","task_version":"0.2"},{"response_times":[830.0850000013597,721.9600000026403,567.4800000052201,782.2699999960605,667.0200000007171],"keys_pressed":["leftarrow","leftarrow","rightarrow","leftarrow","rightarrow"],"horizon":5,"forced_choices":["leftarrow","leftarrow","rightarrow","leftarrow"],"right_color":"orange","left_color":"lightblue","left_mu":40,"right_mu":36,"left_numbers":[29,46,32,31,34],"right_numbers":[28,46,38,38,33],"points_earned":177,"phase":"task","trial_type":"horizons-task","trial_index":44,"time_elapsed":596109,"internal_node_id":"0.0-40.0","task_version":"0.2"},{"response_times":[497.7400000061607,360.22999999835156,665.9250000012107,507.98500000382774,993.364999994752],"keys_pressed":["rightarrow","rightarrow","leftarrow","leftarrow","rightarrow"],"horizon":5,"forced_choices":["rightarrow","rightarrow","leftarrow","leftarrow"],"right_color":"lightblue","left_color":"orange","left_mu":60,"right_mu":56,"left_numbers":[69,53,60,49,56],"right_numbers":[56,58,63,46,58],"points_earned":281,"phase":"task","trial_type":"horizons-task","trial_index":45,"time_elapsed":600639,"internal_node_id":"0.0-41.0","task_version":"0.2"},{"response_times":[781.0199999948964,468.5499999978347,526.4499999975087,1215.5599999969127,2851.894999999786,559.7500000004657,500.15999999595806,1744.2650000011781,883.9399999997113,868.4849999990547],"keys_pressed":["rightarrow","leftarrow","leftarrow","rightarrow","leftarrow","leftarrow","rightarrow","rightarrow","leftarrow","rightarrow"],"horizon":10,"forced_choices":["rightarrow","leftarrow","leftarrow","rightarrow"],"right_color":"orange","left_color":"lightblue","left_mu":40,"right_mu":36,"left_numbers":[30,40,34,42,24,31,36,47,52,33],"right_numbers":[42,37,29,26,32,32,33,34,44,45],"points_earned":361,"phase":"task","trial_type":"horizons-task","trial_index":46,"time_elapsed":612544,"internal_node_id":"0.0-42.0","task_version":"0.2"},{"response_times":[628.1700000036508,520.7200000004377,499.5199999975739,413.4649999977555,1383.6950000041397,694.2149999958929,692.7300000025425,387.28500000433996,963.1399999997811,521.4449999985518],"keys_pressed":["rightarrow","leftarrow","leftarrow","rightarrow","rightarrow","leftarrow","rightarrow","rightarrow","rightarrow","rightarrow"],"horizon":10,"forced_choices":["rightarrow","leftarrow","leftarrow","rightarrow"],"right_color":"lightblue","left_color":"orange","left_mu":40,"right_mu":70,"left_numbers":[42,30,43,29,53,36,40,44,37,34],"right_numbers":[74,74,79,64,65,80,66,74,78,58],"points_earned":588,"phase":"task","trial_type":"horizons-task","trial_index":47,"time_elapsed":620754,"internal_node_id":"0.0-43.0","task_version":"0.2"},{"response_times":[1359.9050000046846,654.9300000041258,514.6950000053039,440.5750000005355,1611.049999999581,871.254999998142,1178.144999998156,685.9000000039814,448.92499999701977,532.6349999959348],"keys_pressed":["leftarrow","rightarrow","leftarrow","rightarrow","rightarrow","rightarrow","rightarrow","rightarrow","rightarrow","rightarrow"],"horizon":10,"forced_choices":["leftarrow","rightarrow","leftarrow","rightarrow"],"right_color":"orange","left_color":"lightblue","left_mu":60,"right_mu":80,"left_numbers":[69,70,62,73,63,65,73,52,53,53],"right_numbers":[88,86,71,79,94,86,84,71,75,73],"points_earned":779,"phase":"task","trial_type":"horizons-task","trial_index":48,"time_elapsed":630558,"internal_node_id":"0.0-44.0","task_version":"0.2"},{"response_times":[1091.3000000000466,431.83999999740627,303.4449999977369,655.4850000030128,1949.7750000008382,682.8850000019884,628.725000002305,298.1350000046659,1126.66999999783,310.44500000285916],"keys_pressed":["rightarrow","leftarrow","rightarrow","leftarrow","leftarrow","rightarrow","leftarrow","leftarrow","leftarrow","leftarrow"],"horizon":10,"forced_choices":["rightarrow","leftarrow","rightarrow","leftarrow"],"right_color":"orange","left_color":"lightblue","left_mu":60,"right_mu":30,"left_numbers":[56,57,57,59,49,56,63,60,53,64],"right_numbers":[20,25,24,28,33,30,43,44,32,26],"points_earned":479,"phase":"task","trial_type":"horizons-task","trial_index":49,"time_elapsed":639542,"internal_node_id":"0.0-45.0","task_version":"0.2"},{"response_times":[1031.0499999978347,610.1649999981746,423.1149999976624,433.3050000059884,949.4199999972479],"keys_pressed":["leftarrow","leftarrow","rightarrow","leftarrow","leftarrow"],"horizon":5,"forced_choices":["leftarrow","leftarrow","rightarrow","leftarrow"],"right_color":"lightblue","left_color":"orange","left_mu":60,"right_mu":68,"left_numbers":[62,73,59,68,54],"right_numbers":[66,69,66,75,73],"points_earned":323,"phase":"task","trial_type":"horizons-task","trial_index":50,"time_elapsed":644492,"internal_node_id":"0.0-46.0","task_version":"0.2"},{"view_history":"[{\"page_index\":0,\"viewing_time\":7926.214999999385},{\"page_index\":1,\"viewing_time\":3078.000000001397}]","rt":11004.869999996969,"trial_type":"instructions","trial_index":51,"time_elapsed":655499,"internal_node_id":"0.0-47.0","task_version":"0.2"},{"response_times":[777.6499999964144,342.40500000305474,485.04500000120606,395.9099999993341,773.1950000015786],"keys_pressed":["leftarrow","rightarrow","leftarrow","rightarrow","rightarrow"],"horizon":5,"forced_choices":["leftarrow","rightarrow","leftarrow","rightarrow"],"right_color":"lightblue","left_color":"orange","left_mu":40,"right_mu":52,"left_numbers":[31,43,46,45,45],"right_numbers":[54,70,64,55,51],"points_earned":253,"phase":"task","trial_type":"horizons-task","trial_index":52,"time_elapsed":659789,"internal_node_id":"0.0-48.0","task_version":"0.2"},{"response_times":[545.3100000014529,344.83499999623746,795.2099999965867,666.3850000040838,707.2550000011688,925.869999999064,387.3250000034459,389.05499999958556,751.6350000005914,1170.3399999968242],"keys_pressed":["rightarrow","rightarrow","leftarrow","rightarrow","leftarrow","rightarrow","rightarrow","rightarrow","leftarrow","rightarrow"],"horizon":10,"forced_choices":["rightarrow","rightarrow","leftarrow","rightarrow"],"right_color":"lightblue","left_color":"orange","left_mu":40,"right_mu":60,"left_numbers":[38,48,47,38,38,38,32,43,40,42],"right_numbers":[65,53,59,57,56,66,51,67,62,63],"points_earned":547,"phase":"task","trial_type":"horizons-task","trial_index":53,"time_elapsed":667977,"internal_node_id":"0.0-49.0","task_version":"0.2"},{"response_times":[3861.1949999976205,414.5150000039721,1489.8949999988545,1010.540000003064,449.89499999792315,627.3650000002235,4169.034999998985,718.7599999960512,602.3400000048568,346.31000000075437],"keys_pressed":["rightarrow","rightarrow","leftarrow","leftarrow","rightarrow","rightarrow","rightarrow","rightarrow","rightarrow","rightarrow"],"horizon":10,"forced_choices":["rightarrow","rightarrow","leftarrow","leftarrow"],"right_color":"orange","left_color":"lightblue","left_mu":60,"right_mu":90,"left_numbers":[55,46,61,61,55,47,50,75,61,58],"right_numbers":[82,98,103,91,90,88,94,85,80,100],"points_earned":839,"phase":"task","trial_type":"horizons-task","trial_index":54,"time_elapsed":683172,"internal_node_id":"0.0-50.0","task_version":"0.2"},{"response_times":[771.0650000008754,299.5050000026822,646.0700000023935,741.970000002766,889.9300000048243],"keys_pressed":["rightarrow","rightarrow","leftarrow","rightarrow","rightarrow"],"horizon":5,"forced_choices":["rightarrow","rightarrow","leftarrow","rightarrow"],"right_color":"orange","left_color":"lightblue","left_mu":60,"right_mu":30,"left_numbers":[54,67,42,59,46],"right_numbers":[45,20,19,43,21],"points_earned":171,"phase":"task","trial_type":"horizons-task","trial_index":55,"time_elapsed":688025,"internal_node_id":"0.0-51.0","task_version":"0.2"},{"response_times":[1016.0400000021327,983.205000004149,695.1799999951618,489.34499999461696,1796.2399999960326,641.8599999960279,588.0049999977928,497.5449999984121,517.7999999941094,280.1050000053365],"keys_pressed":["leftarrow","rightarrow","rightarrow","rightarrow","rightarrow","leftarrow","rightarrow","rightarrow","rightarrow","rightarrow"],"horizon":10,"forced_choices":["leftarrow","rightarrow","rightarrow","rightarrow"],"right_color":"orange","left_color":"lightblue","left_mu":60,"right_mu":80,"left_numbers":[59,52,68,54,60,61,43,70,56,65],"right_numbers":[84,58,64,77,74,78,83,79,85,72],"points_earned":712,"phase":"task","trial_type":"horizons-task","trial_index":56,"time_elapsed":697038,"internal_node_id":"0.0-52.0","task_version":"0.2"},{"response_times":[846.4899999962654,555.2200000019511,460.50499999546446,473.1499999980442,1479.4399999955203,337.2349999990547,242.15499999991152,216.0950000033481,365.059999996447,316.92499999923166],"keys_pressed":["rightarrow","leftarrow","rightarrow","rightarrow","rightarrow","rightarrow","rightarrow","rightarrow","rightarrow","rightarrow"],"horizon":10,"forced_choices":["rightarrow","leftarrow","rightarrow","rightarrow"],"right_color":"orange","left_color":"lightblue","left_mu":60,"right_mu":90,"left_numbers":[56,59,54,57,55,69,70,58,56,55],"right_numbers":[97,86,104,97,80,85,79,90,72,88],"points_earned":851,"phase":"task","trial_type":"horizons-task","trial_index":57,"time_elapsed":703836,"internal_node_id":"0.0-53.0","task_version":"0.2"},{"response_times":[1059.1700000005076,931.1399999933783,527.5649999966845,521.9700000016019,548.6000000019558],"keys_pressed":["leftarrow","leftarrow","rightarrow","rightarrow","leftarrow"],"horizon":5,"forced_choices":["leftarrow","leftarrow","rightarrow","rightarrow"],"right_color":"orange","left_color":"lightblue","left_mu":40,"right_mu":10,"left_numbers":[43,48,31,33,41],"right_numbers":[1,1,18,5,5],"points_earned":155,"phase":"task","trial_type":"horizons-task","trial_index":58,"time_elapsed":708928,"internal_node_id":"0.0-54.0","task_version":"0.2"},{"response_times":[1081.910000000731,416.0349999946775,466.4600000032224,770.4000000013039,715.834999995539],"keys_pressed":["leftarrow","rightarrow","leftarrow","rightarrow","leftarrow"],"horizon":5,"forced_choices":["leftarrow","rightarrow","leftarrow","rightarrow"],"right_color":"orange","left_color":"lightblue","left_mu":40,"right_mu":20,"left_numbers":[46,41,40,33,36],"right_numbers":[28,9,21,21,8],"points_earned":152,"phase":"task","trial_type":"horizons-task","trial_index":59,"time_elapsed":713884,"internal_node_id":"0.0-55.0","task_version":"0.2"},{"response_times":[700.2549999960465,509.3699999998789,561.1500000013039,580.1749999956228,1443.8999999985099,1692.914999999688,458.7500000052387,598.5050000017509,1583.250000003376,642.3100000029663],"keys_pressed":["rightarrow","rightarrow","leftarrow","leftarrow","leftarrow","leftarrow","rightarrow","leftarrow","rightarrow","leftarrow"],"horizon":10,"forced_choices":["rightarrow","rightarrow","leftarrow","leftarrow"],"right_color":"lightblue","left_color":"orange","left_mu":60,"right_mu":56,"left_numbers":[56,61,55,60,62,58,63,61,60,47],"right_numbers":[58,63,60,57,44,62,62,49,59,66],"points_earned":585,"phase":"task","trial_type":"horizons-task","trial_index":60,"time_elapsed":724162,"internal_node_id":"0.0-56.0","task_version":"0.2"},{"response_times":[658.8300000003073,897.3849999965169,580.9549999975134,1023.7200000047451,2129.030000003637],"keys_pressed":["rightarrow","leftarrow","leftarrow","leftarrow","leftarrow"],"horizon":5,"forced_choices":["rightarrow","leftarrow","leftarrow","leftarrow"],"right_color":"orange","left_color":"lightblue","left_mu":40,"right_mu":28,"left_numbers":[38,30,39,33,37],"right_numbers":[30,21,24,40,36],"points_earned":169,"phase":"task","trial_type":"horizons-task","trial_index":61,"time_elapsed":730956,"internal_node_id":"0.0-57.0","task_version":"0.2"},{"response_times":[773.7650000053691,432.32500000158325,581.8199999994831,634.664999997709,516.9249999963213],"keys_pressed":["rightarrow","rightarrow","leftarrow","leftarrow","rightarrow"],"horizon":5,"forced_choices":["rightarrow","rightarrow","leftarrow","leftarrow"],"right_color":"orange","left_color":"lightblue","left_mu":60,"right_mu":90,"left_numbers":[48,64,61,38,57],"right_numbers":[93,104,96,78,86],"points_earned":382,"phase":"task","trial_type":"horizons-task","trial_index":62,"time_elapsed":735401,"internal_node_id":"0.0-58.0","task_version":"0.2"},{"response_times":[870.8899999982677,409.87999999918975,1140.829999996582,425.1600000062026,2702.980000001844,512.2099999934435,496.42499999748543,1423.2699999993201,655.7600000014063,521.6349999972153],"keys_pressed":["rightarrow","rightarrow","leftarrow","leftarrow","leftarrow","leftarrow","rightarrow","rightarrow","leftarrow","rightarrow"],"horizon":10,"forced_choices":["rightarrow","rightarrow","leftarrow","leftarrow"],"right_color":"lightblue","left_color":"orange","left_mu":60,"right_mu":48,"left_numbers":[55,65,45,66,57,60,49,74,46,66],"right_numbers":[48,52,48,47,53,52,62,40,45,55],"points_earned":531,"phase":"task","trial_type":"horizons-task","trial_index":63,"time_elapsed":746067,"internal_node_id":"0.0-59.0","task_version":"0.2"},{"response_times":[578.3999999985099,511.6799999959767,427.13999999978114,483.0450000008568,3088.0499999984168],"keys_pressed":["rightarrow","rightarrow","leftarrow","rightarrow","rightarrow"],"horizon":5,"forced_choices":["rightarrow","rightarrow","leftarrow","rightarrow"],"right_color":"lightblue","left_color":"orange","left_mu":60,"right_mu":48,"left_numbers":[67,53,42,63,59],"right_numbers":[33,46,52,34,50],"points_earned":205,"phase":"task","trial_type":"horizons-task","trial_index":64,"time_elapsed":752661,"internal_node_id":"0.0-60.0","task_version":"0.2"},{"response_times":[754.1749999946915,457.90999999735504,506.80999999900814,523.5249999968801,2065.179999997723,920.5050000018673,511.29000000213273,328.45500000263564,252.08500000019558,253.53999999794178],"keys_pressed":["leftarrow","leftarrow","rightarrow","rightarrow","rightarrow","rightarrow","rightarrow","rightarrow","rightarrow","rightarrow"],"horizon":10,"forced_choices":["leftarrow","leftarrow","rightarrow","rightarrow"],"right_color":"lightblue","left_color":"orange","left_mu":60,"right_mu":64,"left_numbers":[61,62,61,62,57,51,63,62,56,50],"right_numbers":[58,73,64,60,78,72,68,65,73,76],"points_earned":679,"phase":"task","trial_type":"horizons-task","trial_index":65,"time_elapsed":760741,"internal_node_id":"0.0-61.0","task_version":"0.2"},{"response_times":[794.6950000041397,617.6199999972014,628.114999999525,589.8649999944028,1100.4600000015926,2009.895000002929,658.129999996163,1049.654999995255,710.7800000013085,692.1300000030315],"keys_pressed":["leftarrow","rightarrow","rightarrow","leftarrow","rightarrow","rightarrow","rightarrow","leftarrow","rightarrow","leftarrow"],"horizon":10,"forced_choices":["leftarrow","rightarrow","rightarrow","leftarrow"],"right_color":"orange","left_color":"lightblue","left_mu":40,"right_mu":48,"left_numbers":[32,32,36,28,33,44,30,41,47,41],"right_numbers":[36,50,42,44,48,44,29,44,45,48],"points_earned":400,"phase":"task","trial_type":"horizons-task","trial_index":66,"time_elapsed":771098,"internal_node_id":"0.0-62.0","task_version":"0.2"},{"response_times":[762.4350000041304,541.9399999955203,719.9299999993527,2269.84999999695,1660.0299999990966],"keys_pressed":["rightarrow","leftarrow","leftarrow","rightarrow","leftarrow"],"horizon":5,"forced_choices":["rightarrow","leftarrow","leftarrow","rightarrow"],"right_color":"lightblue","left_color":"orange","left_mu":40,"right_mu":32,"left_numbers":[43,41,37,39,48],"right_numbers":[33,39,47,33,20],"points_earned":192,"phase":"task","trial_type":"horizons-task","trial_index":67,"time_elapsed":778557,"internal_node_id":"0.0-63.0","task_version":"0.2"},{"response_times":[767.1300000002375,678.6199999987148,958.7400000018533,655.0649999990128,1813.7949999945704,658.34000000183,379.0099999968661,732.6949999987846,298.0850000020582,264.2100000011269],"keys_pressed":["rightarrow","leftarrow","leftarrow","leftarrow","rightarrow","rightarrow","rightarrow","rightarrow","rightarrow","rightarrow"],"horizon":10,"forced_choices":["rightarrow","leftarrow","leftarrow","leftarrow"],"right_color":"lightblue","left_color":"orange","left_mu":40,"right_mu":52,"left_numbers":[56,29,39,37,43,42,31,39,37,51],"right_numbers":[52,60,39,45,53,54,43,48,52,42],"points_earned":449,"phase":"task","trial_type":"horizons-task","trial_index":68,"time_elapsed":787267,"internal_node_id":"0.0-64.0","task_version":"0.2"},{"response_times":[1015.3000000064494,442.24499999848194,775.665000001085,2618.995000004419,688.5949999996228],"keys_pressed":["leftarrow","rightarrow","rightarrow","leftarrow","rightarrow"],"horizon":5,"forced_choices":["leftarrow","rightarrow","rightarrow","leftarrow"],"right_color":"lightblue","left_color":"orange","left_mu":40,"right_mu":60,"left_numbers":[35,51,47,36,35],"right_numbers":[43,76,55,57,64],"points_earned":266,"phase":"task","trial_type":"horizons-task","trial_index":69,"time_elapsed":794312,"internal_node_id":"0.0-65.0","task_version":"0.2"},{"response_times":[788.9599999981001,564.734999999986,503.8799999966286,1219.1900000034366,716.8400000008987,1047.4600000015926,381.14499999932013,596.660000002943,343.36000000615604,510.19999999704305],"keys_pressed":["leftarrow","leftarrow","rightarrow","leftarrow","rightarrow","rightarrow","rightarrow","rightarrow","rightarrow","rightarrow"],"horizon":10,"forced_choices":["leftarrow","leftarrow","rightarrow","leftarrow"],"right_color":"lightblue","left_color":"orange","left_mu":60,"right_mu":72,"left_numbers":[61,62,48,72,51,59,68,59,62,65],"right_numbers":[67,83,70,68,62,61,61,60,74,75],"points_earned":658,"phase":"task","trial_type":"horizons-task","trial_index":70,"time_elapsed":802493,"internal_node_id":"0.0-66.0","task_version":"0.2"},{"response_times":[825.7099999972852,763.2849999936298,673.7550000034971,908.799999997369,879.3300000034506,530.7400000019697,559.870000004652,467.27499999536667,754.4899999992922,326.8150000004098],"keys_pressed":["leftarrow","leftarrow","rightarrow","leftarrow","rightarrow","rightarrow","rightarrow","rightarrow","rightarrow","rightarrow"],"horizon":10,"forced_choices":["leftarrow","leftarrow","rightarrow","leftarrow"],"right_color":"lightblue","left_color":"orange","left_mu":60,"right_mu":68,"left_numbers":[50,76,51,66,57,67,62,75,52,61],"right_numbers":[64,74,75,82,57,65,62,57,52,63],"points_earned":623,"phase":"task","trial_type":"horizons-task","trial_index":71,"time_elapsed":810688,"internal_node_id":"0.0-67.0","task_version":"0.2"},{"response_times":[680.7750000007218,393.759999999078,480.2899999994552,1089.1200000043027,580.7700000004843],"keys_pressed":["leftarrow","rightarrow","leftarrow","leftarrow","leftarrow"],"horizon":5,"forced_choices":["leftarrow","rightarrow","leftarrow","leftarrow"],"right_color":"orange","left_color":"lightblue","left_mu":60,"right_mu":40,"left_numbers":[61,73,68,63,55],"right_numbers":[33,37,43,47,47],"points_earned":284,"phase":"task","trial_type":"horizons-task","trial_index":72,"time_elapsed":815417,"internal_node_id":"0.0-68.0","task_version":"0.2"},{"response_times":[599.4599999976344,377.4649999977555,399.76500000199303,580.8600000018487,673.1100000033621],"keys_pressed":["leftarrow","rightarrow","rightarrow","rightarrow","leftarrow"],"horizon":5,"forced_choices":["leftarrow","rightarrow","rightarrow","rightarrow"],"right_color":"orange","left_color":"lightblue","left_mu":60,"right_mu":80,"left_numbers":[63,64,64,70,57],"right_numbers":[77,82,65,74,87],"points_earned":341,"phase":"task","trial_type":"horizons-task","trial_index":73,"time_elapsed":819554,"internal_node_id":"0.0-69.0","task_version":"0.2"},{"response_times":[925.8650000047637,639.9900000032503,898.0799999990268,1306.8249999996042,598.2000000003027],"keys_pressed":["leftarrow","leftarrow","leftarrow","rightarrow","rightarrow"],"horizon":5,"forced_choices":["leftarrow","leftarrow","leftarrow","rightarrow"],"right_color":"lightblue","left_color":"orange","left_mu":40,"right_mu":44,"left_numbers":[40,47,40,45,51],"right_numbers":[44,55,45,48,41],"points_earned":216,"phase":"task","trial_type":"horizons-task","trial_index":74,"time_elapsed":825428,"internal_node_id":"0.0-70.0","task_version":"0.2"},{"response_times":[901.0699999998324,480.8550000016112,536.520000001532,290.7450000056997,2537.2249999999767,956.279999998631,893.4949999966193,809.3000000008615,699.8499999971827,373.1499999994412],"keys_pressed":["leftarrow","rightarrow","leftarrow","rightarrow","leftarrow","leftarrow","leftarrow","leftarrow","leftarrow","leftarrow"],"horizon":10,"forced_choices":["leftarrow","rightarrow","leftarrow","rightarrow"],"right_color":"orange","left_color":"lightblue","left_mu":40,"right_mu":20,"left_numbers":[43,34,46,45,35,42,44,40,22,35],"right_numbers":[23,17,22,13,30,18,20,6,20,29],"points_earned":337,"phase":"task","trial_type":"horizons-task","trial_index":75,"time_elapsed":835412,"internal_node_id":"0.0-71.0","task_version":"0.2"},{"response_times":[916.3849999967497,633.7300000013784,968.2350000003353,561.1150000041816,1672.3649999984773,1068.7049999978626,722.6749999972526,540.5949999985751,309.17000000039116,326.6349999975646],"keys_pressed":["leftarrow","rightarrow","rightarrow","leftarrow","rightarrow","leftarrow","leftarrow","leftarrow","leftarrow","leftarrow"],"horizon":10,"forced_choices":["leftarrow","rightarrow","rightarrow","leftarrow"],"right_color":"lightblue","left_color":"orange","left_mu":40,"right_mu":44,"left_numbers":[30,25,28,37,42,41,45,47,40,38],"right_numbers":[47,47,41,45,30,49,43,36,36,57],"points_earned":396,"phase":"task","trial_type":"horizons-task","trial_index":76,"time_elapsed":844636,"internal_node_id":"0.0-72.0","task_version":"0.2"},{"response_times":[816.4150000012014,645.2850000059698,877.220000002184,941.0100000023376,1049.444999996922],"keys_pressed":["rightarrow","leftarrow","leftarrow","rightarrow","rightarrow"],"horizon":5,"forced_choices":["rightarrow","leftarrow","leftarrow","rightarrow"],"right_color":"lightblue","left_color":"orange","left_mu":40,"right_mu":70,"left_numbers":[37,25,42,45,54],"right_numbers":[76,74,67,69,66],"points_earned":278,"phase":"task","trial_type":"horizons-task","trial_index":77,"time_elapsed":850469,"internal_node_id":"0.0-73.0","task_version":"0.2"},{"response_times":[1037.2999999963213,454.85500000359025,446.5950000011362,575.8800000040792,2505.2599999980303],"keys_pressed":["rightarrow","leftarrow","rightarrow","leftarrow","leftarrow"],"horizon":5,"forced_choices":["rightarrow","leftarrow","rightarrow","leftarrow"],"right_color":"orange","left_color":"lightblue","left_mu":60,"right_mu":52,"left_numbers":[66,69,62,61,59],"right_numbers":[49,44,46,47,53],"points_earned":284,"phase":"task","trial_type":"horizons-task","trial_index":78,"time_elapsed":856996,"internal_node_id":"0.0-74.0","task_version":"0.2"},{"response_times":[1020.0199999962933,497.99000000348315,1075.2700000011828,933.6949999995995,849.4500000015832,755.8700000008103,918.5849999994971,738.3300000000745,887.4299999952782,855.4950000033714],"keys_pressed":["rightarrow","leftarrow","leftarrow","leftarrow","rightarrow","rightarrow","leftarrow","rightarrow","rightarrow","leftarrow"],"horizon":10,"forced_choices":["rightarrow","leftarrow","leftarrow","leftarrow"],"right_color":"orange","left_color":"lightblue","left_mu":40,"right_mu":28,"left_numbers":[46,33,33,25,46,36,24,32,44,48],"right_numbers":[33,35,45,27,35,23,23,38,16,26],"points_earned":308,"phase":"task","trial_type":"horizons-task","trial_index":79,"time_elapsed":867035,"internal_node_id":"0.0-75.0","task_version":"0.2"},{"response_times":[882.6950000001816,530.9699999998556,467.2149999969406,728.7149999975227,2507.964999997057,690.3000000020256,1005.9200000033015,616.8949999993201,423.69000000320375,534.8699999959208],"keys_pressed":["leftarrow","rightarrow","leftarrow","rightarrow","rightarrow","rightarrow","leftarrow","rightarrow","rightarrow","rightarrow"],"horizon":10,"forced_choices":["leftarrow","rightarrow","leftarrow","rightarrow"],"right_color":"lightblue","left_color":"orange","left_mu":40,"right_mu":52,"left_numbers":[39,35,44,33,47,40,38,47,25,51],"right_numbers":[49,49,48,55,53,40,59,46,55,44],"points_earned":463,"phase":"task","trial_type":"horizons-task","trial_index":80,"time_elapsed":876930,"internal_node_id":"0.0-76.0","task_version":"0.2"},{"response_times":[884.0350000027101,625.1800000027288,515.6100000021979,731.0400000059744,1030.0449999994598],"keys_pressed":["leftarrow","rightarrow","leftarrow","rightarrow","leftarrow"],"horizon":5,"forced_choices":["leftarrow","rightarrow","leftarrow","rightarrow"],"right_color":"orange","left_color":"lightblue","left_mu":40,"right_mu":28,"left_numbers":[33,30,45,51,42],"right_numbers":[30,17,31,31,24],"points_earned":168,"phase":"task","trial_type":"horizons-task","trial_index":81,"time_elapsed":882220,"internal_node_id":"0.0-77.0","task_version":"0.2"},{"response_times":[673.7100000027567,451.3500000030035,424.2300000041723,656.6349999993108,481.67999999714084,2038.169999999809,747.1149999982445,305.3349999972852,253.88000000384636,506.17500000214204],"keys_pressed":["rightarrow","leftarrow","rightarrow","leftarrow","rightarrow","rightarrow","rightarrow","rightarrow","rightarrow","rightarrow"],"horizon":10,"forced_choices":["rightarrow","leftarrow","rightarrow","leftarrow"],"right_color":"orange","left_color":"lightblue","left_mu":60,"right_mu":52,"left_numbers":[57,53,60,59,65,62,31,55,68,52],"right_numbers":[54,64,57,51,52,49,47,45,49,51],"points_earned":516,"phase":"task","trial_type":"horizons-task","trial_index":82,"time_elapsed":890264,"internal_node_id":"0.0-78.0","task_version":"0.2"},{"response_times":[1318.7200000029989,736.7200000009034,484.5050000003539,708.7200000023004,471.6450000050245],"keys_pressed":["leftarrow","leftarrow","leftarrow","rightarrow","leftarrow"],"horizon":5,"forced_choices":["leftarrow","leftarrow","leftarrow","rightarrow"],"right_color":"orange","left_color":"lightblue","left_mu":60,"right_mu":52,"left_numbers":[72,69,51,60,73],"right_numbers":[56,39,50,56,42],"points_earned":321,"phase":"task","trial_type":"horizons-task","trial_index":83,"time_elapsed":895500,"internal_node_id":"0.0-79.0","task_version":"0.2"},{"response_times":[750.4650000047404,481.28999999607913,624.7699999948964,420.76000000094064,637.9249999955064,467.41499999922235,525.8499999981141,287.400000001071,226.60000000183936,212.8000000010943],"keys_pressed":["leftarrow","leftarrow","rightarrow","rightarrow","leftarrow","leftarrow","leftarrow","leftarrow","leftarrow","leftarrow"],"horizon":10,"forced_choices":["leftarrow","leftarrow","rightarrow","rightarrow"],"right_color":"orange","left_color":"lightblue","left_mu":40,"right_mu":10,"left_numbers":[55,43,20,35,36,46,42,40,50,50],"right_numbers":[18,28,12,20,16,12,15,3,0,13],"points_earned":394,"phase":"task","trial_type":"horizons-task","trial_index":84,"time_elapsed":901639,"internal_node_id":"0.0-80.0","task_version":"0.2"},{"response_times":[710.6300000014016,478.32000000192784,1086.6550000064308,609.1599999999162,912.3099999995902,685.3849999969825,505.4950000048848,462.57499999774154,686.119999998482,433.0150000023423],"keys_pressed":["rightarrow","rightarrow","leftarrow","rightarrow","leftarrow","leftarrow","leftarrow","leftarrow","leftarrow","leftarrow"],"horizon":10,"forced_choices":["rightarrow","rightarrow","leftarrow","rightarrow"],"right_color":"lightblue","left_color":"orange","left_mu":60,"right_mu":48,"left_numbers":[71,51,58,71,58,58,58,69,48,60],"right_numbers":[53,37,50,45,40,57,46,42,62,62],"points_earned":544,"phase":"task","trial_type":"horizons-task","trial_index":85,"time_elapsed":909714,"internal_node_id":"0.0-81.0","task_version":"0.2"},{"response_times":[836.4999999975553,438.8200000029756,459.7199999988079,1022.575000002631,2017.1449999979232],"keys_pressed":["leftarrow","rightarrow","leftarrow","leftarrow","leftarrow"],"horizon":5,"forced_choices":["leftarrow","rightarrow","leftarrow","leftarrow"],"right_color":"orange","left_color":"lightblue","left_mu":40,"right_mu":10,"left_numbers":[33,30,49,38,37],"right_numbers":[25,6,0,12,29],"points_earned":163,"phase":"task","trial_type":"horizons-task","trial_index":86,"time_elapsed":915995,"internal_node_id":"0.0-82.0","task_version":"0.2"},{"response_times":[1012.694999997504,384.285000000149,469.8500000012573,797.0099999946542,928.3399999986868],"keys_pressed":["leftarrow","rightarrow","leftarrow","rightarrow","rightarrow"],"horizon":5,"forced_choices":["leftarrow","rightarrow","leftarrow","rightarrow"],"right_color":"orange","left_color":"lightblue","left_mu":60,"right_mu":80,"left_numbers":[63,64,62,67,72],"right_numbers":[94,64,79,92,96],"points_earned":377,"phase":"task","trial_type":"horizons-task","trial_index":87,"time_elapsed":921092,"internal_node_id":"0.0-83.0","task_version":"0.2"},{"response_times":[752.6450000004843,817.315000000177,1168.3350000021746,1065.565000004368,670.285000000149],"keys_pressed":["leftarrow","rightarrow","rightarrow","rightarrow","leftarrow"],"horizon":5,"forced_choices":["leftarrow","rightarrow","rightarrow","rightarrow"],"right_color":"lightblue","left_color":"orange","left_mu":40,"right_mu":32,"left_numbers":[34,29,48,36,35],"right_numbers":[35,31,31,34,29],"points_earned":165,"phase":"task","trial_type":"horizons-task","trial_index":88,"time_elapsed":927069,"internal_node_id":"0.0-84.0","task_version":"0.2"},{"response_times":[884.8999999973457,620.6499999971129,500.99499999475665,624.7149999981048,1687.4000000025844,1172.3650000058115,615.8399999985704,729.5149999991991,447.0900000014808,516.7550000041956],"keys_pressed":["leftarrow","leftarrow","rightarrow","leftarrow","leftarrow","rightarrow","leftarrow","rightarrow","rightarrow","rightarrow"],"horizon":10,"forced_choices":["leftarrow","leftarrow","rightarrow","leftarrow"],"right_color":"orange","left_color":"lightblue","left_mu":40,"right_mu":36,"left_numbers":[36,40,32,43,37,43,29,37,46,44],"right_numbers":[49,45,31,29,35,39,42,44,30,42],"points_earned":371,"phase":"task","trial_type":"horizons-task","trial_index":89,"time_elapsed":936373,"internal_node_id":"0.0-85.0","task_version":"0.2"},{"response_times":[690.9799999992829,440.2550000012852,1123.6950000021607,902.2750000003725,1430.1449999985052],"keys_pressed":["rightarrow","leftarrow","leftarrow","leftarrow","leftarrow"],"horizon":5,"forced_choices":["rightarrow","leftarrow","leftarrow","leftarrow"],"right_color":"lightblue","left_color":"orange","left_mu":60,"right_mu":64,"left_numbers":[62,72,62,58,54],"right_numbers":[64,57,60,62,67],"points_earned":310,"phase":"task","trial_type":"horizons-task","trial_index":90,"time_elapsed":942476,"internal_node_id":"0.0-86.0","task_version":"0.2"},{"response_times":[1009.1700000048149,498.6250000001164,506.7200000048615,1685.7499999968568,450.6949999994831],"keys_pressed":["rightarrow","leftarrow","rightarrow","rightarrow","rightarrow"],"horizon":5,"forced_choices":["rightarrow","leftarrow","rightarrow","rightarrow"],"right_color":"lightblue","left_color":"orange","left_mu":60,"right_mu":56,"left_numbers":[57,49,52,57,67],"right_numbers":[52,68,66,51,62],"points_earned":280,"phase":"task","trial_type":"horizons-task","trial_index":91,"time_elapsed":948132,"internal_node_id":"0.0-87.0","task_version":"0.2"},{"rt":17802.660000001313,"responses":{"age":"19","gender-categorical":"Female","gender-free-response":"","ethnicity":"Not Hispanic or Latino","race":["White"],"language":"Yes","fluency":"Very well"},"survey":"demographics","trial_type":"survey-demo","trial_index":92,"time_elapsed":965940,"internal_node_id":"0.0-88.0","task_version":"0.2"},{"rt":14282.1900000053,"responses":{"difficulty":"5","fun":"5","clarity":"5","strategy":"","feedback":""},"survey":"debrief","trial_type":"survey-debrief","trial_index":93,"time_elapsed":980230,"internal_node_id":"0.0-89.0","task_version":"0.2","interactions":"[]"}]