[{"view_history":"[{\"page_index\":0,\"viewing_time\":23333.699999999226}]","rt":23336.40000000014,"trial_type":"instructions","trial_index":0,"time_elapsed":23359,"internal_node_id":"0.0-0.0","task_version":"0.2"},{"item_order":[0,13,15,9,8,11,14,4,7,3,5,12,6,10,2,1],"responses":{"Q01":"2","Q14":"1","Q16":"4","Q10":"2","Q09":"2","Q12":"2","Q15":"4","Q05":"3","Q08":"2","Q04":"2","Q06":"2","Q13":"4","Q07":"4","Q11":"4","Q03":"3","Q02":"4"},"radio_events":[188597.69999999844,199127.199999999,206164.30000000037,272584.5000000009,481231.99999999994,487534.10000000073,506851.5999999982,675758.9999999981,683075.4999999991,683905.8000000005,717976.8000000003,722259.6999999988,730312.5,732578.4999999995,742828.6999999983,744529.5000000005],"key_events":[],"mouse_events":[0.499999998282874,120554.49999999837,121636.8999999977,122980.49999999785,188597.69999999844,189178.4000000007,199127.199999999,206164.30000000037,272584.5000000009,479983.09999999765,481231.99999999994,487534.10000000073,495165.6999999978,497011.9999999988,506851.5999999982,675758.9999999981,682179.5999999994,683075.4999999991,683905.8000000005,688768.7000000007,717976.8000000003,721393.799999998,722259.6999999988,730312.5,731675.6999999997,732578.4999999995,742828.6999999983,744529.5000000005,745701.0999999985],"rt":745720.9000000004,"survey":"nfc","trial_type":"survey-template","trial_index":1,"time_elapsed":823980,"internal_node_id":"0.0-1.0","task_version":"0.2"},{"item_order":[10,8,7,5,6,0,15,14,9,4,13,12,16,1,3,2,11],"responses":{"Q11":"2","Q09":"3","Q08":"1","Q06":"2","Q07":"1","Q01":"3","Q16":"1","Q15":"3","Q10":"2","Q05":"2","Q14":"0","Q13":"1","Q17":"1","Q02":"1","Q04":"0","Q03":"1","Q12":"3"},"radio_events":[48164.99999999732,53824.999999997206,63356.7000000003,74777.99999999849,99847.29999999772,119439.29999999818,121078.19999999995,122127.49999999872,150043.09999999905,163704.90000000072,169706.3999999992,174315.5000000007,178154.19999999728,185008.99999999825,187822.39999999735,194849.20000000065,200470.90000000037,203110.19999999925],"key_events":[],"mouse_events":[48164.99999999732,53824.999999997206,63356.7000000003,74777.99999999849,84355.99999999977,99847.29999999772,119439.29999999818,121078.19999999995,122127.49999999872,150043.09999999905,163704.90000000072,169706.3999999992,174315.5000000007,178154.19999999728,185008.99999999825,187822.39999999735,194849.20000000065,200470.90000000037,203110.19999999925,204221.09999999893],"rt":204230.09999999707,"survey":"pswq","trial_type":"survey-template","trial_index":2,"time_elapsed":1028241,"internal_node_id":"0.0-2.0","task_version":"0.2"},{"item_order":[8,3,10,5,0,6,7,2,12,4,9,1,11],"responses":{"Q09":"3","Q04":"3","Q11":"3","Q06":"0","Q01":"1","Q07":"1","Q08":"4","Q03":"0","Q13":"3","Q05":"2","Q10":"0","Q02":"2","Q12":"3"},"radio_events":[123257.39999999851,170557.79999999865,179777.00000000186,185007.70000000205,189651.39999999874,202603.59999999846,208313.39999999898,214039.30000000028,217141.59999999893,221562.30000000144,249270.70000000088,257009.90000000084,304947.1999999988,309019.89999999944,312202.49999999953],"key_events":[],"mouse_events":[118975.50000000047,122379.8999999999,123257.39999999851,126784.10000000079,169805.00000000023,170557.79999999865,179777.00000000186,185007.70000000205,189651.39999999874,202603.59999999846,207415.79999999888,208313.39999999898,214039.30000000028,215245.90000000177,216097.49999999977,217141.59999999893,221562.30000000144,246435.0000000014,247202.400000002,249270.70000000088,257009.90000000084,304947.1999999988,308080.09999999916,309019.89999999944,312202.49999999953,314852.90000000177],"rt":314859.89999999944,"survey":"ius12","trial_type":"survey-template","trial_index":3,"time_elapsed":1355755,"internal_node_id":"0.0-3.0","task_version":"0.2"},{"view_history":"[{\"page_index\":0,\"viewing_time\":11733.400000001071},{\"page_index\":1,\"viewing_time\":36854.89999999851},{\"page_index\":2,\"viewing_time\":24374.20000000205},{\"page_index\":3,\"viewing_time\":22431.099999997998},{\"page_index\":4,\"viewing_time\":9750.500000001863},{\"page_index\":5,\"viewing_time\":8885.500000000233},{\"page_index\":6,\"viewing_time\":41401.89999999711},{\"page_index\":7,\"viewing_time\":25301.500000001397},{\"page_index\":8,\"viewing_time\":13894.19999999879},{\"page_index\":9,\"viewing_time\":24107.800000001676}]","rt":218737.00000000116,"trial_type":"instructions","trial_index":4,"time_elapsed":1574434,"internal_node_id":"0.0-4.0-0.0","task_version":"0.2"},{"response_times":[146248.1999999981,4794.000000001863,3580.200000000419,3863.4000000020023,12054.400000001071],"keys_pressed":["rightarrow","leftarrow","rightarrow","rightarrow","rightarrow"],"horizon":5,"forced_choices":["rightarrow","leftarrow","rightarrow","rightarrow"],"right_color":"lightblue","left_color":"orange","left_mu":40,"right_mu":20,"left_numbers":[47,43,30,46,52],"right_numbers":[32,23,20,26,29],"points_earned":150,"phase":"practice","trial_type":"horizons-task","trial_index":5,"time_elapsed":1746509,"internal_node_id":"0.0-4.0-1.0","task_version":"0.2"},{"response_times":[2217.0000000004657,5455.799999999581,23660.70000000042,2584.9999999990687,1326.1999999994878,1193.6000000024214,1259.0999999991618,2239.9999999979045,1725.3999999992084,13079.600000000792],"keys_pressed":["leftarrow","leftarrow","rightarrow","rightarrow","leftarrow","leftarrow","rightarrow","leftarrow","rightarrow","leftarrow"],"horizon":10,"forced_choices":["leftarrow","leftarrow","rightarrow","rightarrow"],"right_color":"orange","left_color":"lightblue","left_mu":60,"right_mu":70,"left_numbers":[61,64,47,62,62,62,69,58,65,67],"right_numbers":[73,76,69,75,69,66,62,73,90,76],"points_earned":670,"phase":"practice","trial_type":"horizons-task","trial_index":6,"time_elapsed":1802762,"internal_node_id":"0.0-4.0-2.0","task_version":"0.2"},{"view_history":"[{\"page_index\":0,\"viewing_time\":4884.000000001863},{\"page_index\":1,\"viewing_time\":19233.099999997532},{\"page_index\":2,\"viewing_time\":5722.00000000163},{\"page_index\":3,\"viewing_time\":9781.29999999865}]","rt":39622.20000000158,"trial_type":"instructions","trial_index":7,"time_elapsed":1842388,"internal_node_id":"0.0-4.0-3.0","task_version":"0.2"},{"responses":["true","false","true"],"num_errors":0,"rt":29205.29999999772,"trial_type":"horizons-comprehension","trial_index":8,"time_elapsed":1871613,"internal_node_id":"0.0-4.0-4.0","task_version":"0.2"},{"trial_type":"call-function","trial_index":9,"time_elapsed":1871635,"internal_node_id":"0.0-5.0","task_version":"0.2"},{"view_history":"[{\"page_index\":0,\"viewing_time\":4670.99999999837},{\"page_index\":1,\"viewing_time\":7342.499999998836}]","rt":12014.899999998277,"trial_type":"instructions","trial_index":10,"time_elapsed":1883653,"internal_node_id":"0.0-6.0","task_version":"0.2"},{"response_times":[17116.69999999879,2403.8000000000466,1724.0000000020955,1343.0999999982305,1308.300000000745],"keys_pressed":["leftarrow","rightarrow","rightarrow","rightarrow","leftarrow"],"horizon":5,"forced_choices":["leftarrow","rightarrow","rightarrow","rightarrow"],"right_color":"lightblue","left_color":"orange","left_mu":40,"right_mu":10,"left_numbers":[29,35,40,49,38],"right_numbers":[4,7,16,26,20],"points_earned":116,"phase":"task","trial_type":"horizons-task","trial_index":11,"time_elapsed":1909074,"internal_node_id":"0.0-7.0","task_version":"0.2"},{"response_times":[1291.4999999995343,1443.800000000978,1076.4999999993015,761.2999999981839,862.2999999972526,746.899999998277,745.399999999674,663.5000000023283,1259.299999997951,1343.4999999988358],"keys_pressed":["leftarrow","rightarrow","leftarrow","leftarrow","rightarrow","leftarrow","rightarrow","rightarrow","leftarrow","leftarrow"],"horizon":10,"forced_choices":["leftarrow","rightarrow","leftarrow","leftarrow"],"right_color":"orange","left_color":"lightblue","left_mu":40,"right_mu":70,"left_numbers":[36,42,33,30,34,38,59,37,38,51],"right_numbers":[66,64,66,68,74,68,58,60,61,56],"points_earned":482,"phase":"task","trial_type":"horizons-task","trial_index":12,"time_elapsed":1920779,"internal_node_id":"0.0-8.0","task_version":"0.2"},{"response_times":[1374.8000000014435,1626.9000000029337,727.1999999976251,1043.0000000016298,912.5000000023283],"keys_pressed":["leftarrow","rightarrow","rightarrow","leftarrow","leftarrow"],"horizon":5,"forced_choices":["leftarrow","rightarrow","rightarrow","leftarrow"],"right_color":"orange","left_color":"lightblue","left_mu":60,"right_mu":56,"left_numbers":[62,61,49,44,62],"right_numbers":[58,58,61,45,64],"points_earned":287,"phase":"task","trial_type":"horizons-task","trial_index":13,"time_elapsed":1927975,"internal_node_id":"0.0-9.0","task_version":"0.2"},{"response_times":[904.9999999988358,2007.4999999995343,1591.5999999998603,1424.800000000745,2156.2000000011176,1508.799999999581,1861.7999999988824,2299.9999999993015,1593.1000000019558,1854.9999999995343],"keys_pressed":["rightarrow","leftarrow","leftarrow","rightarrow","leftarrow","rightarrow","leftarrow","rightarrow","leftarrow","rightarrow"],"horizon":10,"forced_choices":["rightarrow","leftarrow","leftarrow","rightarrow"],"right_color":"lightblue","left_color":"orange","left_mu":40,"right_mu":52,"left_numbers":[51,34,41,40,32,40,45,49,41,45],"right_numbers":[46,43,62,60,60,45,59,48,49,47],"points_earned":439,"phase":"task","trial_type":"horizons-task","trial_index":14,"time_elapsed":1946697,"internal_node_id":"0.0-10.0","task_version":"0.2"},{"response_times":[1837.9000000022352,2851.9000000015367,1059.699999997858,2073.1000000012573,3365.9000000006054,1094.3999999980442,2337.299999999348,1359.7000000008848,876.5999999996275,828.3000000009779],"keys_pressed":["rightarrow","leftarrow","rightarrow","leftarrow","leftarrow","rightarrow","rightarrow","rightarrow","rightarrow","rightarrow"],"horizon":10,"forced_choices":["rightarrow","leftarrow","rightarrow","leftarrow"],"right_color":"orange","left_color":"lightblue","left_mu":40,"right_mu":70,"left_numbers":[47,42,28,27,35,31,30,31,42,45],"right_numbers":[69,81,56,63,89,72,66,65,68,61],"points_earned":561,"phase":"task","trial_type":"horizons-task","trial_index":15,"time_elapsed":1965893,"internal_node_id":"0.0-11.0","task_version":"0.2"},{"response_times":[1309.0000000011642,1012.6999999992549,1391.4999999979045,910,2421.8999999975786,2338.4000000006054,994.8000000002794,911.5000000018626,1075.9999999974389,895.6999999971595],"keys_pressed":["rightarrow","rightarrow","leftarrow","rightarrow","leftarrow","leftarrow","rightarrow","rightarrow","rightarrow","leftarrow"],"horizon":10,"forced_choices":["rightarrow","rightarrow","leftarrow","rightarrow"],"right_color":"lightblue","left_color":"orange","left_mu":40,"right_mu":52,"left_numbers":[37,41,25,36,40,35,40,46,31,42],"right_numbers":[38,39,68,54,43,52,53,52,48,47],"points_earned":426,"phase":"task","trial_type":"horizons-task","trial_index":16,"time_elapsed":1980667,"internal_node_id":"0.0-12.0","task_version":"0.2"},{"response_times":[1043.4999999997672,1525.9000000006054,1375.8000000016764,910.6000000028871,1675.9000000017695],"keys_pressed":["rightarrow","leftarrow","leftarrow","rightarrow","leftarrow"],"horizon":5,"forced_choices":["rightarrow","leftarrow","leftarrow","rightarrow"],"right_color":"orange","left_color":"lightblue","left_mu":60,"right_mu":90,"left_numbers":[64,44,73,51,70],"right_numbers":[89,85,98,103,96],"points_earned":379,"phase":"task","trial_type":"horizons-task","trial_index":17,"time_elapsed":1988710,"internal_node_id":"0.0-13.0","task_version":"0.2"},{"response_times":[1158.9000000022352,1889.9999999993015,1012.0999999998603,810.3999999985099,1044.2000000001863,1659.5999999991618,1226.2999999984168,1044.3999999987427,1292.7999999991152,927.4000000003725],"keys_pressed":["rightarrow","leftarrow","rightarrow","leftarrow","rightarrow","leftarrow","leftarrow","rightarrow","rightarrow","leftarrow"],"horizon":10,"forced_choices":["rightarrow","leftarrow","rightarrow","leftarrow"],"right_color":"orange","left_color":"lightblue","left_mu":40,"right_mu":20,"left_numbers":[59,39,36,41,38,52,38,45,39,28],"right_numbers":[14,15,27,21,12,25,9,12,22,14],"points_earned":285,"phase":"task","trial_type":"horizons-task","trial_index":18,"time_elapsed":2002287,"internal_node_id":"0.0-14.0","task_version":"0.2"},{"response_times":[1015.3000000026077,1410.4000000008382,714.7000000006519,941.5000000006985,1061.2999999974854,2621.6999999997206,961.2000000015832,1130.300000000745,1108.0000000002328,893.9999999967404],"keys_pressed":["leftarrow","rightarrow","leftarrow","leftarrow","leftarrow","rightarrow","leftarrow","leftarrow","leftarrow","leftarrow"],"horizon":10,"forced_choices":["leftarrow","rightarrow","leftarrow","leftarrow"],"right_color":"lightblue","left_color":"orange","left_mu":40,"right_mu":32,"left_numbers":[44,50,28,41,35,53,49,37,43,31],"right_numbers":[47,36,43,24,25,29,40,39,28,32],"points_earned":373,"phase":"task","trial_type":"horizons-task","trial_index":19,"time_elapsed":2015653,"internal_node_id":"0.0-15.0","task_version":"0.2"},{"response_times":[1905.699999999255,994.5000000006985,694.8999999985099,1012.2000000011176,977.6999999994878,977.399999999674,1478.3000000023749,1391.500000001397,926.8999999985099,778.8000000000466],"keys_pressed":["leftarrow","leftarrow","rightarrow","rightarrow","leftarrow","leftarrow","rightarrow","leftarrow","leftarrow","rightarrow"],"horizon":10,"forced_choices":["leftarrow","leftarrow","rightarrow","rightarrow"],"right_color":"lightblue","left_color":"orange","left_mu":60,"right_mu":40,"left_numbers":[61,52,47,59,50,62,62,60,53,56],"right_numbers":[36,47,27,40,40,31,47,39,37,48],"points_earned":500,"phase":"task","trial_type":"horizons-task","trial_index":20,"time_elapsed":2028302,"internal_node_id":"0.0-16.0","task_version":"0.2"},{"response_times":[1574.5999999998603,1178.8999999989755,860.999999997206,1308.9000000001397,896.0999999979977,846.3999999985099,927.1999999980908,1011.6999999990221,762.5000000009313,844.4999999993015],"keys_pressed":["leftarrow","rightarrow","leftarrow","rightarrow","rightarrow","leftarrow","rightarrow","rightarrow","rightarrow","leftarrow"],"horizon":10,"forced_choices":["leftarrow","rightarrow","leftarrow","rightarrow"],"right_color":"orange","left_color":"lightblue","left_mu":60,"right_mu":52,"left_numbers":[66,57,60,60,77,54,51,44,60,67],"right_numbers":[53,64,58,41,43,44,63,55,42,47],"points_earned":555,"phase":"task","trial_type":"horizons-task","trial_index":21,"time_elapsed":2040024,"internal_node_id":"0.0-17.0","task_version":"0.2"},{"response_times":[997.1000000005588,978.5999999986961,843.3000000005122,961.5000000011642,895.8999999994412],"keys_pressed":["rightarrow","leftarrow","leftarrow","leftarrow","rightarrow"],"horizon":5,"forced_choices":["rightarrow","leftarrow","leftarrow","leftarrow"],"right_color":"lightblue","left_color":"orange","left_mu":60,"right_mu":80,"left_numbers":[60,68,57,35,75],"right_numbers":[89,80,71,67,65],"points_earned":314,"phase":"task","trial_type":"horizons-task","trial_index":22,"time_elapsed":2046210,"internal_node_id":"0.0-18.0","task_version":"0.2"},{"response_times":[1126.1000000012573,4347.099999999162,926.1000000005588,16232.200000002049,861.3000000005122],"keys_pressed":["leftarrow","rightarrow","leftarrow","leftarrow","leftarrow"],"horizon":5,"forced_choices":["leftarrow","rightarrow","leftarrow","leftarrow"],"right_color":"orange","left_color":"lightblue","left_mu":40,"right_mu":70,"left_numbers":[59,24,44,39,56],"right_numbers":[73,56,83,79,84],"points_earned":254,"phase":"task","trial_type":"horizons-task","trial_index":23,"time_elapsed":2071214,"internal_node_id":"0.0-19.0","task_version":"0.2"},{"response_times":[778.1000000031199,729.9000000020023,695.8000000014435,960.5999999984633,729.0999999968335],"keys_pressed":["leftarrow","rightarrow","leftarrow","leftarrow","rightarrow"],"horizon":5,"forced_choices":["leftarrow","rightarrow","leftarrow","leftarrow"],"right_color":"lightblue","left_color":"orange","left_mu":40,"right_mu":32,"left_numbers":[50,32,41,34,41],"right_numbers":[11,51,45,34,33],"points_earned":209,"phase":"task","trial_type":"horizons-task","trial_index":24,"time_elapsed":2076616,"internal_node_id":"0.0-20.0","task_version":"0.2"},{"response_times":[3515.599999998696,1094.9000000001397,712.6999999999534,661.9000000027008,764.2000000013504,744.8999999978114,1027.3999999989755,697.2000000022817,962.1999999983236,1109.9000000029337],"keys_pressed":["rightarrow","leftarrow","leftarrow","rightarrow","rightarrow","leftarrow","leftarrow","rightarrow","rightarrow","rightarrow"],"horizon":10,"forced_choices":["rightarrow","leftarrow","leftarrow","rightarrow"],"right_color":"orange","left_color":"lightblue","left_mu":40,"right_mu":44,"left_numbers":[46,29,49,42,47,49,33,29,37,67],"right_numbers":[43,45,38,55,34,54,52,51,59,36],"points_earned":438,"phase":"task","trial_type":"horizons-task","trial_index":25,"time_elapsed":2089418,"internal_node_id":"0.0-21.0","task_version":"0.2"},{"response_times":[1906.8999999980442,1143.6999999969266,960.8000000007451,712.2999999991152,762.6999999992549],"keys_pressed":["leftarrow","leftarrow","leftarrow","rightarrow","rightarrow"],"horizon":5,"forced_choices":["leftarrow","leftarrow","leftarrow","rightarrow"],"right_color":"orange","left_color":"lightblue","left_mu":60,"right_mu":56,"left_numbers":[59,68,65,71,75],"right_numbers":[60,47,51,51,58],"points_earned":301,"phase":"task","trial_type":"horizons-task","trial_index":26,"time_elapsed":2096415,"internal_node_id":"0.0-22.0","task_version":"0.2"},{"response_times":[3419.5,747.8000000009779,610.899999999674,762.0999999998603,812.9999999983702],"keys_pressed":["leftarrow","rightarrow","leftarrow","rightarrow","rightarrow"],"horizon":5,"forced_choices":["leftarrow","rightarrow","leftarrow","rightarrow"],"right_color":"orange","left_color":"lightblue","left_mu":60,"right_mu":52,"left_numbers":[55,45,66,53,54],"right_numbers":[41,46,40,62,53],"points_earned":282,"phase":"task","trial_type":"horizons-task","trial_index":27,"time_elapsed":2104275,"internal_node_id":"0.0-23.0","task_version":"0.2"},{"response_times":[1177.39999999688,679.7000000006519,1425.800000000978,746.199999997858,1940.600000001723],"keys_pressed":["rightarrow","rightarrow","leftarrow","rightarrow","leftarrow"],"horizon":5,"forced_choices":["rightarrow","rightarrow","leftarrow","rightarrow"],"right_color":"lightblue","left_color":"orange","left_mu":40,"right_mu":52,"left_numbers":[45,48,33,36,42],"right_numbers":[56,47,55,54,52],"points_earned":232,"phase":"task","trial_type":"horizons-task","trial_index":28,"time_elapsed":2111755,"internal_node_id":"0.0-24.0","task_version":"0.2"},{"response_times":[825.0999999982305,763.2000000011176,1092.8999999994412,1077.2999999972526,1261.3000000019092],"keys_pressed":["rightarrow","rightarrow","rightarrow","leftarrow","leftarrow"],"horizon":5,"forced_choices":["rightarrow","rightarrow","rightarrow","leftarrow"],"right_color":"lightblue","left_color":"orange","left_mu":60,"right_mu":48,"left_numbers":[61,61,56,71,51],"right_numbers":[36,50,53,36,51],"points_earned":261,"phase":"task","trial_type":"horizons-task","trial_index":29,"time_elapsed":2118285,"internal_node_id":"0.0-25.0","task_version":"0.2"},{"response_times":[976.9000000015367,861.0999999982305,647.5999999966007,778.6999999990221,2057.100000001956],"keys_pressed":["leftarrow","rightarrow","leftarrow","rightarrow","leftarrow"],"horizon":5,"forced_choices":["leftarrow","rightarrow","leftarrow","rightarrow"],"right_color":"lightblue","left_color":"orange","left_mu":60,"right_mu":80,"left_numbers":[67,59,67,60,60],"right_numbers":[75,78,83,77,68],"points_earned":349,"phase":"task","trial_type":"horizons-task","trial_index":30,"time_elapsed":2125116,"internal_node_id":"0.0-26.0","task_version":"0.2"},{"response_times":[894.6999999969266,760.999999998603,995.3999999999069,1177.699999996461,1143.5999999993946],"keys_pressed":["leftarrow","rightarrow","rightarrow","rightarrow","rightarrow"],"horizon":5,"forced_choices":["leftarrow","rightarrow","rightarrow","rightarrow"],"right_color":"lightblue","left_color":"orange","left_mu":60,"right_mu":40,"left_numbers":[57,60,68,63,62],"right_numbers":[44,39,41,41,37],"points_earned":215,"phase":"task","trial_type":"horizons-task","trial_index":31,"time_elapsed":2131598,"internal_node_id":"0.0-27.0","task_version":"0.2"},{"response_times":[1380.300000000745,943.9999999993015,1443.4999999976717,961.1000000005588,2603.700000003213],"keys_pressed":["leftarrow","rightarrow","rightarrow","leftarrow","leftarrow"],"horizon":5,"forced_choices":["leftarrow","rightarrow","rightarrow","leftarrow"],"right_color":"orange","left_color":"lightblue","left_mu":60,"right_mu":68,"left_numbers":[59,67,69,68,67],"right_numbers":[71,73,62,61,63],"points_earned":329,"phase":"task","trial_type":"horizons-task","trial_index":32,"time_elapsed":2140436,"internal_node_id":"0.0-28.0","task_version":"0.2"},{"response_times":[796.0000000020955,778.8000000000466,630.9000000001397,976.300000002142,795.9000000008382,1277.6999999987893,826.8999999999069,796.1000000031199,714,595.0999999986961],"keys_pressed":["rightarrow","rightarrow","rightarrow","leftarrow","rightarrow","rightarrow","rightarrow","rightarrow","rightarrow","rightarrow"],"horizon":10,"forced_choices":["rightarrow","rightarrow","rightarrow","leftarrow"],"right_color":"orange","left_color":"lightblue","left_mu":40,"right_mu":60,"left_numbers":[40,36,48,37,40,27,48,39,33,29],"right_numbers":[49,48,63,63,82,64,53,59,56,62],"points_earned":573,"phase":"task","trial_type":"horizons-task","trial_index":33,"time_elapsed":2150134,"internal_node_id":"0.0-29.0","task_version":"0.2"},{"response_times":[1130.600000000326,697.0000000002328,1358.3000000000466,879.500000002794,1227.9000000015367],"keys_pressed":["rightarrow","rightarrow","leftarrow","rightarrow","rightarrow"],"horizon":5,"forced_choices":["rightarrow","rightarrow","leftarrow","rightarrow"],"right_color":"orange","left_color":"lightblue","left_mu":40,"right_mu":44,"left_numbers":[32,36,51,53,38],"right_numbers":[31,41,39,35,25],"points_earned":183,"phase":"task","trial_type":"horizons-task","trial_index":34,"time_elapsed":2156933,"internal_node_id":"0.0-30.0","task_version":"0.2"},{"response_times":[877.3000000000466,4045.7999999998137,911.7000000006519,1262.1000000000931,809.9000000003725],"keys_pressed":["rightarrow","leftarrow","rightarrow","rightarrow","rightarrow"],"horizon":5,"forced_choices":["rightarrow","leftarrow","rightarrow","rightarrow"],"right_color":"orange","left_color":"lightblue","left_mu":60,"right_mu":90,"left_numbers":[63,41,65,61,69],"right_numbers":[85,95,83,93,87],"points_earned":389,"phase":"task","trial_type":"horizons-task","trial_index":35,"time_elapsed":2166351,"internal_node_id":"0.0-31.0","task_version":"0.2"},{"response_times":[1180.5000000023283,1887.3999999999069,748.1999999983236,1190.3999999994412,846.000000001397,961.8000000007451,696.1999999983236,611.3999999980442,664.3000000007451,546.999999998603],"keys_pressed":["rightarrow","leftarrow","rightarrow","leftarrow","rightarrow","rightarrow","rightarrow","rightarrow","rightarrow","rightarrow"],"horizon":10,"forced_choices":["rightarrow","leftarrow","rightarrow","leftarrow"],"right_color":"lightblue","left_color":"orange","left_mu":60,"right_mu":72,"left_numbers":[54,56,64,56,66,63,58,60,62,55],"right_numbers":[70,85,73,80,58,75,66,69,80,74],"points_earned":677,"phase":"task","trial_type":"horizons-task","trial_index":36,"time_elapsed":2177194,"internal_node_id":"0.0-32.0","task_version":"0.2"},{"response_times":[764.8000000007451,829.3000000012107,1458.8000000002794,1212.1000000005588,777.2999999979511,767.4999999981374,643.499999998603,594.3999999980442,531.2999999988824,579.5999999972992],"keys_pressed":["rightarrow","rightarrow","leftarrow","leftarrow","rightarrow","rightarrow","rightarrow","rightarrow","rightarrow","rightarrow"],"horizon":10,"forced_choices":["rightarrow","rightarrow","leftarrow","leftarrow"],"right_color":"orange","left_color":"lightblue","left_mu":40,"right_mu":60,"left_numbers":[39,35,22,46,28,35,46,48,33,44],"right_numbers":[48,72,61,48,64,61,51,53,56,58],"points_earned":531,"phase":"task","trial_type":"horizons-task","trial_index":37,"time_elapsed":2186859,"internal_node_id":"0.0-33.0","task_version":"0.2"},{"response_times":[1592.700000000652,2155.600000001956,842.499999998603,711.6999999997206,1809.2999999970198,428.10000000102445,71.50000000186265,4158.199999997858,978.3000000026077,578.9999999976717],"keys_pressed":["leftarrow","leftarrow","leftarrow","rightarrow","rightarrow","rightarrow","rightarrow","rightarrow","leftarrow","leftarrow"],"horizon":10,"forced_choices":["leftarrow","leftarrow","leftarrow","rightarrow"],"right_color":"orange","left_color":"lightblue","left_mu":60,"right_mu":56,"left_numbers":[60,62,55,58,47,69,48,67,56,62],"right_numbers":[60,67,62,50,67,62,40,44,58,78],"points_earned":558,"phase":"task","trial_type":"horizons-task","trial_index":38,"time_elapsed":2201699,"internal_node_id":"0.0-34.0","task_version":"0.2"},{"response_times":[811.9000000008382,862.4000000017695,1591.3000000002794,878.7000000011176,632.2000000001863],"keys_pressed":["leftarrow","rightarrow","rightarrow","rightarrow","leftarrow"],"horizon":5,"forced_choices":["leftarrow","rightarrow","rightarrow","rightarrow"],"right_color":"orange","left_color":"lightblue","left_mu":40,"right_mu":20,"left_numbers":[42,40,29,36,36],"right_numbers":[23,23,33,21,21],"points_earned":155,"phase":"task","trial_type":"horizons-task","trial_index":39,"time_elapsed":2207988,"internal_node_id":"0.0-35.0","task_version":"0.2"},{"response_times":[824.499999998603,1326.800000002142,811.3999999985099,1094.3000000002794,2819.199999997858,1475.5999999982305,446.7000000006519,811.3999999985099,746.3999999999069,546.2000000006519],"keys_pressed":["rightarrow","leftarrow","rightarrow","rightarrow","leftarrow","leftarrow","leftarrow","rightarrow","leftarrow","leftarrow"],"horizon":10,"forced_choices":["rightarrow","leftarrow","rightarrow","rightarrow"],"right_color":"orange","left_color":"lightblue","left_mu":40,"right_mu":28,"left_numbers":[42,49,29,36,45,44,30,41,47,32],"right_numbers":[37,17,26,19,26,29,29,21,11,21],"points_earned":350,"phase":"task","trial_type":"horizons-task","trial_index":40,"time_elapsed":2220400,"internal_node_id":"0.0-36.0","task_version":"0.2"},{"response_times":[2011.8999999975786,1226.8999999980442,861.2000000029802,944.0999999968335,1725.5000000004657],"keys_pressed":["leftarrow","rightarrow","leftarrow","rightarrow","leftarrow"],"horizon":5,"forced_choices":["leftarrow","rightarrow","leftarrow","rightarrow"],"right_color":"lightblue","left_color":"orange","left_mu":40,"right_mu":36,"left_numbers":[40,39,45,48,32],"right_numbers":[32,30,34,34,40],"points_earned":181,"phase":"task","trial_type":"horizons-task","trial_index":41,"time_elapsed":2228676,"internal_node_id":"0.0-37.0","task_version":"0.2"},{"response_times":[1041.3999999985099,2298.200000000652,1425.800000000745,861.500000002794,744.8000000002794,1028.6000000014901,513.6000000019558,397.0999999982305,382.4000000022352,413.19999999925494],"keys_pressed":["rightarrow","leftarrow","leftarrow","leftarrow","rightarrow","rightarrow","rightarrow","rightarrow","rightarrow","rightarrow"],"horizon":10,"forced_choices":["rightarrow","leftarrow","leftarrow","leftarrow"],"right_color":"lightblue","left_color":"orange","left_mu":60,"right_mu":80,"left_numbers":[45,36,40,54,64,65,72,66,56,55],"right_numbers":[81,88,80,83,78,88,87,70,90,67],"points_earned":691,"phase":"task","trial_type":"horizons-task","trial_index":42,"time_elapsed":2239302,"internal_node_id":"0.0-38.0","task_version":"0.2"},{"response_times":[3022.8000000026077,1260.4000000027008,1408.4000000003725,993.2000000006519,812.3000000016764,597.2000000001863,481,447.0999999977648,496.99999999953434,548.8000000002794],"keys_pressed":["rightarrow","leftarrow","leftarrow","leftarrow","leftarrow","leftarrow","leftarrow","leftarrow","leftarrow","leftarrow"],"horizon":10,"forced_choices":["rightarrow","leftarrow","leftarrow","leftarrow"],"right_color":"lightblue","left_color":"orange","left_mu":60,"right_mu":30,"left_numbers":[58,76,56,51,49,63,84,66,61,59],"right_numbers":[33,28,30,12,39,30,27,37,14,24],"points_earned":598,"phase":"task","trial_type":"horizons-task","trial_index":43,"time_elapsed":2250877,"internal_node_id":"0.0-39.0","task_version":"0.2"},{"response_times":[976.0000000023283,995.3999999999069,910.8000000016764,828.699999997858,2074.2999999998137],"keys_pressed":["rightarrow","leftarrow","leftarrow","rightarrow","rightarrow"],"horizon":5,"forced_choices":["rightarrow","leftarrow","leftarrow","rightarrow"],"right_color":"orange","left_color":"lightblue","left_mu":40,"right_mu":44,"left_numbers":[32,43,29,48,38],"right_numbers":[56,36,43,55,33],"points_earned":216,"phase":"task","trial_type":"horizons-task","trial_index":44,"time_elapsed":2258173,"internal_node_id":"0.0-40.0","task_version":"0.2"},{"response_times":[1025.5999999972992,614.2000000001863,1342.3999999980442,745.9000000017695,2039.8999999999069,563.5,431.19999999925494,413.1999999987893,430.499999998603,365.0999999991618],"keys_pressed":["leftarrow","rightarrow","rightarrow","leftarrow","rightarrow","rightarrow","rightarrow","rightarrow","rightarrow","rightarrow"],"horizon":10,"forced_choices":["leftarrow","rightarrow","rightarrow","leftarrow"],"right_color":"orange","left_color":"lightblue","left_mu":60,"right_mu":68,"left_numbers":[58,78,63,55,61,53,57,59,48,70],"right_numbers":[72,76,68,65,77,60,58,64,65,54],"points_earned":635,"phase":"task","trial_type":"horizons-task","trial_index":45,"time_elapsed":2267660,"internal_node_id":"0.0-41.0","task_version":"0.2"},{"response_times":[903.1000000028871,496.8999999980442,728.000000002794,647.500000002794,512.6000000014901,2423.8000000002794,696.5999999991618,478.5999999982305,430.499999998603,578.9999999976717],"keys_pressed":["leftarrow","leftarrow","rightarrow","leftarrow","rightarrow","rightarrow","rightarrow","rightarrow","rightarrow","rightarrow"],"horizon":10,"forced_choices":["leftarrow","leftarrow","rightarrow","leftarrow"],"right_color":"orange","left_color":"lightblue","left_mu":40,"right_mu":48,"left_numbers":[41,35,37,37,30,46,39,42,49,36],"right_numbers":[29,50,44,39,50,40,46,45,46,44],"points_earned":428,"phase":"task","trial_type":"horizons-task","trial_index":46,"time_elapsed":2277073,"internal_node_id":"0.0-42.0","task_version":"0.2"},{"response_times":[816.8000000002794,1195.4000000003725,1853.9999999990687,894.1999999987893,3150.6000000010245],"keys_pressed":["rightarrow","leftarrow","leftarrow","leftarrow","leftarrow"],"horizon":5,"forced_choices":["rightarrow","leftarrow","leftarrow","leftarrow"],"right_color":"lightblue","left_color":"orange","left_mu":40,"right_mu":36,"left_numbers":[43,38,39,33,46],"right_numbers":[38,42,48,30,36],"points_earned":194,"phase":"task","trial_type":"horizons-task","trial_index":47,"time_elapsed":2286492,"internal_node_id":"0.0-43.0","task_version":"0.2"},{"response_times":[994.6000000019558,1790.8999999999069,745.9999999990687,976.6999999992549,1758.3000000012107,496.2999999988824,399.90000000037253,379.3000000002794,232,531.1000000005588],"keys_pressed":["rightarrow","leftarrow","leftarrow","rightarrow","rightarrow","rightarrow","rightarrow","rightarrow","rightarrow","rightarrow"],"horizon":10,"forced_choices":["rightarrow","leftarrow","leftarrow","rightarrow"],"right_color":"orange","left_color":"lightblue","left_mu":60,"right_mu":90,"left_numbers":[64,64,58,60,46,63,59,64,53,63],"right_numbers":[91,91,90,93,92,98,90,78,77,85],"points_earned":826,"phase":"task","trial_type":"horizons-task","trial_index":48,"time_elapsed":2296308,"internal_node_id":"0.0-44.0","task_version":"0.2"},{"response_times":[1191.5999999982305,795.2000000006519,927.2999999993481,695.4999999976717,863.6000000005588,3746.700000003446,464.4000000008382,1873.1999999983236,695.8000000012107,331.39999999897555],"keys_pressed":["leftarrow","rightarrow","leftarrow","rightarrow","rightarrow","rightarrow","rightarrow","rightarrow","rightarrow","rightarrow"],"horizon":10,"forced_choices":["leftarrow","rightarrow","leftarrow","rightarrow"],"right_color":"orange","left_color":"lightblue","left_mu":40,"right_mu":48,"left_numbers":[39,39,51,41,24,28,45,38,47,43],"right_numbers":[35,59,42,44,41,49,48,60,60,49],"points_earned":500,"phase":"task","trial_type":"horizons-task","trial_index":49,"time_elapsed":2309405,"internal_node_id":"0.0-45.0","task_version":"0.2"},{"response_times":[829.4999999995343,780.2000000006519,8389.399999999907,1043.3999999989755,695.5999999991618],"keys_pressed":["rightarrow","rightarrow","leftarrow","rightarrow","rightarrow"],"horizon":5,"forced_choices":["rightarrow","rightarrow","leftarrow","rightarrow"],"right_color":"lightblue","left_color":"orange","left_mu":60,"right_mu":64,"left_numbers":[83,54,67,62,69],"right_numbers":[51,56,59,52,71],"points_earned":297,"phase":"task","trial_type":"horizons-task","trial_index":50,"time_elapsed":2322653,"internal_node_id":"0.0-46.0","task_version":"0.2"},{"view_history":"[{\"page_index\":0,\"viewing_time\":19012.699999999255},{\"page_index\":1,\"viewing_time\":3563.999999998603}]","rt":22578.39999999851,"trial_type":"instructions","trial_index":51,"time_elapsed":2345236,"internal_node_id":"0.0-47.0","task_version":"0.2"},{"response_times":[11927.9000000027,1690.9000000013039,1392.8999999989755,878.0999999977648,1923.800000000745,695.3000000030734,744.9999999990687,994.5999999982305,1759.3999999989755,812.2000000001863],"keys_pressed":["rightarrow","rightarrow","leftarrow","leftarrow","leftarrow","leftarrow","leftarrow","leftarrow","leftarrow","leftarrow"],"horizon":10,"forced_choices":["rightarrow","rightarrow","leftarrow","leftarrow"],"right_color":"lightblue","left_color":"orange","left_mu":60,"right_mu":64,"left_numbers":[69,62,66,61,65,50,51,56,66,56],"right_numbers":[54,59,69,76,64,64,68,57,70,53],"points_earned":584,"phase":"task","trial_type":"horizons-task","trial_index":52,"time_elapsed":2369897,"internal_node_id":"0.0-48.0","task_version":"0.2"},{"response_times":[1642.8999999989755,926.2000000015832,795.3999999989755,829.5,1807.500000002794,446.8000000016764,379.89999999990687,281.6000000019558,298.69999999925494,397.6000000005588],"keys_pressed":["rightarrow","rightarrow","leftarrow","leftarrow","leftarrow","leftarrow","leftarrow","leftarrow","leftarrow","leftarrow"],"horizon":10,"forced_choices":["rightarrow","rightarrow","leftarrow","leftarrow"],"right_color":"lightblue","left_color":"orange","left_mu":40,"right_mu":32,"left_numbers":[48,48,49,33,39,37,53,44,22,41],"right_numbers":[23,36,17,31,28,20,12,36,32,24],"points_earned":377,"phase":"task","trial_type":"horizons-task","trial_index":53,"time_elapsed":2379214,"internal_node_id":"0.0-49.0","task_version":"0.2"},{"response_times":[833.1000000038184,696.8999999989755,730.5999999991618,610.3000000002794,1775.799999999348,547.5000000004657,496.8999999985099,612.3000000007451,383.7000000020489,279.6000000014901],"keys_pressed":["rightarrow","rightarrow","leftarrow","rightarrow","rightarrow","rightarrow","rightarrow","rightarrow","rightarrow","rightarrow"],"horizon":10,"forced_choices":["rightarrow","rightarrow","leftarrow","rightarrow"],"right_color":"orange","left_color":"lightblue","left_mu":40,"right_mu":44,"left_numbers":[49,42,34,34,32,32,36,41,32,33],"right_numbers":[42,23,49,54,55,37,58,45,41,35],"points_earned":424,"phase":"task","trial_type":"horizons-task","trial_index":54,"time_elapsed":2387688,"internal_node_id":"0.0-50.0","task_version":"0.2"},{"response_times":[911.0000000004657,911.8999999989755,679.1999999987893,910.2999999998137,3997.599999999162],"keys_pressed":["leftarrow","rightarrow","leftarrow","rightarrow","rightarrow"],"horizon":5,"forced_choices":["leftarrow","rightarrow","leftarrow","rightarrow"],"right_color":"orange","left_color":"lightblue","left_mu":40,"right_mu":48,"left_numbers":[27,58,45,35,45],"right_numbers":[44,48,35,52,53],"points_earned":225,"phase":"task","trial_type":"horizons-task","trial_index":55,"time_elapsed":2396609,"internal_node_id":"0.0-51.0","task_version":"0.2"},{"response_times":[1705.9000000013039,944.7000000001863,1210.800000000745,528.999999998603,1011.3999999994412,414.0000000009313,215.69999999692664,248.40000000037253,182.49999999906868,364.4000000022352],"keys_pressed":["leftarrow","rightarrow","leftarrow","rightarrow","rightarrow","rightarrow","rightarrow","rightarrow","rightarrow","rightarrow"],"horizon":10,"forced_choices":["leftarrow","rightarrow","leftarrow","rightarrow"],"right_color":"lightblue","left_color":"orange","left_mu":60,"right_mu":80,"left_numbers":[50,61,38,52,72,49,57,41,54,70],"right_numbers":[73,91,73,89,79,73,79,73,77,80],"points_earned":729,"phase":"task","trial_type":"horizons-task","trial_index":56,"time_elapsed":2404948,"internal_node_id":"0.0-52.0","task_version":"0.2"},{"response_times":[1026.2000000001863,1259.5999999972992,598.2000000006519,646.6999999973923,2156.199999997858,911.2999999998137,561.9999999981374,397.4999999990687,565.2000000011176,545.3999999989755],"keys_pressed":["leftarrow","leftarrow","rightarrow","rightarrow","leftarrow","leftarrow","leftarrow","leftarrow","leftarrow","leftarrow"],"horizon":10,"forced_choices":["leftarrow","leftarrow","rightarrow","rightarrow"],"right_color":"lightblue","left_color":"orange","left_mu":60,"right_mu":30,"left_numbers":[57,54,56,57,75,66,55,63,61,54],"right_numbers":[37,41,32,16,25,39,21,24,41,33],"points_earned":533,"phase":"task","trial_type":"horizons-task","trial_index":57,"time_elapsed":2415127,"internal_node_id":"0.0-53.0","task_version":"0.2"},{"response_times":[1326.4000000017695,811.5000000032596,861.7999999988824,879.699999997858,2603.2000000011176],"keys_pressed":["leftarrow","leftarrow","rightarrow","rightarrow","leftarrow"],"horizon":5,"forced_choices":["leftarrow","leftarrow","rightarrow","rightarrow"],"right_color":"lightblue","left_color":"orange","left_mu":60,"right_mu":40,"left_numbers":[52,53,49,54,62],"right_numbers":[39,46,33,55,37],"points_earned":255,"phase":"task","trial_type":"horizons-task","trial_index":58,"time_elapsed":2423121,"internal_node_id":"0.0-54.0","task_version":"0.2"},{"response_times":[861.2000000029802,928.7000000006519,645.5999999996275,1010.7999999998137,3880.9000000003725,629.2999999970198,429.8999999994412,381.6000000005588,297.5000000009313,315.1999999973923],"keys_pressed":["leftarrow","rightarrow","rightarrow","rightarrow","leftarrow","leftarrow","leftarrow","leftarrow","leftarrow","leftarrow"],"horizon":10,"forced_choices":["leftarrow","rightarrow","rightarrow","rightarrow"],"right_color":"lightblue","left_color":"orange","left_mu":40,"right_mu":10,"left_numbers":[42,31,36,30,44,29,48,44,35,45],"right_numbers":[26,7,20,4,0,14,5,5,0,19],"points_earned":318,"phase":"task","trial_type":"horizons-task","trial_index":59,"time_elapsed":2434012,"internal_node_id":"0.0-55.0","task_version":"0.2"},{"response_times":[5240.5,860.0000000004657,895.3000000002794,1126.700000000652,1228.3999999999069,910.6000000028871,413.40000000130385,314.6999999987893,281.39999999990687,298.5000000009313],"keys_pressed":["leftarrow","leftarrow","leftarrow","rightarrow","leftarrow","leftarrow","leftarrow","leftarrow","leftarrow","leftarrow"],"horizon":10,"forced_choices":["leftarrow","leftarrow","leftarrow","rightarrow"],"right_color":"orange","left_color":"lightblue","left_mu":60,"right_mu":52,"left_numbers":[65,72,59,67,61,62,66,59,65,63],"right_numbers":[28,56,47,48,60,48,61,59,51,46],"points_earned":620,"phase":"task","trial_type":"horizons-task","trial_index":60,"time_elapsed":2447093,"internal_node_id":"0.0-56.0","task_version":"0.2"},{"response_times":[899.2000000001863,415.69999999785796,2221.799999999348,779.5999999982305,3067.6999999997206],"keys_pressed":["leftarrow","leftarrow","rightarrow","leftarrow","rightarrow"],"horizon":5,"forced_choices":["leftarrow","leftarrow","rightarrow","leftarrow"],"right_color":"orange","left_color":"lightblue","left_mu":60,"right_mu":68,"left_numbers":[74,51,55,57,68],"right_numbers":[65,77,75,74,69],"points_earned":326,"phase":"task","trial_type":"horizons-task","trial_index":61,"time_elapsed":2455983,"internal_node_id":"0.0-57.0","task_version":"0.2"},{"response_times":[1075.199999999255,1028.5000000004657,2354.599999998696,713.0999999972992,1624.200000002049,479.59999999869615,396.80000000214204,348.4000000022352,497.20000000158325,863.6000000005588],"keys_pressed":["leftarrow","rightarrow","rightarrow","rightarrow","leftarrow","leftarrow","leftarrow","leftarrow","rightarrow","leftarrow"],"horizon":10,"forced_choices":["leftarrow","rightarrow","rightarrow","rightarrow"],"right_color":"orange","left_color":"lightblue","left_mu":40,"right_mu":20,"left_numbers":[49,38,27,44,41,37,39,39,61,35],"right_numbers":[26,13,33,13,19,8,15,12,17,13],"points_earned":316,"phase":"task","trial_type":"horizons-task","trial_index":62,"time_elapsed":2466877,"internal_node_id":"0.0-58.0","task_version":"0.2"},{"response_times":[1555.6999999969266,664.4999999990687,1027.800000003539,894.5000000023283,1476.5000000009313],"keys_pressed":["rightarrow","rightarrow","rightarrow","leftarrow","rightarrow"],"horizon":5,"forced_choices":["rightarrow","rightarrow","rightarrow","leftarrow"],"right_color":"orange","left_color":"lightblue","left_mu":40,"right_mu":60,"left_numbers":[50,36,40,43,42],"right_numbers":[59,55,50,76,73],"points_earned":280,"phase":"task","trial_type":"horizons-task","trial_index":63,"time_elapsed":2474006,"internal_node_id":"0.0-59.0","task_version":"0.2"},{"response_times":[976.0999999996275,974.5000000004657,1759.5,877.7000000006519,2570.4000000003725],"keys_pressed":["rightarrow","leftarrow","rightarrow","leftarrow","leftarrow"],"horizon":5,"forced_choices":["rightarrow","leftarrow","rightarrow","leftarrow"],"right_color":"orange","left_color":"lightblue","left_mu":40,"right_mu":20,"left_numbers":[42,39,37,37,44],"right_numbers":[21,21,23,22,18],"points_earned":164,"phase":"task","trial_type":"horizons-task","trial_index":64,"time_elapsed":2482677,"internal_node_id":"0.0-60.0","task_version":"0.2"},{"response_times":[908.500000001397,678.9000000027008,712.7000000001863,995.1000000000931,2902.6999999987893],"keys_pressed":["leftarrow","leftarrow","rightarrow","leftarrow","rightarrow"],"horizon":5,"forced_choices":["leftarrow","leftarrow","rightarrow","leftarrow"],"right_color":"orange","left_color":"lightblue","left_mu":40,"right_mu":48,"left_numbers":[35,33,42,44,54],"right_numbers":[47,51,41,27,47],"points_earned":200,"phase":"task","trial_type":"horizons-task","trial_index":65,"time_elapsed":2490387,"internal_node_id":"0.0-61.0","task_version":"0.2"},{"response_times":[992.9000000013039,712.8000000012107,1027.999999998603,828.6000000005588,1010.2000000006519],"keys_pressed":["leftarrow","rightarrow","rightarrow","leftarrow","leftarrow"],"horizon":5,"forced_choices":["leftarrow","rightarrow","rightarrow","leftarrow"],"right_color":"orange","left_color":"lightblue","left_mu":40,"right_mu":28,"left_numbers":[45,30,44,49,50],"right_numbers":[37,15,22,35,21],"points_earned":181,"phase":"task","trial_type":"horizons-task","trial_index":66,"time_elapsed":2496470,"internal_node_id":"0.0-62.0","task_version":"0.2"},{"response_times":[1097.5,614.1999999997206,812.9000000008382,580.6999999983236,3980.199999997858,1043.3000000012107,429.8999999994412,298.10000000009313,282.39999999990687,298.2999999988824],"keys_pressed":["leftarrow","rightarrow","rightarrow","leftarrow","leftarrow","leftarrow","leftarrow","leftarrow","leftarrow","leftarrow"],"horizon":10,"forced_choices":["leftarrow","rightarrow","rightarrow","leftarrow"],"right_color":"orange","left_color":"lightblue","left_mu":40,"right_mu":28,"left_numbers":[42,40,28,40,38,41,37,34,43,43],"right_numbers":[25,35,15,21,22,29,18,31,33,37],"points_earned":368,"phase":"task","trial_type":"horizons-task","trial_index":67,"time_elapsed":2507413,"internal_node_id":"0.0-63.0","task_version":"0.2"},{"response_times":[812.3999999989755,977.9000000017695,463.2999999993481,945.500000001397,2619.9999999990687],"keys_pressed":["leftarrow","leftarrow","rightarrow","rightarrow","leftarrow"],"horizon":5,"forced_choices":["leftarrow","leftarrow","rightarrow","rightarrow"],"right_color":"lightblue","left_color":"orange","left_mu":60,"right_mu":30,"left_numbers":[50,57,69,56,64],"right_numbers":[23,29,30,19,24],"points_earned":220,"phase":"task","trial_type":"horizons-task","trial_index":68,"time_elapsed":2514743,"internal_node_id":"0.0-64.0","task_version":"0.2"},{"response_times":[896.0000000004657,1566.3999999999069,920.7999999998137,527.5000000004657,7612.199999999721,447.59999999962747,279.8000000002794,199.40000000130385,314.2000000006519,779.2999999984168],"keys_pressed":["rightarrow","leftarrow","leftarrow","leftarrow","leftarrow","leftarrow","leftarrow","leftarrow","leftarrow","leftarrow"],"horizon":10,"forced_choices":["rightarrow","leftarrow","leftarrow","leftarrow"],"right_color":"lightblue","left_color":"orange","left_mu":40,"right_mu":36,"left_numbers":[45,29,46,32,41,44,46,44,39,45],"right_numbers":[34,30,39,33,32,51,41,24,37,39],"points_earned":400,"phase":"task","trial_type":"horizons-task","trial_index":69,"time_elapsed":2529796,"internal_node_id":"0.0-65.0","task_version":"0.2"},{"response_times":[799.2000000011176,1226.699999999255,863.3000000007451,761.8000000002794,1077.1000000024214,714,1923.3999999999069,413.1000000014901,446.500000001397,315.3999999994412],"keys_pressed":["leftarrow","rightarrow","rightarrow","leftarrow","rightarrow","leftarrow","leftarrow","leftarrow","leftarrow","leftarrow"],"horizon":10,"forced_choices":["leftarrow","rightarrow","rightarrow","leftarrow"],"right_color":"orange","left_color":"lightblue","left_mu":60,"right_mu":56,"left_numbers":[70,53,68,58,54,66,66,64,59,61],"right_numbers":[43,58,53,51,54,58,53,53,54,54],"points_earned":609,"phase":"task","trial_type":"horizons-task","trial_index":70,"time_elapsed":2539844,"internal_node_id":"0.0-66.0","task_version":"0.2"},{"response_times":[716.3999999975786,464.7000000006519,1276.899999997113,3979.7000000001863,2305.799999997951],"keys_pressed":["rightarrow","rightarrow","leftarrow","leftarrow","rightarrow"],"horizon":5,"forced_choices":["rightarrow","rightarrow","leftarrow","leftarrow"],"right_color":"orange","left_color":"lightblue","left_mu":40,"right_mu":60,"left_numbers":[29,34,40,43,36],"right_numbers":[58,57,55,65,58],"points_earned":256,"phase":"task","trial_type":"horizons-task","trial_index":71,"time_elapsed":2550094,"internal_node_id":"0.0-67.0","task_version":"0.2"},{"response_times":[742.8000000002794,662.1999999987893,811.9000000008382,616.7999999998137,1905.1000000000931,281.3000000026077,346.3999999985099,200.19999999925494,166.39999999804422,346.30000000074506],"keys_pressed":["leftarrow","leftarrow","rightarrow","rightarrow","leftarrow","leftarrow","leftarrow","leftarrow","leftarrow","leftarrow"],"horizon":10,"forced_choices":["leftarrow","leftarrow","rightarrow","rightarrow"],"right_color":"lightblue","left_color":"orange","left_mu":60,"right_mu":48,"left_numbers":[61,61,67,59,56,63,70,63,52,46],"right_numbers":[41,56,37,55,43,74,45,46,41,45],"points_earned":564,"phase":"task","trial_type":"horizons-task","trial_index":72,"time_elapsed":2557685,"internal_node_id":"0.0-68.0","task_version":"0.2"},{"response_times":[795.5000000004657,530.0999999996275,630.3999999980442,531.2999999988824,396.60000000009313,247.80000000074506,200.19999999925494,170.69999999878928,177.70000000018626,314.8000000002794],"keys_pressed":["leftarrow","leftarrow","rightarrow","leftarrow","leftarrow","leftarrow","leftarrow","leftarrow","leftarrow","leftarrow"],"horizon":10,"forced_choices":["leftarrow","leftarrow","rightarrow","leftarrow"],"right_color":"orange","left_color":"lightblue","left_mu":60,"right_mu":68,"left_numbers":[60,65,48,69,71,47,61,73,69,61],"right_numbers":[70,73,49,64,53,74,54,63,55,69],"points_earned":625,"phase":"task","trial_type":"horizons-task","trial_index":73,"time_elapsed":2563191,"internal_node_id":"0.0-69.0","task_version":"0.2"},{"response_times":[711.2999999988824,761.5000000004657,995.6000000019558,1459.800000000745,1374],"keys_pressed":["rightarrow","rightarrow","leftarrow","leftarrow","rightarrow"],"horizon":5,"forced_choices":["rightarrow","rightarrow","leftarrow","leftarrow"],"right_color":"lightblue","left_color":"orange","left_mu":60,"right_mu":64,"left_numbers":[53,70,59,54,52],"right_numbers":[68,67,44,82,56],"points_earned":304,"phase":"task","trial_type":"horizons-task","trial_index":74,"time_elapsed":2570004,"internal_node_id":"0.0-70.0","task_version":"0.2"},{"response_times":[1026.2999999974854,1410.1999999983236,860.7000000011176,862.0000000009313,647.7000000015832,844.3000000007451,199.19999999878928,149.39999999804422,182.7999999988824,151.69999999878928],"keys_pressed":["rightarrow","leftarrow","leftarrow","rightarrow","leftarrow","leftarrow","leftarrow","leftarrow","leftarrow","leftarrow"],"horizon":10,"forced_choices":["rightarrow","leftarrow","leftarrow","rightarrow"],"right_color":"lightblue","left_color":"orange","left_mu":40,"right_mu":10,"left_numbers":[42,44,54,34,39,32,47,34,53,38],"right_numbers":[10,9,0,7,0,15,0,13,7,27],"points_earned":358,"phase":"task","trial_type":"horizons-task","trial_index":75,"time_elapsed":2577849,"internal_node_id":"0.0-71.0","task_version":"0.2"},{"response_times":[1540.8999999999069,498.70000000018626,745.2000000015832,3349.6999999987893,1573.3999999975786,3532.2000000015832,729.500000001397,364.29999999748543,165.2999999965541,97.90000000037253],"keys_pressed":["leftarrow","rightarrow","leftarrow","rightarrow","leftarrow","rightarrow","rightarrow","rightarrow","rightarrow","rightarrow"],"horizon":10,"forced_choices":["leftarrow","rightarrow","leftarrow","rightarrow"],"right_color":"lightblue","left_color":"orange","left_mu":40,"right_mu":36,"left_numbers":[36,22,41,36,34,33,28,53,36,48],"right_numbers":[27,47,39,30,35,39,33,32,28,28],"points_earned":348,"phase":"task","trial_type":"horizons-task","trial_index":76,"time_elapsed":2591956,"internal_node_id":"0.0-72.0","task_version":"0.2"},{"response_times":[882.3000000012107,1194.500000001397,1361.0999999982305,844.2999999970198,413.80000000214204],"keys_pressed":["rightarrow","rightarrow","leftarrow","leftarrow","leftarrow"],"horizon":5,"forced_choices":["rightarrow","rightarrow","leftarrow","leftarrow"],"right_color":"lightblue","left_color":"orange","left_mu":40,"right_mu":32,"left_numbers":[36,31,53,46,32],"right_numbers":[38,34,23,26,41],"points_earned":203,"phase":"task","trial_type":"horizons-task","trial_index":77,"time_elapsed":2598157,"internal_node_id":"0.0-73.0","task_version":"0.2"},{"response_times":[810.9999999981374,879.3999999980442,1408.5999999986961,746.2999999988824,679.7000000006519],"keys_pressed":["rightarrow","leftarrow","rightarrow","rightarrow","leftarrow"],"horizon":5,"forced_choices":["rightarrow","leftarrow","rightarrow","rightarrow"],"right_color":"orange","left_color":"lightblue","left_mu":40,"right_mu":28,"left_numbers":[45,36,43,20,23],"right_numbers":[28,6,35,37,19],"points_earned":159,"phase":"task","trial_type":"horizons-task","trial_index":78,"time_elapsed":2604193,"internal_node_id":"0.0-74.0","task_version":"0.2"},{"response_times":[845.4999999995343,762.9999999990687,512.8000000007451,679.1999999987893,1261.300000002142,263.80000000074506,183.69999999785796,213.70000000018626,151.5,710.199999997858],"keys_pressed":["rightarrow","rightarrow","rightarrow","leftarrow","leftarrow","leftarrow","leftarrow","leftarrow","leftarrow","leftarrow"],"horizon":10,"forced_choices":["rightarrow","rightarrow","rightarrow","leftarrow"],"right_color":"lightblue","left_color":"orange","left_mu":60,"right_mu":48,"left_numbers":[68,67,60,58,51,58,59,53,51,65],"right_numbers":[42,49,44,52,43,52,51,53,45,47],"points_earned":530,"phase":"task","trial_type":"horizons-task","trial_index":79,"time_elapsed":2611288,"internal_node_id":"0.0-75.0","task_version":"0.2"},{"response_times":[911.2000000025146,6600.0999999996275,926.9000000022352,546.2000000006519,3101.399999999441],"keys_pressed":["rightarrow","leftarrow","leftarrow","leftarrow","leftarrow"],"horizon":5,"forced_choices":["rightarrow","leftarrow","leftarrow","leftarrow"],"right_color":"lightblue","left_color":"orange","left_mu":60,"right_mu":30,"left_numbers":[71,64,59,56,50],"right_numbers":[42,21,32,25,35],"points_earned":271,"phase":"task","trial_type":"horizons-task","trial_index":80,"time_elapsed":2624886,"internal_node_id":"0.0-76.0","task_version":"0.2"},{"response_times":[1490.4999999995343,1558.8999999999069,1989.3999999985099,680.0999999977648,1377.0000000004657,413.499999998603,213.69999999646097,182.49999999906868,148.1999999997206,167.0999999991618],"keys_pressed":["rightarrow","leftarrow","rightarrow","rightarrow","rightarrow","rightarrow","rightarrow","rightarrow","rightarrow","rightarrow"],"horizon":10,"forced_choices":["rightarrow","leftarrow","rightarrow","rightarrow"],"right_color":"orange","left_color":"lightblue","left_mu":60,"right_mu":90,"left_numbers":[72,64,62,64,53,46,69,60,67,58],"right_numbers":[98,79,90,90,95,91,88,92,80,86],"points_earned":874,"phase":"task","trial_type":"horizons-task","trial_index":81,"time_elapsed":2634618,"internal_node_id":"0.0-77.0","task_version":"0.2"},{"response_times":[860.3000000002794,944.2999999988824,1311.2000000001863,1242.899999997113,793.9000000003725],"keys_pressed":["rightarrow","leftarrow","rightarrow","leftarrow","rightarrow"],"horizon":5,"forced_choices":["rightarrow","leftarrow","rightarrow","leftarrow"],"right_color":"lightblue","left_color":"orange","left_mu":60,"right_mu":72,"left_numbers":[56,71,42,64,61],"right_numbers":[78,76,83,61,87],"points_earned":383,"phase":"task","trial_type":"horizons-task","trial_index":82,"time_elapsed":2641282,"internal_node_id":"0.0-78.0","task_version":"0.2"},{"response_times":[1576.4000000017695,744.5999999982305,697.2000000025146,811.7999999993481,2652.999999998603,397.69999999785796,597.0999999991618,214.4000000008382,198.3000000002794,249.80000000121072],"keys_pressed":["leftarrow","rightarrow","rightarrow","rightarrow","leftarrow","leftarrow","leftarrow","leftarrow","leftarrow","leftarrow"],"horizon":10,"forced_choices":["leftarrow","rightarrow","rightarrow","rightarrow"],"right_color":"lightblue","left_color":"orange","left_mu":60,"right_mu":40,"left_numbers":[57,59,67,63,70,63,48,52,58,65],"right_numbers":[23,31,41,41,48,37,39,47,29,42],"points_earned":526,"phase":"task","trial_type":"horizons-task","trial_index":83,"time_elapsed":2650933,"internal_node_id":"0.0-79.0","task_version":"0.2"},{"response_times":[1439.8999999975786,779.300000002142,761.6999999992549,814.0999999996275,1241.3000000016764,2638.800000000745,745.6999999997206,447.4000000008382,313.39999999897555,265.20000000158325],"keys_pressed":["leftarrow","leftarrow","rightarrow","leftarrow","leftarrow","rightarrow","rightarrow","rightarrow","rightarrow","rightarrow"],"horizon":10,"forced_choices":["leftarrow","leftarrow","rightarrow","leftarrow"],"right_color":"lightblue","left_color":"orange","left_mu":60,"right_mu":72,"left_numbers":[50,71,56,71,55,56,62,53,58,45],"right_numbers":[79,63,79,80,50,67,75,81,75,79],"points_earned":703,"phase":"task","trial_type":"horizons-task","trial_index":84,"time_elapsed":2661893,"internal_node_id":"0.0-80.0","task_version":"0.2"},{"response_times":[943.3999999999069,928.1999999987893,447.3999999971129,729.8000000007451,2422.399999999441],"keys_pressed":["leftarrow","leftarrow","leftarrow","rightarrow","leftarrow"],"horizon":5,"forced_choices":["leftarrow","leftarrow","leftarrow","rightarrow"],"right_color":"orange","left_color":"lightblue","left_mu":60,"right_mu":52,"left_numbers":[58,69,57,44,52],"right_numbers":[50,47,56,58,66],"points_earned":294,"phase":"task","trial_type":"horizons-task","trial_index":85,"time_elapsed":2668875,"internal_node_id":"0.0-81.0","task_version":"0.2"},{"response_times":[792.2999999970198,829.4999999995343,1026.299999997951,813.7999999998137,1608.9999999967404],"keys_pressed":["rightarrow","leftarrow","leftarrow","rightarrow","rightarrow"],"horizon":5,"forced_choices":["rightarrow","leftarrow","leftarrow","rightarrow"],"right_color":"lightblue","left_color":"orange","left_mu":40,"right_mu":52,"left_numbers":[48,31,52,52,51],"right_numbers":[55,50,51,55,54],"points_earned":247,"phase":"task","trial_type":"horizons-task","trial_index":86,"time_elapsed":2675456,"internal_node_id":"0.0-82.0","task_version":"0.2"},{"response_times":[874.7999999974854,829.0999999991618,695.8999999989755,780.1000000000931,3399.099999998696],"keys_pressed":["leftarrow","leftarrow","rightarrow","rightarrow","leftarrow"],"horizon":5,"forced_choices":["leftarrow","leftarrow","rightarrow","rightarrow"],"right_color":"lightblue","left_color":"orange","left_mu":60,"right_mu":48,"left_numbers":[68,50,67,71,54],"right_numbers":[47,37,51,41,53],"points_earned":264,"phase":"task","trial_type":"horizons-task","trial_index":87,"time_elapsed":2683547,"internal_node_id":"0.0-83.0","task_version":"0.2"},{"response_times":[844.2999999970198,548.5999999982305,527.4000000027008,847.2000000001863,1208.9999999990687],"keys_pressed":["leftarrow","leftarrow","rightarrow","leftarrow","rightarrow"],"horizon":5,"forced_choices":["leftarrow","leftarrow","rightarrow","leftarrow"],"right_color":"lightblue","left_color":"orange","left_mu":60,"right_mu":72,"left_numbers":[62,62,57,51,51],"right_numbers":[63,69,64,70,62],"points_earned":301,"phase":"task","trial_type":"horizons-task","trial_index":88,"time_elapsed":2689034,"internal_node_id":"0.0-84.0","task_version":"0.2"},{"response_times":[795.0999999996275,894.3000000002794,1109.3000000002794,846.7000000015832,579.0999999991618],"keys_pressed":["rightarrow","leftarrow","rightarrow","leftarrow","rightarrow"],"horizon":5,"forced_choices":["rightarrow","leftarrow","rightarrow","leftarrow"],"right_color":"orange","left_color":"lightblue","left_mu":40,"right_mu":70,"left_numbers":[50,29,55,29,35],"right_numbers":[63,88,79,71,70],"points_earned":270,"phase":"task","trial_type":"horizons-task","trial_index":89,"time_elapsed":2694770,"internal_node_id":"0.0-85.0","task_version":"0.2"},{"response_times":[812.3999999989755,2206.6999999987893,696.3999999971129,647.0999999982305,943.1000000005588],"keys_pressed":["rightarrow","leftarrow","leftarrow","rightarrow","leftarrow"],"horizon":5,"forced_choices":["rightarrow","leftarrow","leftarrow","rightarrow"],"right_color":"lightblue","left_color":"orange","left_mu":40,"right_mu":10,"left_numbers":[32,35,31,40,35],"right_numbers":[1,0,9,0,22],"points_earned":102,"phase":"task","trial_type":"horizons-task","trial_index":90,"time_elapsed":2701585,"internal_node_id":"0.0-86.0","task_version":"0.2"},{"response_times":[798.8000000002794,649.3999999985099,1058.6999999973923,481.2000000020489,961.4000000003725,1890.5999999986961,198,165.99999999720603,147.19999999925494,149.10000000242144],"keys_pressed":["rightarrow","rightarrow","leftarrow","rightarrow","rightarrow","rightarrow","rightarrow","rightarrow","rightarrow","rightarrow"],"horizon":10,"forced_choices":["rightarrow","rightarrow","leftarrow","rightarrow"],"right_color":"lightblue","left_color":"orange","left_mu":60,"right_mu":64,"left_numbers":[71,59,60,56,59,58,67,75,73,62],"right_numbers":[72,63,63,69,70,58,67,48,77,64],"points_earned":648,"phase":"task","trial_type":"horizons-task","trial_index":91,"time_elapsed":2709593,"internal_node_id":"0.0-87.0","task_version":"0.2"},{"rt":29668.19999999972,"responses":{"age":"24","gender-categorical":"Male","gender-free-response":"","ethnicity":"Not Hispanic or Latino","race":["American Indian/Alaska Native"],"language":"Yes","fluency":"Very well"},"survey":"demographics","trial_type":"survey-demo","trial_index":92,"time_elapsed":2739280,"internal_node_id":"0.0-88.0","task_version":"0.2"},{"rt":34460.39999999991,"responses":{"difficulty":"3","fun":"5","clarity":"5","strategy":"No","feedback":"No"},"survey":"debrief","trial_type":"survey-debrief","trial_index":93,"time_elapsed":2773755,"internal_node_id":"0.0-89.0","task_version":"0.2","interactions":"[{\"event\":\"blur\",\"trial\":1,\"time\":28119},{\"event\":\"focus\",\"trial\":1,\"time\":34626},{\"event\":\"blur\",\"trial\":1,\"time\":86264},{\"event\":\"focus\",\"trial\":1,\"time\":111061},{\"event\":\"blur\",\"trial\":1,\"time\":186511},{\"event\":\"focus\",\"trial\":1,\"time\":227743},{\"event\":\"blur\",\"trial\":1,\"time\":396634},{\"event\":\"focus\",\"trial\":1,\"time\":420259},{\"event\":\"blur\",\"trial\":1,\"time\":471697},{\"event\":\"focus\",\"trial\":1,\"time\":486857},{\"event\":\"blur\",\"trial\":1,\"time\":519247},{\"event\":\"focus\",\"trial\":1,\"time\":544935},{\"event\":\"blur\",\"trial\":1,\"time\":661732},{\"event\":\"focus\",\"trial\":1,\"time\":669452},{\"event\":\"blur\",\"trial\":3,\"time\":1083478},{\"event\":\"focus\",\"trial\":3,\"time\":1092604},{\"event\":\"blur\",\"trial\":3,\"time\":1092632},{\"event\":\"focus\",\"trial\":3,\"time\":1144738},{\"event\":\"blur\",\"trial\":5,\"time\":1606411},{\"event\":\"focus\",\"trial\":5,\"time\":1654064},{\"event\":\"blur\",\"trial\":5,\"time\":1660003},{\"event\":\"focus\",\"trial\":5,\"time\":1713589},{\"event\":\"blur\",\"trial\":23,\"time\":2053568},{\"event\":\"focus\",\"trial\":23,\"time\":2062086}]"}]