[{"view_history":"[{\"page_index\":0,\"viewing_time\":2156.8249999545515}]","rt":2157.069999957457,"trial_type":"instructions","trial_index":0,"time_elapsed":2161,"internal_node_id":"0.0-0.0","task_version":"0.2"},{"item_order":[3,8,0,6,9,14,15,7,10,2,1,5,13,4,11,12],"responses":{"Q04":"4","Q09":"3","Q01":"1","Q07":"5","Q10":"3","Q15":"2","Q16":"5","Q08":"3","Q11":"3","Q03":"1","Q02":"4","Q06":"2","Q14":"0","Q05":"3","Q12":"3","Q13":"1"},"radio_events":[4545.489999931306,5309.60999999661,7569.999999948777,9270.139999920502,11006.225000019185,12570.330000016838,13562.655000016093,15902.780000003986,19535.214999923483,22879.75500000175,25772.08000002429,31692.724999971688,34717.18499995768,35001.09499995597,36509.31999995373,37137.504999991506,39861.90000001807,51815.33000001218,53811.51999998838],"key_events":[],"mouse_events":[0.2799999201670289,3849.7999999672174,4193.384999991395,4545.489999931306,5309.60999999661,7293.639999930747,7569.999999948777,8221.909999963827,9270.139999920502,10102.205000002868,11006.225000019185,12570.330000016838,13562.655000016093,15902.780000003986,18783.360000001267,19535.214999923483,21807.640000013635,22879.75500000175,25772.08000002429,31692.724999971688,32508.8949999772,34717.18499995768,35001.09499995597,36509.31999995373,37137.504999991506,39861.90000001807,51815.33000001218,53811.51999998838,54427.87999997381],"rt":54430.83500000648,"survey":"nfc","trial_type":"survey-template","trial_index":1,"time_elapsed":56596,"internal_node_id":"0.0-1.0","task_version":"0.2"},{"item_order":[8,5,7,1,3,0,11,2,12,4,6,10,9],"responses":{"Q09":"3","Q06":"2","Q08":"4","Q02":"4","Q04":"2","Q01":"3","Q12":"2","Q03":"2","Q13":"4","Q05":"3","Q07":"2","Q11":"3","Q10":"3"},"radio_events":[2949.7199999168515,4750.099999946542,6050.384999951348,8746.534999925643,9842.854999937117,11538.89500000514,13323.234999901615,18507.844999898225,22872.44499998633,23572.50499993097,28709.099999978207,30197.244999930263,30613.23999997694],"key_events":[],"mouse_events":[2949.7199999168515,3525.954999960959,4750.099999946542,6050.384999951348,8066.63999997545,8746.534999925643,9842.854999937117,11538.89500000514,13003.089999896474,13323.234999901615,18507.844999898225,21192.225000006147,22872.44499998633,23572.50499993097,24956.78499992937,25196.659999899566,28709.099999978207,29353.219999931753,29805.359999998473,30197.244999930263,30613.23999997694,31147.234999923967],"rt":31149.019999895245,"survey":"ius12","trial_type":"survey-template","trial_index":2,"time_elapsed":87748,"internal_node_id":"0.0-2.0","task_version":"0.2"},{"item_order":[16,3,14,5,13,10,9,4,15,12,6,8,2,7,1,0,11],"responses":{"Q17":"0","Q04":"2","Q15":"3","Q06":"2","Q14":"3","Q11":"3","Q10":"4","Q05":"2","Q16":"4","Q13":"4","Q07":"2","Q09":"4","Q03":"4","Q08":"2","Q02":"1","Q01":"4","Q12":"2"},"radio_events":[4458.08999997098,7138.494999962859,9518.670000019483,10702.97500002198,12115.319999982603,14727.509999996983,17203.7400000263,20032.114999950863,22872.40999995265,25696.769999922253,26528.899999917485,28221.120000001974,30113.43000002671,31637.624999973923,33037.750000017695,35962.08500000648,37654.31000001263],"key_events":[],"mouse_events":[4458.08999997098,6374.414999969304,7138.494999962859,9518.670000019483,10702.97500002198,12115.319999982603,14727.509999996983,17203.7400000263,20032.114999950863,21800.38999998942,22244.36499993317,22572.36499991268,22872.40999995265,25420.805000001565,25696.769999922253,26528.899999917485,28221.120000001974,30113.43000002671,31637.624999973923,33037.750000017695,35962.08500000648,37470.029999967664,37654.31000001263,38252.40999995731],"rt":38254.4999999227,"survey":"pswq","trial_type":"survey-template","trial_index":3,"time_elapsed":126005,"internal_node_id":"0.0-3.0","task_version":"0.2"},{"view_history":"[{\"page_index\":0,\"viewing_time\":2470.1350000686944},{\"page_index\":1,\"viewing_time\":3288.3099999744445},{\"page_index\":2,\"viewing_time\":5896.820000023581},{\"page_index\":3,\"viewing_time\":5432.639999897219},{\"page_index\":4,\"viewing_time\":5424.730000086129},{\"page_index\":5,\"viewing_time\":2380.2349999314174},{\"page_index\":6,\"viewing_time\":4924.639999982901},{\"page_index\":7,\"viewing_time\":5600.765000097454},{\"page_index\":8,\"viewing_time\":5516.624999931082},{\"page_index\":9,\"viewing_time\":4544.480000040494}]","rt":45479.88500003703,"trial_type":"instructions","trial_index":4,"time_elapsed":171487,"internal_node_id":"0.0-4.0-0.0","task_version":"0.2"},{"response_times":[3674.2899999953806,924.7099999338388,706.1299999477342,707.4299999512732,6328.499999945052],"keys_pressed":["rightarrow","leftarrow","rightarrow","rightarrow","leftarrow"],"horizon":5,"forced_choices":["rightarrow","leftarrow","rightarrow","rightarrow"],"right_color":"lightblue","left_color":"orange","left_mu":40,"right_mu":20,"left_numbers":[34,30,34,32,39],"right_numbers":[29,22,9,23,25],"points_earned":130,"phase":"practice","trial_type":"horizons-task","trial_index":5,"time_elapsed":185334,"internal_node_id":"0.0-4.0-1.0","task_version":"0.2"},{"response_times":[1887.0600000955164,492.14999994728714,602.0700000226498,477.9000000562519,2862.444999977015,652.0149999996647,669.8999999789521,592.0400000177324,555.9549999888986,642.0850000577047],"keys_pressed":["leftarrow","leftarrow","rightarrow","rightarrow","rightarrow","rightarrow","rightarrow","rightarrow","rightarrow","rightarrow"],"horizon":10,"forced_choices":["leftarrow","leftarrow","rightarrow","rightarrow"],"right_color":"orange","left_color":"lightblue","left_mu":60,"right_mu":70,"left_numbers":[66,52,55,79,63,55,48,70,47,35],"right_numbers":[71,69,68,76,73,88,69,72,66,86],"points_earned":716,"phase":"practice","trial_type":"horizons-task","trial_index":6,"time_elapsed":196271,"internal_node_id":"0.0-4.0-2.0","task_version":"0.2"},{"view_history":"[{\"page_index\":0,\"viewing_time\":1765.9350000321865},{\"page_index\":1,\"viewing_time\":1776.2399999191985},{\"page_index\":2,\"viewing_time\":2448.369999998249},{\"page_index\":3,\"viewing_time\":1480.0550000509247}]","rt":7470.874999999069,"trial_type":"instructions","trial_index":7,"time_elapsed":203742,"internal_node_id":"0.0-4.0-3.0","task_version":"0.2"},{"responses":["true","false","true"],"num_errors":0,"rt":8414.38999993261,"trial_type":"horizons-comprehension","trial_index":8,"time_elapsed":212158,"internal_node_id":"0.0-4.0-4.0","task_version":"0.2"},{"trial_type":"call-function","trial_index":9,"time_elapsed":212160,"internal_node_id":"0.0-5.0","task_version":"0.2"},{"view_history":"[{\"page_index\":0,\"viewing_time\":1238.7350000208244},{\"page_index\":1,\"viewing_time\":3764.6249999525025}]","rt":5003.649999969639,"trial_type":"instructions","trial_index":10,"time_elapsed":217164,"internal_node_id":"0.0-6.0","task_version":"0.2"},{"response_times":[1338.2999999448657,388.03499995265156,423.4899999573827,515.6000000424683,3231.48499999661],"keys_pressed":["leftarrow","rightarrow","leftarrow","rightarrow","rightarrow"],"horizon":5,"forced_choices":["leftarrow","rightarrow","leftarrow","rightarrow"],"right_color":"lightblue","left_color":"orange","left_mu":40,"right_mu":60,"left_numbers":[35,49,41,26,36],"right_numbers":[64,51,47,46,62],"points_earned":235,"phase":"task","trial_type":"horizons-task","trial_index":11,"time_elapsed":224566,"internal_node_id":"0.0-7.0","task_version":"0.2"},{"response_times":[975.7499999832362,355.82000005524606,432.11000005248934,446.9850000459701,1663.2949999766424],"keys_pressed":["leftarrow","rightarrow","leftarrow","rightarrow","leftarrow"],"horizon":5,"forced_choices":["leftarrow","rightarrow","leftarrow","rightarrow"],"right_color":"orange","left_color":"lightblue","left_mu":60,"right_mu":30,"left_numbers":[55,76,65,63,60],"right_numbers":[20,14,34,30,35],"points_earned":224,"phase":"task","trial_type":"horizons-task","trial_index":12,"time_elapsed":229942,"internal_node_id":"0.0-8.0","task_version":"0.2"},{"response_times":[658.3199999295175,359.7600000211969,359.1849999502301,482.9699998954311,2013.2949999533594],"keys_pressed":["rightarrow","leftarrow","rightarrow","leftarrow","leftarrow"],"horizon":5,"forced_choices":["rightarrow","leftarrow","rightarrow","leftarrow"],"right_color":"orange","left_color":"lightblue","left_mu":40,"right_mu":20,"left_numbers":[45,39,52,40,36],"right_numbers":[14,16,21,22,35],"points_earned":150,"phase":"task","trial_type":"horizons-task","trial_index":13,"time_elapsed":235318,"internal_node_id":"0.0-9.0","task_version":"0.2"},{"response_times":[735.0850000511855,326.935000019148,479.0599999250844,428.0100000323728,1740.2149999979883],"keys_pressed":["leftarrow","rightarrow","rightarrow","leftarrow","leftarrow"],"horizon":5,"forced_choices":["leftarrow","rightarrow","rightarrow","leftarrow"],"right_color":"lightblue","left_color":"orange","left_mu":60,"right_mu":52,"left_numbers":[64,57,52,61,58],"right_numbers":[37,54,43,68,52],"points_earned":280,"phase":"task","trial_type":"horizons-task","trial_index":14,"time_elapsed":240530,"internal_node_id":"0.0-10.0","task_version":"0.2"},{"response_times":[722.9550000047311,514.8849999532104,484.0649999678135,679.0050000417978,2111.2900000298396],"keys_pressed":["rightarrow","rightarrow","leftarrow","leftarrow","rightarrow"],"horizon":5,"forced_choices":["rightarrow","rightarrow","leftarrow","leftarrow"],"right_color":"lightblue","left_color":"orange","left_mu":40,"right_mu":44,"left_numbers":[42,33,41,42,51],"right_numbers":[44,43,42,40,37],"points_earned":207,"phase":"task","trial_type":"horizons-task","trial_index":15,"time_elapsed":246549,"internal_node_id":"0.0-11.0","task_version":"0.2"},{"response_times":[603.8900000276044,350.79499997664243,402.14999997988343,1048.0349999852479,967.0799999730662],"keys_pressed":["rightarrow","leftarrow","rightarrow","leftarrow","rightarrow"],"horizon":5,"forced_choices":["rightarrow","leftarrow","rightarrow","leftarrow"],"right_color":"orange","left_color":"lightblue","left_mu":40,"right_mu":48,"left_numbers":[33,37,29,21,42],"right_numbers":[58,58,46,39,52],"points_earned":214,"phase":"task","trial_type":"horizons-task","trial_index":16,"time_elapsed":251424,"internal_node_id":"0.0-12.0","task_version":"0.2"},{"response_times":[658.2199999829754,355.8150000171736,410.1500000106171,597.0399999059737,3356.3849999336526,387.02999998349696,785.0750000216067,437.0050000725314,424.0200000349432,479.07000000122935],"keys_pressed":["leftarrow","rightarrow","leftarrow","leftarrow","leftarrow","leftarrow","leftarrow","leftarrow","leftarrow","leftarrow"],"horizon":10,"forced_choices":["leftarrow","rightarrow","leftarrow","leftarrow"],"right_color":"lightblue","left_color":"orange","left_mu":40,"right_mu":28,"left_numbers":[49,35,47,35,49,38,37,30,31,39],"right_numbers":[33,14,10,26,23,29,26,26,12,41],"points_earned":369,"phase":"task","trial_type":"horizons-task","trial_index":17,"time_elapsed":260817,"internal_node_id":"0.0-13.0","task_version":"0.2"},{"response_times":[504.87000006251037,469.0599999157712,1487.2350000077859,664.9149999720976,1276.175000006333],"keys_pressed":["rightarrow","rightarrow","rightarrow","leftarrow","leftarrow"],"horizon":5,"forced_choices":["rightarrow","rightarrow","rightarrow","leftarrow"],"right_color":"orange","left_color":"lightblue","left_mu":40,"right_mu":20,"left_numbers":[38,48,40,38,46],"right_numbers":[7,27,4,18,27],"points_earned":122,"phase":"task","trial_type":"horizons-task","trial_index":18,"time_elapsed":266722,"internal_node_id":"0.0-14.0","task_version":"0.2"},{"response_times":[576.5999999130145,515.0799999246374,475.37000000011176,546.7750000534579,5753.909999970347,642.7799999946728,342.0599999371916,277.9749999754131,268.99499993305653,365.00500002875924],"keys_pressed":["rightarrow","leftarrow","rightarrow","leftarrow","rightarrow","rightarrow","rightarrow","rightarrow","rightarrow","rightarrow"],"horizon":10,"forced_choices":["rightarrow","leftarrow","rightarrow","leftarrow"],"right_color":"orange","left_color":"lightblue","left_mu":40,"right_mu":48,"left_numbers":[44,31,45,45,45,32,29,35,34,37],"right_numbers":[56,52,46,53,47,49,57,50,41,47],"points_earned":469,"phase":"task","trial_type":"horizons-task","trial_index":19,"time_elapsed":277989,"internal_node_id":"0.0-15.0","task_version":"0.2"},{"response_times":[564.3899999558926,240.83500006236136,1008.170000044629,1454.21500003431,3980.5600000545382],"keys_pressed":["rightarrow","leftarrow","leftarrow","leftarrow","leftarrow"],"horizon":5,"forced_choices":["rightarrow","leftarrow","leftarrow","leftarrow"],"right_color":"orange","left_color":"lightblue","left_mu":40,"right_mu":32,"left_numbers":[34,36,42,37,44],"right_numbers":[28,23,41,43,32],"points_earned":187,"phase":"task","trial_type":"horizons-task","trial_index":20,"time_elapsed":286739,"internal_node_id":"0.0-16.0","task_version":"0.2"},{"response_times":[530.4649999598041,487.9150000633672,776.0250000283122,547.080000047572,1326.0950000258163],"keys_pressed":["rightarrow","rightarrow","leftarrow","rightarrow","rightarrow"],"horizon":5,"forced_choices":["rightarrow","rightarrow","leftarrow","rightarrow"],"right_color":"orange","left_color":"lightblue","left_mu":40,"right_mu":52,"left_numbers":[39,46,44,27,33],"right_numbers":[54,53,38,42,58],"points_earned":251,"phase":"task","trial_type":"horizons-task","trial_index":21,"time_elapsed":291910,"internal_node_id":"0.0-17.0","task_version":"0.2"},{"response_times":[592.2149999532849,456.0300000011921,638.135000015609,341.8850000016391,2426.469999947585,693.0449999636039,378.995000035502,222.93499996885657,173.975000041537,369.01500006206334],"keys_pressed":["leftarrow","leftarrow","rightarrow","rightarrow","leftarrow","leftarrow","leftarrow","leftarrow","leftarrow","leftarrow"],"horizon":10,"forced_choices":["leftarrow","leftarrow","rightarrow","rightarrow"],"right_color":"lightblue","left_color":"orange","left_mu":40,"right_mu":28,"left_numbers":[28,42,34,38,38,31,31,32,43,37],"right_numbers":[21,30,31,27,34,24,28,28,26,40],"points_earned":340,"phase":"task","trial_type":"horizons-task","trial_index":22,"time_elapsed":299705,"internal_node_id":"0.0-18.0","task_version":"0.2"},{"response_times":[558.9400000171736,486.9399999734014,350.99999990779907,616.1449999781325,2968.4000000124797,168.9100000075996,149.97999998740852,150.08000005036592,150.98000003490597,451.01000007707626],"keys_pressed":["rightarrow","rightarrow","leftarrow","leftarrow","rightarrow","rightarrow","rightarrow","rightarrow","rightarrow","rightarrow"],"horizon":10,"forced_choices":["rightarrow","rightarrow","leftarrow","leftarrow"],"right_color":"lightblue","left_color":"orange","left_mu":40,"right_mu":44,"left_numbers":[46,20,39,45,21,47,44,38,39,37],"right_numbers":[50,47,41,43,38,56,55,49,39,55],"points_earned":473,"phase":"task","trial_type":"horizons-task","trial_index":23,"time_elapsed":307259,"internal_node_id":"0.0-19.0","task_version":"0.2"},{"response_times":[513.3999999379739,401.0150000685826,332.85000000614673,342.1000000089407,1213.1700000027195,150.02500009723008,145.89000004343688,150.99500003270805,145.00000001862645,136.8899999652058],"keys_pressed":["rightarrow","rightarrow","leftarrow","leftarrow","leftarrow","leftarrow","leftarrow","leftarrow","leftarrow","leftarrow"],"horizon":10,"forced_choices":["rightarrow","rightarrow","leftarrow","leftarrow"],"right_color":"lightblue","left_color":"orange","left_mu":60,"right_mu":56,"left_numbers":[66,64,72,54,69,55,57,74,68,62],"right_numbers":[60,57,50,71,59,52,56,38,60,45],"points_earned":628,"phase":"task","trial_type":"horizons-task","trial_index":24,"time_elapsed":312294,"internal_node_id":"0.0-20.0","task_version":"0.2"},{"response_times":[590.3500000713393,361.04500002693385,377.9400000348687,557.0750000188127,1081.2049999367446],"keys_pressed":["leftarrow","rightarrow","rightarrow","rightarrow","rightarrow"],"horizon":5,"forced_choices":["leftarrow","rightarrow","rightarrow","rightarrow"],"right_color":"lightblue","left_color":"orange","left_mu":40,"right_mu":60,"left_numbers":[31,37,39,55,38],"right_numbers":[59,67,66,68,55],"points_earned":287,"phase":"task","trial_type":"horizons-task","trial_index":25,"time_elapsed":316763,"internal_node_id":"0.0-21.0","task_version":"0.2"},{"response_times":[413.6700000381097,378.86499997694045,428.3799999393523,528.8000000873581,561.089999973774],"keys_pressed":["rightarrow","leftarrow","leftarrow","rightarrow","rightarrow"],"horizon":5,"forced_choices":["rightarrow","leftarrow","leftarrow","rightarrow"],"right_color":"orange","left_color":"lightblue","left_mu":60,"right_mu":80,"left_numbers":[66,55,51,65,58],"right_numbers":[84,80,75,79,91],"points_earned":360,"phase":"task","trial_type":"horizons-task","trial_index":26,"time_elapsed":320576,"internal_node_id":"0.0-22.0","task_version":"0.2"},{"response_times":[641.1550000775605,341.9499999145046,424.085000064224,844.1200000233948,1577.1399999503046],"keys_pressed":["rightarrow","leftarrow","rightarrow","leftarrow","rightarrow"],"horizon":5,"forced_choices":["rightarrow","leftarrow","rightarrow","leftarrow"],"right_color":"orange","left_color":"lightblue","left_mu":40,"right_mu":52,"left_numbers":[41,43,35,37,29],"right_numbers":[48,49,57,55,51],"points_earned":236,"phase":"task","trial_type":"horizons-task","trial_index":27,"time_elapsed":325907,"internal_node_id":"0.0-23.0","task_version":"0.2"},{"response_times":[618.2600000174716,323.9949999842793,391.9499999610707,479.0750000393018,1501.3800000306219,422.82500001601875,245.87500002235174,150.99500003270805,154.97000003233552,141.10499992966652],"keys_pressed":["rightarrow","leftarrow","leftarrow","leftarrow","rightarrow","rightarrow","rightarrow","rightarrow","rightarrow","rightarrow"],"horizon":10,"forced_choices":["rightarrow","leftarrow","leftarrow","leftarrow"],"right_color":"lightblue","left_color":"orange","left_mu":40,"right_mu":44,"left_numbers":[32,32,32,47,34,25,29,58,41,45],"right_numbers":[49,52,44,48,46,48,32,31,28,52],"points_earned":397,"phase":"task","trial_type":"horizons-task","trial_index":28,"time_elapsed":331839,"internal_node_id":"0.0-24.0","task_version":"0.2"},{"response_times":[529.285000055097,374.0149999503046,481.95000004488975,424.0250000730157,1116.1200000206009,127.96499999240041,123.00500005949289,122.97999998554587,91.06000000610948,123.03000001702458],"keys_pressed":["leftarrow","leftarrow","leftarrow","rightarrow","leftarrow","leftarrow","leftarrow","leftarrow","leftarrow","leftarrow"],"horizon":10,"forced_choices":["leftarrow","leftarrow","leftarrow","rightarrow"],"right_color":"orange","left_color":"lightblue","left_mu":40,"right_mu":36,"left_numbers":[46,47,29,26,41,32,57,43,40,44],"right_numbers":[46,36,27,23,30,29,35,31,16,32],"points_earned":402,"phase":"task","trial_type":"horizons-task","trial_index":29,"time_elapsed":336855,"internal_node_id":"0.0-25.0","task_version":"0.2"},{"response_times":[384.28999995812774,305.16000010538846,328.7599999457598,583.1550000002608,929.1650000959635,109.89000007975847,122.91499995626509,103.9650000166148,95.94999998807907,123.26500006020069],"keys_pressed":["leftarrow","rightarrow","leftarrow","rightarrow","rightarrow","rightarrow","rightarrow","rightarrow","rightarrow","rightarrow"],"horizon":10,"forced_choices":["leftarrow","rightarrow","leftarrow","rightarrow"],"right_color":"lightblue","left_color":"orange","left_mu":40,"right_mu":70,"left_numbers":[33,44,45,48,35,37,48,31,31,34],"right_numbers":[62,66,69,65,61,63,81,74,69,82],"points_earned":639,"phase":"task","trial_type":"horizons-task","trial_index":30,"time_elapsed":341444,"internal_node_id":"0.0-26.0","task_version":"0.2"},{"response_times":[671.0300000850111,304.9549999414012,455.9450000524521,1499.3549999780953,1253.1200000084937],"keys_pressed":["rightarrow","leftarrow","leftarrow","rightarrow","leftarrow"],"horizon":5,"forced_choices":["rightarrow","leftarrow","leftarrow","rightarrow"],"right_color":"lightblue","left_color":"orange","left_mu":60,"right_mu":48,"left_numbers":[54,54,48,51,61],"right_numbers":[47,36,56,48,53],"points_earned":258,"phase":"task","trial_type":"horizons-task","trial_index":31,"time_elapsed":347130,"internal_node_id":"0.0-27.0","task_version":"0.2"},{"response_times":[425.5099999718368,364.0049999812618,711.0150000080466,405.9750000014901,788.2749999407679],"keys_pressed":["rightarrow","rightarrow","rightarrow","leftarrow","rightarrow"],"horizon":5,"forced_choices":["rightarrow","rightarrow","rightarrow","leftarrow"],"right_color":"orange","left_color":"lightblue","left_mu":60,"right_mu":68,"left_numbers":[66,52,46,67,64],"right_numbers":[68,73,67,68,59],"points_earned":334,"phase":"task","trial_type":"horizons-task","trial_index":32,"time_elapsed":351327,"internal_node_id":"0.0-28.0","task_version":"0.2"},{"response_times":[616.9999999692664,323.00500001292676,383.00999999046326,1098.1150000588968,1467.1350000426173],"keys_pressed":["leftarrow","rightarrow","leftarrow","leftarrow","leftarrow"],"horizon":5,"forced_choices":["leftarrow","rightarrow","leftarrow","leftarrow"],"right_color":"lightblue","left_color":"orange","left_mu":40,"right_mu":28,"left_numbers":[44,33,40,50,37],"right_numbers":[36,22,43,34,45],"points_earned":193,"phase":"task","trial_type":"horizons-task","trial_index":33,"time_elapsed":356718,"internal_node_id":"0.0-29.0","task_version":"0.2"},{"response_times":[507.4000000022352,441.785000031814,437.04499991144985,437.0149999158457,1185.1749999914318],"keys_pressed":["leftarrow","leftarrow","leftarrow","rightarrow","leftarrow"],"horizon":5,"forced_choices":["leftarrow","leftarrow","leftarrow","rightarrow"],"right_color":"orange","left_color":"lightblue","left_mu":60,"right_mu":40,"left_numbers":[65,66,58,49,63],"right_numbers":[36,38,54,33,44],"points_earned":285,"phase":"task","trial_type":"horizons-task","trial_index":34,"time_elapsed":361228,"internal_node_id":"0.0-30.0","task_version":"0.2"},{"response_times":[433.76999988686293,537.9199999151751,450.93499997165054,291.0299999639392,1390.2950000483543,145.20999998785555,122.6649999152869,105.33499997109175,108.6549999890849,110.05500005558133],"keys_pressed":["rightarrow","rightarrow","rightarrow","leftarrow","leftarrow","leftarrow","leftarrow","leftarrow","leftarrow","leftarrow"],"horizon":10,"forced_choices":["rightarrow","rightarrow","rightarrow","leftarrow"],"right_color":"orange","left_color":"lightblue","left_mu":40,"right_mu":20,"left_numbers":[44,44,39,38,41,38,46,39,27,33],"right_numbers":[36,18,12,26,15,7,8,15,21,18],"points_earned":328,"phase":"task","trial_type":"horizons-task","trial_index":35,"time_elapsed":366428,"internal_node_id":"0.0-31.0","task_version":"0.2"},{"response_times":[448.2749999733642,409.98999995645136,337.99499995075166,310.02500001341105,1144.2350000143051],"keys_pressed":["leftarrow","leftarrow","leftarrow","rightarrow","leftarrow"],"horizon":5,"forced_choices":["leftarrow","leftarrow","leftarrow","rightarrow"],"right_color":"orange","left_color":"lightblue","left_mu":40,"right_mu":36,"left_numbers":[41,48,37,51,42],"right_numbers":[14,48,37,45,43],"points_earned":213,"phase":"task","trial_type":"horizons-task","trial_index":36,"time_elapsed":370581,"internal_node_id":"0.0-32.0","task_version":"0.2"},{"response_times":[5665.769999963231,314.795000012964,314.089999999851,547.9749999940395,1577.1800000220537],"keys_pressed":["rightarrow","leftarrow","rightarrow","rightarrow","rightarrow"],"horizon":5,"forced_choices":["rightarrow","leftarrow","rightarrow","rightarrow"],"right_color":"lightblue","left_color":"orange","left_mu":40,"right_mu":70,"left_numbers":[35,33,31,48,44],"right_numbers":[65,70,70,84,81],"points_earned":333,"phase":"task","trial_type":"horizons-task","trial_index":37,"time_elapsed":380503,"internal_node_id":"0.0-33.0","task_version":"0.2"},{"response_times":[390.26000001467764,415.235000080429,304.81000000145286,359.9799999501556,747.1399999922141],"keys_pressed":["rightarrow","rightarrow","leftarrow","rightarrow","leftarrow"],"horizon":5,"forced_choices":["rightarrow","rightarrow","leftarrow","rightarrow"],"right_color":"lightblue","left_color":"orange","left_mu":60,"right_mu":64,"left_numbers":[67,66,80,65,52],"right_numbers":[63,71,59,61,58],"points_earned":327,"phase":"task","trial_type":"horizons-task","trial_index":38,"time_elapsed":384222,"internal_node_id":"0.0-34.0","task_version":"0.2"},{"response_times":[394.9899999424815,373.3750000828877,351.0600000154227,401.0300000663847,6596.885000006296,350.9749999502674,168.96499996073544,164.00500002782792,160.01499991398305,163.95499999634922],"keys_pressed":["rightarrow","rightarrow","leftarrow","rightarrow","leftarrow","leftarrow","leftarrow","leftarrow","leftarrow","leftarrow"],"horizon":10,"forced_choices":["rightarrow","rightarrow","leftarrow","rightarrow"],"right_color":"lightblue","left_color":"orange","left_mu":60,"right_mu":64,"left_numbers":[53,54,68,44,58,50,66,56,67,68],"right_numbers":[60,59,68,62,76,52,70,68,56,51],"points_earned":614,"phase":"task","trial_type":"horizons-task","trial_index":39,"time_elapsed":394849,"internal_node_id":"0.0-35.0","task_version":"0.2"},{"response_times":[371.9450000207871,342.1250000828877,378.00000002607703,524.0249999333173,1546.349999960512],"keys_pressed":["leftarrow","rightarrow","leftarrow","rightarrow","rightarrow"],"horizon":5,"forced_choices":["leftarrow","rightarrow","leftarrow","rightarrow"],"right_color":"lightblue","left_color":"orange","left_mu":40,"right_mu":70,"left_numbers":[34,33,45,30,45],"right_numbers":[66,79,74,72,70],"points_earned":300,"phase":"task","trial_type":"horizons-task","trial_index":40,"time_elapsed":399514,"internal_node_id":"0.0-36.0","task_version":"0.2"},{"response_times":[444.3399999290705,355.7550000259653,323.07000004220754,361.0849999822676,1088.97500007879,142.08500005770475,132.16499995905906,131.9999999832362,104.78499997407198,137.05999997910112],"keys_pressed":["rightarrow","rightarrow","leftarrow","rightarrow","leftarrow","leftarrow","leftarrow","leftarrow","leftarrow","leftarrow"],"horizon":10,"forced_choices":["rightarrow","rightarrow","leftarrow","rightarrow"],"right_color":"lightblue","left_color":"orange","left_mu":40,"right_mu":10,"left_numbers":[33,22,41,40,45,30,53,37,25,45],"right_numbers":[0,1,2,12,15,28,15,15,18,3],"points_earned":289,"phase":"task","trial_type":"horizons-task","trial_index":41,"time_elapsed":404238,"internal_node_id":"0.0-37.0","task_version":"0.2"},{"response_times":[654.4250000733882,337.085000006482,361.0249999910593,331.899999990128,917.0450000092387,830.104999942705,140.99500002339482,133.00000003073364,122.90499999653548,292.0600000070408],"keys_pressed":["leftarrow","rightarrow","rightarrow","leftarrow","leftarrow","leftarrow","leftarrow","leftarrow","leftarrow","leftarrow"],"horizon":10,"forced_choices":["leftarrow","rightarrow","rightarrow","leftarrow"],"right_color":"orange","left_color":"lightblue","left_mu":60,"right_mu":40,"left_numbers":[43,52,61,66,62,60,51,53,59,47],"right_numbers":[39,20,34,49,28,38,42,40,48,56],"points_earned":495,"phase":"task","trial_type":"horizons-task","trial_index":42,"time_elapsed":409861,"internal_node_id":"0.0-38.0","task_version":"0.2"},{"response_times":[704.7299999976531,341.98000002652407,342.0000000623986,345.9850000217557,3980.6099999696016,172.94499999843538,151.24499995727092,145.68999991752207,155.0100001040846,145.89000004343688],"keys_pressed":["leftarrow","rightarrow","rightarrow","leftarrow","leftarrow","leftarrow","leftarrow","leftarrow","leftarrow","leftarrow"],"horizon":10,"forced_choices":["leftarrow","rightarrow","rightarrow","leftarrow"],"right_color":"lightblue","left_color":"orange","left_mu":60,"right_mu":52,"left_numbers":[53,67,42,80,70,64,50,46,57,50],"right_numbers":[48,54,66,42,40,53,51,59,50,55],"points_earned":590,"phase":"task","trial_type":"horizons-task","trial_index":43,"time_elapsed":417850,"internal_node_id":"0.0-39.0","task_version":"0.2"},{"response_times":[516.925000003539,323.16000002902,565.9199999645352,555.8949999976903,693.1799999438226],"keys_pressed":["rightarrow","rightarrow","leftarrow","rightarrow","leftarrow"],"horizon":5,"forced_choices":["rightarrow","rightarrow","leftarrow","rightarrow"],"right_color":"lightblue","left_color":"orange","left_mu":40,"right_mu":10,"left_numbers":[39,22,50,33,34],"right_numbers":[8,15,0,6,15],"points_earned":113,"phase":"task","trial_type":"horizons-task","trial_index":44,"time_elapsed":422008,"internal_node_id":"0.0-40.0","task_version":"0.2"},{"response_times":[466.38499991968274,351.0199999436736,369.01500006206334,739.1000000061467,600.9949999861419],"keys_pressed":["rightarrow","leftarrow","rightarrow","rightarrow","rightarrow"],"horizon":5,"forced_choices":["rightarrow","leftarrow","rightarrow","rightarrow"],"right_color":"orange","left_color":"lightblue","left_mu":60,"right_mu":72,"left_numbers":[57,54,64,43,54],"right_numbers":[64,63,69,65,84],"points_earned":336,"phase":"task","trial_type":"horizons-task","trial_index":45,"time_elapsed":426036,"internal_node_id":"0.0-41.0","task_version":"0.2"},{"response_times":[422.88500000722706,372.9150000726804,346.9849999528378,396.0099999094382,2539.204999920912],"keys_pressed":["leftarrow","leftarrow","rightarrow","leftarrow","leftarrow"],"horizon":5,"forced_choices":["leftarrow","leftarrow","rightarrow","leftarrow"],"right_color":"lightblue","left_color":"orange","left_mu":60,"right_mu":52,"left_numbers":[61,51,61,59,59],"right_numbers":[58,53,61,54,47],"points_earned":291,"phase":"task","trial_type":"horizons-task","trial_index":46,"time_elapsed":431617,"internal_node_id":"0.0-42.0","task_version":"0.2"},{"response_times":[680.9849999845028,424.0199999185279,337.04000001307577,556.9949999917299,1805.2000000607222,163.95000007469207,164.03500002343208,173.02499990910292,141.9800000730902,150.03999997861683],"keys_pressed":["leftarrow","leftarrow","leftarrow","rightarrow","leftarrow","leftarrow","leftarrow","leftarrow","leftarrow","leftarrow"],"horizon":10,"forced_choices":["leftarrow","leftarrow","leftarrow","rightarrow"],"right_color":"orange","left_color":"lightblue","left_mu":60,"right_mu":40,"left_numbers":[57,52,52,56,59,62,59,60,79,65],"right_numbers":[29,45,36,40,43,47,14,37,37,46],"points_earned":585,"phase":"task","trial_type":"horizons-task","trial_index":47,"time_elapsed":437723,"internal_node_id":"0.0-43.0","task_version":"0.2"},{"response_times":[529.1549999965355,314.8449999280274,355.0350000150502,474.9800000572577,5174.729999969713],"keys_pressed":["rightarrow","leftarrow","leftarrow","rightarrow","leftarrow"],"horizon":5,"forced_choices":["rightarrow","leftarrow","leftarrow","rightarrow"],"right_color":"orange","left_color":"lightblue","left_mu":40,"right_mu":32,"left_numbers":[48,40,58,38,40],"right_numbers":[42,20,35,38,36],"points_earned":218,"phase":"task","trial_type":"horizons-task","trial_index":48,"time_elapsed":446075,"internal_node_id":"0.0-44.0","task_version":"0.2"},{"response_times":[678.0049999943003,300.0049999682233,342.04500005580485,433.01500007510185,1158.3150000078604,159.79999990668148,140.96500002779067,163.9699999941513,164.0449999831617,387.90999993216246],"keys_pressed":["rightarrow","leftarrow","rightarrow","rightarrow","rightarrow","rightarrow","rightarrow","rightarrow","rightarrow","rightarrow"],"horizon":10,"forced_choices":["rightarrow","leftarrow","rightarrow","rightarrow"],"right_color":"lightblue","left_color":"orange","left_mu":40,"right_mu":70,"left_numbers":[44,32,51,31,25,36,45,45,56,37],"right_numbers":[73,65,81,84,73,83,60,75,69,72],"points_earned":702,"phase":"task","trial_type":"horizons-task","trial_index":49,"time_elapsed":451506,"internal_node_id":"0.0-45.0","task_version":"0.2"},{"response_times":[574.8550000134856,319.0150000154972,355.08499993011355,360.0649998988956,1140.2300000190735],"keys_pressed":["leftarrow","rightarrow","rightarrow","leftarrow","leftarrow"],"horizon":5,"forced_choices":["leftarrow","rightarrow","rightarrow","leftarrow"],"right_color":"orange","left_color":"lightblue","left_mu":60,"right_mu":40,"left_numbers":[81,66,58,64,56],"right_numbers":[40,47,42,36,44],"points_earned":290,"phase":"task","trial_type":"horizons-task","trial_index":50,"time_elapsed":455757,"internal_node_id":"0.0-46.0","task_version":"0.2"},{"view_history":"[{\"page_index\":0,\"viewing_time\":10738.08000003919},{\"page_index\":1,\"viewing_time\":1211.6649999516085}]","rt":11950.010000029579,"trial_type":"instructions","trial_index":51,"time_elapsed":467708,"internal_node_id":"0.0-47.0","task_version":"0.2"},{"response_times":[1225.8349999319762,327.77999993413687,333.2500000251457,510.85500000044703,1701.424999977462,131.9000000366941,140.97499998752028,145.88000008370727,141.37500000651926,141.57500001601875],"keys_pressed":["rightarrow","leftarrow","rightarrow","leftarrow","leftarrow","leftarrow","leftarrow","leftarrow","leftarrow","leftarrow"],"horizon":10,"forced_choices":["rightarrow","leftarrow","rightarrow","leftarrow"],"right_color":"orange","left_color":"lightblue","left_mu":40,"right_mu":20,"left_numbers":[43,36,42,57,37,36,32,40,38,40],"right_numbers":[27,16,17,6,24,5,17,39,27,15],"points_earned":360,"phase":"task","trial_type":"horizons-task","trial_index":52,"time_elapsed":474013,"internal_node_id":"0.0-48.0","task_version":"0.2"},{"response_times":[463.42000004369766,361.11000005621463,345.9700000239536,519.9199999915436,1892.3649999778718],"keys_pressed":["rightarrow","rightarrow","leftarrow","leftarrow","rightarrow"],"horizon":5,"forced_choices":["rightarrow","rightarrow","leftarrow","leftarrow"],"right_color":"lightblue","left_color":"orange","left_mu":60,"right_mu":64,"left_numbers":[55,62,67,47,64],"right_numbers":[79,58,58,75,58],"points_earned":309,"phase":"task","trial_type":"horizons-task","trial_index":53,"time_elapsed":479098,"internal_node_id":"0.0-49.0","task_version":"0.2"},{"response_times":[482.190000009723,338.2899999851361,409.68500007875264,848.0899999849498,1884.360000025481,132.94999999925494,135.90499991551042,137.14499992784113,100.79500009305775,191.13000005017966],"keys_pressed":["rightarrow","leftarrow","rightarrow","rightarrow","rightarrow","rightarrow","rightarrow","rightarrow","rightarrow","rightarrow"],"horizon":10,"forced_choices":["rightarrow","leftarrow","rightarrow","rightarrow"],"right_color":"orange","left_color":"lightblue","left_mu":60,"right_mu":72,"left_numbers":[65,72,60,63,62,53,62,70,43,60],"right_numbers":[67,70,79,76,67,73,72,73,75,73],"points_earned":727,"phase":"task","trial_type":"horizons-task","trial_index":54,"time_elapsed":485261,"internal_node_id":"0.0-50.0","task_version":"0.2"},{"response_times":[526.9550000084564,419.98000000603497,365.1100000133738,418.99999999441206,835.3249999927357,144.79000004939735,142.05499994568527,158.8299999712035,160.07999994326383,154.97000003233552],"keys_pressed":["leftarrow","leftarrow","rightarrow","rightarrow","leftarrow","leftarrow","leftarrow","leftarrow","leftarrow","leftarrow"],"horizon":10,"forced_choices":["leftarrow","leftarrow","rightarrow","rightarrow"],"right_color":"orange","left_color":"lightblue","left_mu":40,"right_mu":36,"left_numbers":[47,54,35,41,43,39,42,44,53,44],"right_numbers":[38,41,40,29,39,26,29,36,45,28],"points_earned":435,"phase":"task","trial_type":"horizons-task","trial_index":55,"time_elapsed":490091,"internal_node_id":"0.0-51.0","task_version":"0.2"},{"response_times":[423.06500009726733,263.9599998947233,470.3800000716001,528.6850000265986,684.0599999995902,151.259999955073,154.8099999781698,173.0550000211224,163.99999998975545,182.88000009488314],"keys_pressed":["rightarrow","leftarrow","leftarrow","rightarrow","leftarrow","leftarrow","leftarrow","leftarrow","leftarrow","leftarrow"],"horizon":10,"forced_choices":["rightarrow","leftarrow","leftarrow","rightarrow"],"right_color":"orange","left_color":"lightblue","left_mu":40,"right_mu":32,"left_numbers":[31,38,41,38,59,38,40,36,32,30],"right_numbers":[23,37,32,32,19,23,32,36,46,24],"points_earned":369,"phase":"task","trial_type":"horizons-task","trial_index":56,"time_elapsed":494789,"internal_node_id":"0.0-52.0","task_version":"0.2"},{"response_times":[518.3999999426305,283.3450000034645,400.8400000166148,487.88500006776303,397.2550000762567,149.74000002257526,155.04999994300306,155.12499993201345,182.95000004582107,173.0550000211224],"keys_pressed":["leftarrow","rightarrow","leftarrow","rightarrow","leftarrow","leftarrow","leftarrow","leftarrow","leftarrow","leftarrow"],"horizon":10,"forced_choices":["leftarrow","rightarrow","leftarrow","rightarrow"],"right_color":"lightblue","left_color":"orange","left_mu":40,"right_mu":10,"left_numbers":[37,33,41,56,51,38,42,33,45,45],"right_numbers":[10,13,9,8,20,6,12,8,22,6],"points_earned":353,"phase":"task","trial_type":"horizons-task","trial_index":57,"time_elapsed":499194,"internal_node_id":"0.0-53.0","task_version":"0.2"},{"response_times":[437.53999995533377,255.9049999108538,383.07500001974404,593.0549999466166,2103.205000050366,163.99999998975545,146.2349999928847,140.9350000321865,159.85500009264797,136.09000004362315],"keys_pressed":["rightarrow","leftarrow","leftarrow","leftarrow","rightarrow","rightarrow","rightarrow","rightarrow","rightarrow","rightarrow"],"horizon":10,"forced_choices":["rightarrow","leftarrow","leftarrow","leftarrow"],"right_color":"orange","left_color":"lightblue","left_mu":40,"right_mu":48,"left_numbers":[35,36,44,38,33,45,44,51,36,35],"right_numbers":[54,60,38,38,34,49,57,47,56,60],"points_earned":475,"phase":"task","trial_type":"horizons-task","trial_index":58,"time_elapsed":505217,"internal_node_id":"0.0-54.0","task_version":"0.2"},{"response_times":[441.2000000011176,382.85499997437,383.0800000578165,369.1200000466779,1633.3100000629202],"keys_pressed":["leftarrow","leftarrow","rightarrow","rightarrow","leftarrow"],"horizon":5,"forced_choices":["leftarrow","leftarrow","rightarrow","rightarrow"],"right_color":"orange","left_color":"lightblue","left_mu":60,"right_mu":68,"left_numbers":[67,66,67,52,55],"right_numbers":[62,64,66,55,51],"points_earned":309,"phase":"task","trial_type":"horizons-task","trial_index":59,"time_elapsed":509928,"internal_node_id":"0.0-55.0","task_version":"0.2"},{"response_times":[500.17000001389533,314.0750000020489,894.3949999520555,665.9650000510737,710.81000007689],"keys_pressed":["rightarrow","leftarrow","leftarrow","rightarrow","rightarrow"],"horizon":5,"forced_choices":["rightarrow","leftarrow","leftarrow","rightarrow"],"right_color":"lightblue","left_color":"orange","left_mu":60,"right_mu":90,"left_numbers":[68,55,80,59,48],"right_numbers":[94,85,96,85,78],"points_earned":392,"phase":"task","trial_type":"horizons-task","trial_index":60,"time_elapsed":514515,"internal_node_id":"0.0-56.0","task_version":"0.2"},{"response_times":[440.67000003997236,369.2550000268966,336.90500003285706,401.04499994777143,2840.3849999886006,406.06000006664544,159.78500002529472,145.05000005010515,165.10500002186745,163.99000003002584],"keys_pressed":["rightarrow","rightarrow","leftarrow","rightarrow","leftarrow","leftarrow","leftarrow","leftarrow","leftarrow","leftarrow"],"horizon":10,"forced_choices":["rightarrow","rightarrow","leftarrow","rightarrow"],"right_color":"orange","left_color":"lightblue","left_mu":40,"right_mu":52,"left_numbers":[38,32,43,29,51,54,48,40,22,45],"right_numbers":[44,52,42,42,64,50,63,58,37,41],"points_earned":441,"phase":"task","trial_type":"horizons-task","trial_index":61,"time_elapsed":521446,"internal_node_id":"0.0-57.0","task_version":"0.2"},{"response_times":[507.79000006150454,291.9499999843538,683.9700000127777,1145.1149999629706,624.0400000242516],"keys_pressed":["leftarrow","rightarrow","leftarrow","leftarrow","leftarrow"],"horizon":5,"forced_choices":["leftarrow","rightarrow","leftarrow","leftarrow"],"right_color":"lightblue","left_color":"orange","left_mu":60,"right_mu":48,"left_numbers":[48,56,59,62,53],"right_numbers":[41,45,52,48,40],"points_earned":267,"phase":"task","trial_type":"horizons-task","trial_index":62,"time_elapsed":526201,"internal_node_id":"0.0-58.0","task_version":"0.2"},{"response_times":[398.7800000468269,332.7900000149384,295.9950000513345,365.1349999709055,1149.0249999333173,165.16500001307577,158.85000000707805,150.9999999543652,159.10000004805624,159.97999999672174],"keys_pressed":["leftarrow","leftarrow","rightarrow","leftarrow","leftarrow","leftarrow","leftarrow","leftarrow","leftarrow","leftarrow"],"horizon":10,"forced_choices":["leftarrow","leftarrow","rightarrow","leftarrow"],"right_color":"lightblue","left_color":"orange","left_mu":60,"right_mu":56,"left_numbers":[59,64,72,65,55,66,55,71,55,65],"right_numbers":[62,65,66,43,57,40,51,48,55,71],"points_earned":621,"phase":"task","trial_type":"horizons-task","trial_index":63,"time_elapsed":531040,"internal_node_id":"0.0-59.0","task_version":"0.2"},{"response_times":[435.15999999362975,283.00499997567385,419.1700000083074,547.1749999560416,355.890000006184,163.99000003002584,127.94999999459833,222.93499996885657,110.0449999794364,314.0150000108406],"keys_pressed":["leftarrow","rightarrow","rightarrow","rightarrow","rightarrow","rightarrow","rightarrow","rightarrow","rightarrow","rightarrow"],"horizon":10,"forced_choices":["leftarrow","rightarrow","rightarrow","rightarrow"],"right_color":"lightblue","left_color":"orange","left_mu":40,"right_mu":60,"left_numbers":[38,46,43,31,34,24,28,50,30,54],"right_numbers":[59,74,65,47,47,82,58,53,73,53],"points_earned":590,"phase":"task","trial_type":"horizons-task","trial_index":64,"time_elapsed":535522,"internal_node_id":"0.0-60.0","task_version":"0.2"},{"response_times":[418.2000000728294,319.11000004038215,570.1249999692664,920.8999999100342,524.0599999669939],"keys_pressed":["leftarrow","rightarrow","rightarrow","rightarrow","rightarrow"],"horizon":5,"forced_choices":["leftarrow","rightarrow","rightarrow","rightarrow"],"right_color":"lightblue","left_color":"orange","left_mu":60,"right_mu":90,"left_numbers":[69,53,68,59,47],"right_numbers":[81,98,90,86,84],"points_earned":427,"phase":"task","trial_type":"horizons-task","trial_index":65,"time_elapsed":539783,"internal_node_id":"0.0-61.0","task_version":"0.2"},{"response_times":[447.29999999981374,351.08000005129725,452.12499995250255,865.8750000176951,1121.240000007674],"keys_pressed":["rightarrow","leftarrow","leftarrow","leftarrow","rightarrow"],"horizon":5,"forced_choices":["rightarrow","leftarrow","leftarrow","leftarrow"],"right_color":"lightblue","left_color":"orange","left_mu":40,"right_mu":44,"left_numbers":[38,37,43,39,47],"right_numbers":[58,50,29,41,52],"points_earned":229,"phase":"task","trial_type":"horizons-task","trial_index":66,"time_elapsed":544524,"internal_node_id":"0.0-62.0","task_version":"0.2"},{"response_times":[463.98000000044703,291.230000089854,328.7449999479577,378.07999993674457,429.245000006631,122.7149999467656,123.00499994307756,101.08499997295439,99.97999994084239,105.23999994620681],"keys_pressed":["rightarrow","leftarrow","leftarrow","rightarrow","rightarrow","rightarrow","rightarrow","rightarrow","rightarrow","rightarrow"],"horizon":10,"forced_choices":["rightarrow","leftarrow","leftarrow","rightarrow"],"right_color":"orange","left_color":"lightblue","left_mu":60,"right_mu":80,"left_numbers":[62,54,52,59,59,62,72,69,60,62],"right_numbers":[93,77,77,86,87,72,84,73,84,86],"points_earned":771,"phase":"task","trial_type":"horizons-task","trial_index":67,"time_elapsed":548469,"internal_node_id":"0.0-63.0","task_version":"0.2"},{"response_times":[490.7400000374764,360.0299999816343,388.02499999292195,364.8699999321252,688.0400000372902,137.00000010430813,151.04000002611428,136.96000003255904,141.39000000432134,145.63499996438622],"keys_pressed":["rightarrow","rightarrow","rightarrow","leftarrow","rightarrow","rightarrow","rightarrow","rightarrow","rightarrow","rightarrow"],"horizon":10,"forced_choices":["rightarrow","rightarrow","rightarrow","leftarrow"],"right_color":"orange","left_color":"lightblue","left_mu":60,"right_mu":68,"left_numbers":[59,63,70,54,51,40,69,67,54,56],"right_numbers":[89,62,60,63,74,82,72,66,56,74],"points_earned":689,"phase":"task","trial_type":"horizons-task","trial_index":68,"time_elapsed":552975,"internal_node_id":"0.0-64.0","task_version":"0.2"},{"response_times":[450.2700000302866,300.87499995715916,360.08999997284263,670.1599999796599,277.87999995052814,174.04999991413206,155.06500005722046,149.78999993763864,174.20000000856817,396.1699999636039],"keys_pressed":["leftarrow","rightarrow","leftarrow","rightarrow","leftarrow","leftarrow","leftarrow","leftarrow","leftarrow","leftarrow"],"horizon":10,"forced_choices":["leftarrow","rightarrow","leftarrow","rightarrow"],"right_color":"orange","left_color":"lightblue","left_mu":60,"right_mu":30,"left_numbers":[58,68,70,77,50,47,62,45,61,51],"right_numbers":[32,23,37,28,39,33,28,33,22,23],"points_earned":495,"phase":"task","trial_type":"horizons-task","trial_index":69,"time_elapsed":557587,"internal_node_id":"0.0-65.0","task_version":"0.2"},{"response_times":[448.55999993160367,373.6700000008568,342.02000009827316,406.15499997511506,436.9900000747293],"keys_pressed":["leftarrow","leftarrow","rightarrow","rightarrow","leftarrow"],"horizon":5,"forced_choices":["leftarrow","leftarrow","rightarrow","rightarrow"],"right_color":"lightblue","left_color":"orange","left_mu":40,"right_mu":28,"left_numbers":[34,44,46,42,53],"right_numbers":[23,15,20,28,32],"points_earned":179,"phase":"task","trial_type":"horizons-task","trial_index":70,"time_elapsed":561096,"internal_node_id":"0.0-66.0","task_version":"0.2"},{"response_times":[386.1699999542907,315.0100000202656,350.9499999927357,751.9499999471009,1660.3849999373779,486.94999993313104,141.99500007089227,149.85000004526228,132.02999997884035,163.96000003442168],"keys_pressed":["rightarrow","leftarrow","leftarrow","leftarrow","rightarrow","rightarrow","rightarrow","rightarrow","rightarrow","rightarrow"],"horizon":10,"forced_choices":["rightarrow","leftarrow","leftarrow","leftarrow"],"right_color":"orange","left_color":"lightblue","left_mu":40,"right_mu":32,"left_numbers":[32,29,21,33,41,49,32,24,30,24],"right_numbers":[32,30,29,33,39,26,28,21,18,31],"points_earned":278,"phase":"task","trial_type":"horizons-task","trial_index":71,"time_elapsed":567138,"internal_node_id":"0.0-67.0","task_version":"0.2"},{"response_times":[444.9599999934435,315.10000000707805,409.8349999403581,693.0899999570101,242.1049999538809,151.24499995727092,136.64000004064292,140.97499998752028,141.1599999992177,273.8749999552965],"keys_pressed":["leftarrow","rightarrow","rightarrow","leftarrow","rightarrow","rightarrow","rightarrow","rightarrow","rightarrow","rightarrow"],"horizon":10,"forced_choices":["leftarrow","rightarrow","rightarrow","leftarrow"],"right_color":"orange","left_color":"lightblue","left_mu":60,"right_mu":72,"left_numbers":[46,72,56,53,51,59,54,59,54,70],"right_numbers":[65,74,63,78,67,66,57,73,80,61],"points_earned":640,"phase":"task","trial_type":"horizons-task","trial_index":72,"time_elapsed":571589,"internal_node_id":"0.0-68.0","task_version":"0.2"},{"response_times":[421.77000001538545,356.00499995052814,351.2199999531731,382.88499996997416,739.0850000083447,169.00500003248453,150.0549999764189,159.91499996744096,149.97999998740852,151.07000002171844],"keys_pressed":["leftarrow","leftarrow","rightarrow","leftarrow","rightarrow","rightarrow","rightarrow","rightarrow","rightarrow","rightarrow"],"horizon":10,"forced_choices":["leftarrow","leftarrow","rightarrow","leftarrow"],"right_color":"orange","left_color":"lightblue","left_mu":60,"right_mu":80,"left_numbers":[61,65,65,71,74,57,64,68,61,58],"right_numbers":[87,86,70,79,73,77,71,79,86,69],"points_earned":722,"phase":"task","trial_type":"horizons-task","trial_index":73,"time_elapsed":576123,"internal_node_id":"0.0-69.0","task_version":"0.2"},{"response_times":[476.1350000044331,392.91499997489154,492.30000004172325,1243.8499999698251,484.2349999817088],"keys_pressed":["rightarrow","rightarrow","leftarrow","leftarrow","leftarrow"],"horizon":5,"forced_choices":["rightarrow","rightarrow","leftarrow","leftarrow"],"right_color":"lightblue","left_color":"orange","left_mu":60,"right_mu":56,"left_numbers":[51,58,83,48,50],"right_numbers":[56,47,52,56,58],"points_earned":284,"phase":"task","trial_type":"horizons-task","trial_index":74,"time_elapsed":580715,"internal_node_id":"0.0-70.0","task_version":"0.2"},{"response_times":[397.690000012517,333.15500000026077,365.17499992623925,564.8199999704957,652.0399999571964,173.11999993398786,146.00499998778105,160.0099999923259,168.02999994251877,227.98999992664903],"keys_pressed":["rightarrow","rightarrow","leftarrow","leftarrow","rightarrow","rightarrow","rightarrow","rightarrow","rightarrow","rightarrow"],"horizon":10,"forced_choices":["rightarrow","rightarrow","leftarrow","leftarrow"],"right_color":"lightblue","left_color":"orange","left_mu":60,"right_mu":64,"left_numbers":[51,63,64,58,53,67,53,71,61,51],"right_numbers":[66,61,70,72,52,55,56,75,66,62],"points_earned":615,"phase":"task","trial_type":"horizons-task","trial_index":75,"time_elapsed":585406,"internal_node_id":"0.0-71.0","task_version":"0.2"},{"response_times":[435.5150000192225,337.93499995954335,364.99500006902963,839.1950000077486,692.9299999028444],"keys_pressed":["leftarrow","rightarrow","rightarrow","rightarrow","leftarrow"],"horizon":5,"forced_choices":["leftarrow","rightarrow","rightarrow","rightarrow"],"right_color":"orange","left_color":"lightblue","left_mu":60,"right_mu":30,"left_numbers":[62,46,73,57,47],"right_numbers":[25,25,40,31,38],"points_earned":205,"phase":"task","trial_type":"horizons-task","trial_index":76,"time_elapsed":589579,"internal_node_id":"0.0-72.0","task_version":"0.2"},{"response_times":[450.32499998342246,332.8050000127405,328.0300000915304,543.0349999805912,488.175000064075,140.93999995384365,142.0650000218302,145.88999992702156,150.0549999764189,146.10499993432313],"keys_pressed":["leftarrow","leftarrow","rightarrow","leftarrow","leftarrow","leftarrow","leftarrow","leftarrow","leftarrow","leftarrow"],"horizon":10,"forced_choices":["leftarrow","leftarrow","rightarrow","leftarrow"],"right_color":"lightblue","left_color":"orange","left_mu":60,"right_mu":52,"left_numbers":[69,53,79,55,58,63,64,64,60,60],"right_numbers":[64,56,30,50,56,59,63,35,56,53],"points_earned":576,"phase":"task","trial_type":"horizons-task","trial_index":77,"time_elapsed":593949,"internal_node_id":"0.0-73.0","task_version":"0.2"},{"response_times":[354.38999999314547,323.99000006262213,470.05499992519617,529.0200000163168,624.1849999642,178.01000003237277,1681.125000002794,432.9699999652803,150.23499995004386,150.82500001881272],"keys_pressed":["leftarrow","rightarrow","leftarrow","rightarrow","leftarrow","leftarrow","rightarrow","rightarrow","rightarrow","rightarrow"],"horizon":10,"forced_choices":["leftarrow","rightarrow","leftarrow","rightarrow"],"right_color":"lightblue","left_color":"orange","left_mu":40,"right_mu":60,"left_numbers":[46,42,44,42,45,43,60,32,39,37],"right_numbers":[67,57,39,47,57,56,70,61,60,49],"points_earned":522,"phase":"task","trial_type":"horizons-task","trial_index":78,"time_elapsed":600347,"internal_node_id":"0.0-74.0","task_version":"0.2"},{"response_times":[465.42000002227724,397.07999990787357,349.90000003017485,488.08000003919005,724.1550000617281],"keys_pressed":["leftarrow","leftarrow","rightarrow","rightarrow","leftarrow"],"horizon":5,"forced_choices":["leftarrow","leftarrow","rightarrow","rightarrow"],"right_color":"orange","left_color":"lightblue","left_mu":40,"right_mu":36,"left_numbers":[47,52,44,44,37],"right_numbers":[33,35,37,28,33],"points_earned":201,"phase":"task","trial_type":"horizons-task","trial_index":79,"time_elapsed":604274,"internal_node_id":"0.0-75.0","task_version":"0.2"},{"response_times":[365.88499997742474,354.894999996759,404.8750000074506,524.1150000365451,497.1899999072775,135.92499995138496,145.97000007051975,131.98999990709126,145.90500004123896,132.07000005058944],"keys_pressed":["rightarrow","leftarrow","rightarrow","leftarrow","rightarrow","rightarrow","rightarrow","rightarrow","rightarrow","rightarrow"],"horizon":10,"forced_choices":["rightarrow","leftarrow","rightarrow","leftarrow"],"right_color":"orange","left_color":"lightblue","left_mu":40,"right_mu":52,"left_numbers":[43,30,40,45,43,44,36,37,45,56],"right_numbers":[49,56,61,64,49,53,50,54,52,54],"points_earned":497,"phase":"task","trial_type":"horizons-task","trial_index":80,"time_elapsed":608615,"internal_node_id":"0.0-76.0","task_version":"0.2"},{"response_times":[401.5699999872595,419.1600000485778,391.91000000573695,624.0499999839813,715.3150000376627],"keys_pressed":["leftarrow","leftarrow","rightarrow","leftarrow","leftarrow"],"horizon":5,"forced_choices":["leftarrow","leftarrow","rightarrow","leftarrow"],"right_color":"lightblue","left_color":"orange","left_mu":60,"right_mu":56,"left_numbers":[62,63,61,64,60],"right_numbers":[64,51,49,48,49],"points_earned":298,"phase":"task","trial_type":"horizons-task","trial_index":81,"time_elapsed":612670,"internal_node_id":"0.0-77.0","task_version":"0.2"},{"response_times":[455.9199999785051,341.99500002432615,414.97000004164875,451.05000003241,501.99000001884997],"keys_pressed":["leftarrow","rightarrow","leftarrow","rightarrow","leftarrow"],"horizon":5,"forced_choices":["leftarrow","rightarrow","leftarrow","rightarrow"],"right_color":"lightblue","left_color":"orange","left_mu":40,"right_mu":10,"left_numbers":[42,27,42,37,45],"right_numbers":[0,2,0,13,10],"points_earned":144,"phase":"task","trial_type":"horizons-task","trial_index":82,"time_elapsed":616343,"internal_node_id":"0.0-78.0","task_version":"0.2"},{"response_times":[434.8949999548495,300.84000003989786,374.0950000938028,479.0349999675527,766.0299999406561],"keys_pressed":["leftarrow","rightarrow","rightarrow","leftarrow","rightarrow"],"horizon":5,"forced_choices":["leftarrow","rightarrow","rightarrow","leftarrow"],"right_color":"orange","left_color":"lightblue","left_mu":60,"right_mu":72,"left_numbers":[51,62,77,51,71],"right_numbers":[83,71,69,73,66],"points_earned":308,"phase":"task","trial_type":"horizons-task","trial_index":83,"time_elapsed":620200,"internal_node_id":"0.0-79.0","task_version":"0.2"},{"response_times":[413.59999997075647,369.1150000086054,369.4050000049174,328.6850000731647,464.8799999849871,150.11499996762723,122.92999995406717,150.95999999903142,136.95499999448657,542.0799999265],"keys_pressed":["rightarrow","leftarrow","leftarrow","rightarrow","rightarrow","rightarrow","rightarrow","rightarrow","rightarrow","rightarrow"],"horizon":10,"forced_choices":["rightarrow","leftarrow","leftarrow","rightarrow"],"right_color":"lightblue","left_color":"orange","left_mu":60,"right_mu":90,"left_numbers":[58,63,58,57,68,67,64,53,66,79],"right_numbers":[96,102,90,88,99,87,101,96,83,93],"points_earned":864,"phase":"task","trial_type":"horizons-task","trial_index":84,"time_elapsed":624752,"internal_node_id":"0.0-80.0","task_version":"0.2"},{"response_times":[403.8650000002235,382.94000003952533,397.0400000689551,433.1800000509247,1419.1099999006838],"keys_pressed":["rightarrow","leftarrow","leftarrow","leftarrow","leftarrow"],"horizon":5,"forced_choices":["rightarrow","leftarrow","leftarrow","leftarrow"],"right_color":"orange","left_color":"lightblue","left_mu":40,"right_mu":48,"left_numbers":[39,49,38,38,31],"right_numbers":[41,49,59,59,39],"points_earned":197,"phase":"task","trial_type":"horizons-task","trial_index":85,"time_elapsed":629290,"internal_node_id":"0.0-81.0","task_version":"0.2"},{"response_times":[705.8400000678375,506.0199999716133,538.0600000498816,606.0499999439344,361.0000000335276,150.19999991636723,149.91499995812774,155.87999997660518,168.0249999044463,324.0650000516325],"keys_pressed":["rightarrow","leftarrow","leftarrow","rightarrow","leftarrow","leftarrow","leftarrow","leftarrow","leftarrow","leftarrow"],"horizon":10,"forced_choices":["rightarrow","leftarrow","leftarrow","rightarrow"],"right_color":"lightblue","left_color":"orange","left_mu":60,"right_mu":48,"left_numbers":[57,53,70,51,50,56,51,63,55,72],"right_numbers":[45,39,31,49,39,42,51,29,60,48],"points_earned":564,"phase":"task","trial_type":"horizons-task","trial_index":86,"time_elapsed":634457,"internal_node_id":"0.0-82.0","task_version":"0.2"},{"response_times":[464.9150000186637,363.8450000435114,364.9849999928847,465.1849999791011,2923.3649999368936,145.94499999657273,137.07000005524606,140.84000000730157,142.15500000864267,149.82000004965812],"keys_pressed":["leftarrow","rightarrow","leftarrow","leftarrow","leftarrow","leftarrow","leftarrow","leftarrow","leftarrow","leftarrow"],"horizon":10,"forced_choices":["leftarrow","rightarrow","leftarrow","leftarrow"],"right_color":"lightblue","left_color":"orange","left_mu":60,"right_mu":48,"left_numbers":[50,60,47,71,57,63,58,67,37,66],"right_numbers":[36,48,46,39,54,42,37,51,30,53],"points_earned":564,"phase":"task","trial_type":"horizons-task","trial_index":87,"time_elapsed":641258,"internal_node_id":"0.0-83.0","task_version":"0.2"},{"response_times":[608.585000038147,319.0150000154972,438.0449999589473,474.0250000031665,3121.625000028871,145.91500000096858,135.92999998945743,133.08500009588897,131.85499992687255,172.90000000502914],"keys_pressed":["leftarrow","leftarrow","rightarrow","rightarrow","leftarrow","leftarrow","leftarrow","leftarrow","leftarrow","leftarrow"],"horizon":10,"forced_choices":["leftarrow","leftarrow","rightarrow","rightarrow"],"right_color":"orange","left_color":"lightblue","left_mu":60,"right_mu":68,"left_numbers":[64,49,47,63,66,64,41,59,51,67],"right_numbers":[61,73,54,62,66,60,54,66,72,70],"points_earned":577,"phase":"task","trial_type":"horizons-task","trial_index":88,"time_elapsed":648442,"internal_node_id":"0.0-84.0","task_version":"0.2"},{"response_times":[466.1850000265986,291.0200000042096,437.9600000102073,770.0600000098348,1289.10499997437,155.03999998327345,137.21000007353723,145.9400000749156,158.85999996680766,168.99999999441206],"keys_pressed":["leftarrow","rightarrow","rightarrow","rightarrow","leftarrow","leftarrow","leftarrow","leftarrow","leftarrow","leftarrow"],"horizon":10,"forced_choices":["leftarrow","rightarrow","rightarrow","rightarrow"],"right_color":"orange","left_color":"lightblue","left_mu":60,"right_mu":30,"left_numbers":[51,52,72,55,54,49,55,52,51,65],"right_numbers":[21,35,20,27,26,33,40,29,33,40],"points_earned":459,"phase":"task","trial_type":"horizons-task","trial_index":89,"time_elapsed":653964,"internal_node_id":"0.0-85.0","task_version":"0.2"},{"response_times":[466.01500001270324,322.96999997925013,351.3950000051409,478.620000067167,492.0550000388175,159.07999989576638,137.02000002376735,136.88000000547618,159.08499993383884,164.09999993629754],"keys_pressed":["leftarrow","rightarrow","rightarrow","rightarrow","rightarrow","rightarrow","rightarrow","rightarrow","rightarrow","rightarrow"],"horizon":10,"forced_choices":["leftarrow","rightarrow","rightarrow","rightarrow"],"right_color":"lightblue","left_color":"orange","left_mu":60,"right_mu":90,"left_numbers":[56,59,48,58,65,69,64,66,64,71],"right_numbers":[88,89,75,79,88,99,92,99,96,99],"points_earned":872,"phase":"task","trial_type":"horizons-task","trial_index":90,"time_elapsed":658335,"internal_node_id":"0.0-86.0","task_version":"0.2"},{"response_times":[621.5949999168515,410.11499997694045,431.8999999668449,948.2249999418855,642.9749999660999],"keys_pressed":["leftarrow","leftarrow","rightarrow","leftarrow","rightarrow"],"horizon":5,"forced_choices":["leftarrow","leftarrow","rightarrow","leftarrow"],"right_color":"orange","left_color":"lightblue","left_mu":60,"right_mu":80,"left_numbers":[63,53,50,66,58],"right_numbers":[76,89,82,81,87],"points_earned":351,"phase":"task","trial_type":"horizons-task","trial_index":91,"time_elapsed":662892,"internal_node_id":"0.0-87.0","task_version":"0.2"},{"rt":12548.825000063516,"responses":{"age":"21","gender-categorical":"Male","gender-free-response":"","ethnicity":"Hispanic or Latino","race":["Black or African American"],"language":"Yes","fluency":"Very well"},"survey":"demographics","trial_type":"survey-demo","trial_index":92,"time_elapsed":675444,"internal_node_id":"0.0-88.0","task_version":"0.2"},{"rt":31093.529999954626,"responses":{"difficulty":"5","fun":"4","clarity":"5","strategy":"I used the first 4 \"given\" numbers to assume an average.","feedback":""},"survey":"debrief","trial_type":"survey-debrief","trial_index":93,"time_elapsed":706539,"internal_node_id":"0.0-89.0","task_version":"0.2","interactions":"[{\"event\":\"blur\",\"trial\":51,\"time\":463277},{\"event\":\"focus\",\"trial\":51,\"time\":466457}]"}]