[{"view_history":"[{\"page_index\":0,\"viewing_time\":1796.8399999663234}]","rt":1797.7349999709986,"trial_type":"instructions","trial_index":0,"time_elapsed":1830,"internal_node_id":"0.0-0.0","task_version":"0.2"},{"item_order":[11,13,12,14,0,10,4,5,15,2,3,1,6,7,8,9],"responses":{"Q12":"4","Q14":"2","Q13":"4","Q15":"4","Q01":"3","Q11":"3","Q05":"3","Q06":"3","Q16":"5","Q03":"4","Q04":"2","Q02":"1","Q07":"3","Q08":"2","Q09":"2","Q10":"2"},"radio_events":[3450.3700000350364,7181.2900000368245,10791.67000000598,11744.300000020303,15192.25500000175,20481.855000020005,22827.980000001844,25453.735000046436,27815.185000014026,31634.08500002697,33538.52000000188,36992.01000004541,38069.43500001216,43335.46500001103,45969.45000003325,48059.670000046026,54216.379999998026],"key_events":[0.45000005047768354,3450.3700000350364,7181.2900000368245,8554.015000001527,10227.775000035763,10791.67000000598,11317.665000038687,11744.300000020303,13247.535000031348,15192.25500000175,20481.855000020005,22827.980000001844,25453.735000046436,27815.185000014026,31634.08500002697,33538.52000000188,35406.24000004027,36334.050000004936,36992.01000004541,37627.42999999318,38069.43500001216,41609.64999999851,41887.74500001455,43335.46500001103,45969.45000003325,48059.670000046026,48957.80500001274,49421.93000001134,53458.5650000372,54216.379999998026,55246.29000003915],"mouse_events":[],"rt":55256.80500001181,"survey":"nfc","trial_type":"survey-template","trial_index":1,"time_elapsed":57102,"internal_node_id":"0.0-1.0","task_version":"0.2"},{"item_order":[5,12,6,1,15,11,3,8,10,16,4,0,14,9,2,7,13],"responses":{"Q06":"2","Q13":"2","Q07":"1","Q02":"1","Q16":"2","Q12":"3","Q04":"2","Q09":"1","Q11":"1","Q17":"0","Q05":"3","Q01":"1","Q15":"1","Q10":"4","Q03":"4","Q08":"2","Q14":"1"},"radio_events":[4187.930000014603,4862.155000038911,6727.950000029523,8702.47499999823,9313.995000033174,11125.645000021905,13155.945000005886,15005.57999999728,20050.215000053868,21233.545000024606,25329.859999998007,30242.015000025276,31140.509999997448,33967.62500004843,34424.00500003714,36834.250000014435,42520.260000019334,43843.75],"key_events":[2351.685000001453,3527.6250000461005,4187.930000014603,4862.155000038911,6131.805000011809,6727.950000029523,7750.630000024103,8702.47499999823,9313.995000033174,11125.645000021905,13155.945000005886,15005.57999999728,18438.179999997374,18645.610000006855,19257.700000016484,20050.215000053868,21233.545000024606,25329.859999998007,27988.835000025574,28491.57000001287,29018.095000006724,29947.840000037104,30242.015000025276,31140.509999997448,32582.270000013523,33177.32000001706,33967.62500004843,34424.00500003714,36834.250000014435,38738.66500001168,39125.97000005189,40689.75000001956,41705.585000046995,42177.550000022165,42520.260000019334,43843.75,44634.365000005346],"mouse_events":[],"rt":44642.87500001956,"survey":"pswq","trial_type":"survey-template","trial_index":2,"time_elapsed":101766,"internal_node_id":"0.0-2.0","task_version":"0.2"},{"item_order":[7,11,10,6,2,9,8,12,0,1,5,4,3],"responses":{"Q08":"1","Q12":"0","Q11":"1","Q07":"1","Q03":"0","Q10":"1","Q09":"2","Q13":"4","Q01":"1","Q02":"1","Q06":"1","Q05":"0","Q04":"1"},"radio_events":[5809.360000013839,9365.219999977853,13455.734999966808,16993.32000000868,17728.774999966845,20028.9449999691,22827.140000008512,25311.29499996314,29501.645000011194,33458.875000011176,34971.1149999639,37223.04000001168,39957.27499999339],"key_events":[5306.724999973085,5809.360000013839,9365.219999977853,12532.910000008997,13455.734999966808,15707.404999993742,16707.099999999627,16993.32000000868,17728.774999966845,20028.9449999691,21864.59000001196,22827.140000008512,25311.29499996314,29501.645000011194,31941.494999977294,33458.875000011176,34971.1149999639,37223.04000001168,39307.824999967124,39957.27499999339,40779.329999990296],"mouse_events":[],"rt":40785.210000001825,"survey":"ius12","trial_type":"survey-template","trial_index":3,"time_elapsed":142571,"internal_node_id":"0.0-3.0","task_version":"0.2"},{"view_history":"[{\"page_index\":0,\"viewing_time\":2788.5450000176206},{\"page_index\":1,\"viewing_time\":4409.440000017639},{\"page_index\":2,\"viewing_time\":6519.854999962263},{\"page_index\":3,\"viewing_time\":4952.080000017304},{\"page_index\":4,\"viewing_time\":4038.5849999729544},{\"page_index\":5,\"viewing_time\":3655.2800000063144},{\"page_index\":6,\"viewing_time\":3643.355000007432},{\"page_index\":7,\"viewing_time\":6294.605000002775},{\"page_index\":8,\"viewing_time\":6663.905000023078},{\"page_index\":9,\"viewing_time\":5192.129999981262}]","rt":48158.38999999687,"trial_type":"instructions","trial_index":4,"time_elapsed":190743,"internal_node_id":"0.0-4.0-0.0","task_version":"0.2"},{"response_times":[906.8750000442378,785.4950000182725,551.7049999907613,648.9799999981187,2624.255000031553],"keys_pressed":["rightarrow","leftarrow","rightarrow","rightarrow","leftarrow"],"horizon":5,"forced_choices":["rightarrow","leftarrow","rightarrow","rightarrow"],"right_color":"lightblue","left_color":"orange","left_mu":40,"right_mu":20,"left_numbers":[32,32,32,36,25],"right_numbers":[18,23,21,16,7],"points_earned":112,"phase":"practice","trial_type":"horizons-task","trial_index":5,"time_elapsed":197785,"internal_node_id":"0.0-4.0-1.0","task_version":"0.2"},{"response_times":[943.5000000521541,751.5049999929033,664.3749999930151,480.7250000303611,2304.3049999978393,1765.2949999901466,1273.1099999509752,1350.8450000081211,1333.6099999723956,619.6800000034273],"keys_pressed":["leftarrow","leftarrow","rightarrow","rightarrow","rightarrow","rightarrow","rightarrow","rightarrow","rightarrow","rightarrow"],"horizon":10,"forced_choices":["leftarrow","leftarrow","rightarrow","rightarrow"],"right_color":"orange","left_color":"lightblue","left_mu":60,"right_mu":70,"left_numbers":[71,54,59,51,59,52,62,61,56,61],"right_numbers":[82,56,69,78,49,76,71,70,67,66],"points_earned":671,"phase":"practice","trial_type":"horizons-task","trial_index":6,"time_elapsed":210779,"internal_node_id":"0.0-4.0-2.0","task_version":"0.2"},{"view_history":"[{\"page_index\":0,\"viewing_time\":1466.5700000477955},{\"page_index\":1,\"viewing_time\":3361.479999963194},{\"page_index\":2,\"viewing_time\":4842.9050000268035},{\"page_index\":3,\"viewing_time\":1645.2399999834597}]","rt":11316.645000013523,"trial_type":"instructions","trial_index":7,"time_elapsed":222098,"internal_node_id":"0.0-4.0-3.0","task_version":"0.2"},{"responses":["true","false","true"],"num_errors":0,"rt":9322.334999975283,"trial_type":"horizons-comprehension","trial_index":8,"time_elapsed":231426,"internal_node_id":"0.0-4.0-4.0","task_version":"0.2"},{"trial_type":"call-function","trial_index":9,"time_elapsed":231444,"internal_node_id":"0.0-5.0","task_version":"0.2"},{"view_history":"[{\"page_index\":0,\"viewing_time\":2385.130000009667},{\"page_index\":1,\"viewing_time\":2641.600000031758}]","rt":5027.340000029653,"trial_type":"instructions","trial_index":10,"time_elapsed":236473,"internal_node_id":"0.0-6.0","task_version":"0.2"},{"response_times":[1026.9400000106543,1066.1949999630451,695.6350000109524,781.0949999839067,2708.3399999537505,925.7999999681488,1658.7099999887869,1405.620000034105,382.9799999948591,523.0100000044331],"keys_pressed":["leftarrow","rightarrow","leftarrow","rightarrow","leftarrow","rightarrow","rightarrow","rightarrow","leftarrow","leftarrow"],"horizon":10,"forced_choices":["leftarrow","rightarrow","leftarrow","rightarrow"],"right_color":"lightblue","left_color":"orange","left_mu":40,"right_mu":10,"left_numbers":[41,45,38,39,41,39,18,42,43,32],"right_numbers":[0,9,0,2,8,20,4,4,0,10],"points_earned":234,"phase":"task","trial_type":"horizons-task","trial_index":11,"time_elapsed":249167,"internal_node_id":"0.0-7.0","task_version":"0.2"},{"response_times":[968.2050000410527,668.5649999999441,1140.064999985043,752.3050000309013,1697.470000013709,1091.7649999610148,629.4950000010431,1862.120000005234,2367.3149999813177,605.3649999666959],"keys_pressed":["leftarrow","leftarrow","rightarrow","leftarrow","rightarrow","rightarrow","leftarrow","leftarrow","rightarrow","rightarrow"],"horizon":10,"forced_choices":["leftarrow","leftarrow","rightarrow","leftarrow"],"right_color":"orange","left_color":"lightblue","left_mu":60,"right_mu":64,"left_numbers":[52,59,56,41,69,61,65,62,54,54],"right_numbers":[53,74,65,74,64,51,76,55,55,60],"points_earned":574,"phase":"task","trial_type":"horizons-task","trial_index":12,"time_elapsed":262455,"internal_node_id":"0.0-8.0","task_version":"0.2"},{"response_times":[879.5150000369176,678.0350000481121,911.6999999969266,1514.3750000279397,1314.1300000133924,1495.1850000070408,747.1600000280887,914.4599999999627,1259.070000029169,388.1099999998696],"keys_pressed":["rightarrow","leftarrow","rightarrow","rightarrow","leftarrow","leftarrow","rightarrow","leftarrow","rightarrow","leftarrow"],"horizon":10,"forced_choices":["rightarrow","leftarrow","rightarrow","rightarrow"],"right_color":"lightblue","left_color":"orange","left_mu":40,"right_mu":32,"left_numbers":[36,43,45,44,44,40,39,38,34,43],"right_numbers":[37,24,35,22,44,32,33,33,31,19],"points_earned":366,"phase":"task","trial_type":"horizons-task","trial_index":13,"time_elapsed":274061,"internal_node_id":"0.0-9.0","task_version":"0.2"},{"response_times":[1007.9499999992549,943.4300000430085,847.9800000204705,1038.8650000095367,2128.7499999743886],"keys_pressed":["rightarrow","leftarrow","rightarrow","leftarrow","leftarrow"],"horizon":5,"forced_choices":["rightarrow","leftarrow","rightarrow","leftarrow"],"right_color":"orange","left_color":"lightblue","left_mu":60,"right_mu":52,"left_numbers":[64,54,50,68,55],"right_numbers":[64,43,50,51,47],"points_earned":291,"phase":"task","trial_type":"horizons-task","trial_index":14,"time_elapsed":281534,"internal_node_id":"0.0-10.0","task_version":"0.2"},{"response_times":[764.0400000382215,786.3099999958649,1133.2449999754317,821.1199999786913,883.2200000179,1105.2449999842793,3353.884999989532,545.429999998305,606.9799999822862,435.76500000199303],"keys_pressed":["leftarrow","leftarrow","leftarrow","rightarrow","rightarrow","rightarrow","rightarrow","leftarrow","rightarrow","rightarrow"],"horizon":10,"forced_choices":["leftarrow","leftarrow","leftarrow","rightarrow"],"right_color":"lightblue","left_color":"orange","left_mu":40,"right_mu":60,"left_numbers":[44,31,59,31,62,43,28,38,33,42],"right_numbers":[47,62,73,67,72,62,53,53,55,48],"points_earned":529,"phase":"task","trial_type":"horizons-task","trial_index":15,"time_elapsed":293505,"internal_node_id":"0.0-11.0","task_version":"0.2"},{"response_times":[618.7800000188872,1530.3600000333972,764.3750000279397,916.1149999708869,2251.6250000335276],"keys_pressed":["rightarrow","leftarrow","leftarrow","leftarrow","rightarrow"],"horizon":5,"forced_choices":["rightarrow","leftarrow","leftarrow","leftarrow"],"right_color":"orange","left_color":"lightblue","left_mu":40,"right_mu":44,"left_numbers":[47,44,39,44,26],"right_numbers":[43,44,37,60,50],"points_earned":220,"phase":"task","trial_type":"horizons-task","trial_index":16,"time_elapsed":301092,"internal_node_id":"0.0-12.0","task_version":"0.2"},{"response_times":[689.3699999782257,724.3250000174157,869.2750000045635,605.1650000154041,681.1599999782629],"keys_pressed":["leftarrow","rightarrow","rightarrow","rightarrow","rightarrow"],"horizon":5,"forced_choices":["leftarrow","rightarrow","rightarrow","rightarrow"],"right_color":"lightblue","left_color":"orange","left_mu":60,"right_mu":90,"left_numbers":[49,63,63,61,50],"right_numbers":[98,90,87,94,79],"points_earned":399,"phase":"task","trial_type":"horizons-task","trial_index":17,"time_elapsed":306166,"internal_node_id":"0.0-13.0","task_version":"0.2"},{"response_times":[1000.3150000120513,708.165000018198,664.055000001099,697.0699999947101,1843.189999985043,895.6550000002608,668.7249999959022,726.6499999677762,692.3049999750219,636.4099999773316],"keys_pressed":["leftarrow","rightarrow","rightarrow","leftarrow","rightarrow","leftarrow","rightarrow","rightarrow","rightarrow","leftarrow"],"horizon":10,"forced_choices":["leftarrow","rightarrow","rightarrow","leftarrow"],"right_color":"orange","left_color":"lightblue","left_mu":60,"right_mu":64,"left_numbers":[56,62,50,60,56,59,64,64,69,52],"right_numbers":[66,58,57,71,60,62,66,76,54,54],"points_earned":598,"phase":"task","trial_type":"horizons-task","trial_index":18,"time_elapsed":316204,"internal_node_id":"0.0-14.0","task_version":"0.2"},{"response_times":[623.2250000466593,509.26500000059605,752.6850000140257,781.8749999860302,2190.869999991264],"keys_pressed":["leftarrow","rightarrow","leftarrow","leftarrow","rightarrow"],"horizon":5,"forced_choices":["leftarrow","rightarrow","leftarrow","leftarrow"],"right_color":"orange","left_color":"lightblue","left_mu":40,"right_mu":20,"left_numbers":[28,34,39,31,41],"right_numbers":[15,19,30,16,16],"points_earned":133,"phase":"task","trial_type":"horizons-task","trial_index":19,"time_elapsed":322566,"internal_node_id":"0.0-15.0","task_version":"0.2"},{"response_times":[561.3850000081584,520.2549999812618,662.6849999884143,1078.8000000175089,1795.4950000275858],"keys_pressed":["rightarrow","rightarrow","leftarrow","rightarrow","rightarrow"],"horizon":5,"forced_choices":["rightarrow","rightarrow","leftarrow","rightarrow"],"right_color":"lightblue","left_color":"orange","left_mu":40,"right_mu":48,"left_numbers":[40,27,44,32,33],"right_numbers":[51,58,41,45,50],"points_earned":248,"phase":"task","trial_type":"horizons-task","trial_index":20,"time_elapsed":328690,"internal_node_id":"0.0-16.0","task_version":"0.2"},{"response_times":[601.1099999886937,441.4600000018254,517.6050000009127,479.80999998981133,1643.4850000077859,719.1649999585934,608.7849999894388,480.6150000076741,639.7650000290014,424.20000000856817],"keys_pressed":["leftarrow","rightarrow","rightarrow","leftarrow","rightarrow","leftarrow","rightarrow","rightarrow","rightarrow","rightarrow"],"horizon":10,"forced_choices":["leftarrow","rightarrow","rightarrow","leftarrow"],"right_color":"orange","left_color":"lightblue","left_mu":60,"right_mu":68,"left_numbers":[62,66,52,65,71,57,64,54,62,57],"right_numbers":[79,68,73,66,66,58,61,76,76,60],"points_earned":664,"phase":"task","trial_type":"horizons-task","trial_index":21,"time_elapsed":336751,"internal_node_id":"0.0-17.0","task_version":"0.2"},{"response_times":[622.5750000448897,576.0549999540672,522.690000012517,1302.025000040885,1610.709999979008,851.5900000347756,407.1100000292063,473.4900000039488,464.01500003412366,391.8249999987893],"keys_pressed":["leftarrow","leftarrow","rightarrow","rightarrow","leftarrow","rightarrow","leftarrow","leftarrow","leftarrow","leftarrow"],"horizon":10,"forced_choices":["leftarrow","leftarrow","rightarrow","rightarrow"],"right_color":"lightblue","left_color":"orange","left_mu":60,"right_mu":30,"left_numbers":[49,53,62,65,67,66,61,55,63,61],"right_numbers":[25,21,25,28,27,33,40,39,25,36],"points_earned":495,"phase":"task","trial_type":"horizons-task","trial_index":22,"time_elapsed":345480,"internal_node_id":"0.0-18.0","task_version":"0.2"},{"response_times":[644.6800000267103,494.82999998144805,463.00999994855374,507.8850000281818,1274.3050000281073,982.2250000433996,830.9000000008382,619.234999991022,887.0900000329129,406.9700000109151],"keys_pressed":["leftarrow","rightarrow","rightarrow","leftarrow","rightarrow","leftarrow","leftarrow","rightarrow","leftarrow","leftarrow"],"horizon":10,"forced_choices":["leftarrow","rightarrow","rightarrow","leftarrow"],"right_color":"orange","left_color":"lightblue","left_mu":60,"right_mu":56,"left_numbers":[65,61,57,63,68,57,62,53,58,59],"right_numbers":[67,61,45,49,59,55,51,47,69,66],"points_earned":576,"phase":"task","trial_type":"horizons-task","trial_index":23,"time_elapsed":354095,"internal_node_id":"0.0-19.0","task_version":"0.2"},{"response_times":[584.7000000067055,505.9849999961443,947.0300000393763,439.0000000130385,1358.4600000176579,465.02000000327826,644.0099999890663,569.7449999861419,1209.8199999891222,366.01999995764345],"keys_pressed":["rightarrow","leftarrow","leftarrow","leftarrow","leftarrow","rightarrow","rightarrow","rightarrow","rightarrow","rightarrow"],"horizon":10,"forced_choices":["rightarrow","leftarrow","leftarrow","leftarrow"],"right_color":"orange","left_color":"lightblue","left_mu":40,"right_mu":44,"left_numbers":[41,37,28,37,19,32,35,34,57,30],"right_numbers":[40,41,51,33,48,45,44,30,44,39],"points_earned":363,"phase":"task","trial_type":"horizons-task","trial_index":24,"time_elapsed":362690,"internal_node_id":"0.0-20.0","task_version":"0.2"},{"response_times":[529.5400000177324,569.3200000096112,524.9250000342727,720.9850000217557,1103.449999995064],"keys_pressed":["rightarrow","leftarrow","rightarrow","leftarrow","rightarrow"],"horizon":5,"forced_choices":["rightarrow","leftarrow","rightarrow","leftarrow"],"right_color":"lightblue","left_color":"orange","left_mu":40,"right_mu":60,"left_numbers":[46,34,49,33,30],"right_numbers":[61,52,54,63,70],"points_earned":252,"phase":"task","trial_type":"horizons-task","trial_index":25,"time_elapsed":367642,"internal_node_id":"0.0-21.0","task_version":"0.2"},{"response_times":[742.5400000065565,543.790000025183,751.029999984894,371.3050000369549,1777.3399999714456,830.9149999986403,479.42999994847924,450.574999966193,420.70000001695007,342.7199999568984],"keys_pressed":["leftarrow","leftarrow","rightarrow","leftarrow","rightarrow","leftarrow","rightarrow","rightarrow","rightarrow","rightarrow"],"horizon":10,"forced_choices":["leftarrow","leftarrow","rightarrow","leftarrow"],"right_color":"orange","left_color":"lightblue","left_mu":40,"right_mu":52,"left_numbers":[36,43,44,33,43,44,37,34,34,47],"right_numbers":[56,67,62,54,48,49,62,51,45,50],"points_earned":474,"phase":"task","trial_type":"horizons-task","trial_index":26,"time_elapsed":375858,"internal_node_id":"0.0-22.0","task_version":"0.2"},{"response_times":[522.2749999957159,396.1149999522604,452.41000002715737,470.1900000218302,651.1199999949895,406.7100000102073,353.68499998003244,307.05499998293817,406.7250000080094,463.2650000276044],"keys_pressed":["leftarrow","rightarrow","rightarrow","rightarrow","rightarrow","rightarrow","rightarrow","rightarrow","rightarrow","rightarrow"],"horizon":10,"forced_choices":["leftarrow","rightarrow","rightarrow","rightarrow"],"right_color":"lightblue","left_color":"orange","left_mu":60,"right_mu":90,"left_numbers":[51,81,53,47,57,53,59,62,51,49],"right_numbers":[88,83,99,73,92,87,97,104,96,92],"points_earned":874,"phase":"task","trial_type":"horizons-task","trial_index":27,"time_elapsed":381793,"internal_node_id":"0.0-23.0","task_version":"0.2"},{"response_times":[828.9949999889359,684.0299999457784,671.4900000370108,1253.7100000190549,885.3750000125729,792.3449999652803,956.449999997858,2462.69499999471,559.4549999805167,373.1099999858998],"keys_pressed":["leftarrow","rightarrow","leftarrow","rightarrow","leftarrow","rightarrow","leftarrow","leftarrow","leftarrow","leftarrow"],"horizon":10,"forced_choices":["leftarrow","rightarrow","leftarrow","rightarrow"],"right_color":"orange","left_color":"lightblue","left_mu":40,"right_mu":20,"left_numbers":[45,43,45,47,14,41,35,39,47,38],"right_numbers":[19,28,14,14,23,19,25,24,17,24],"points_earned":324,"phase":"task","trial_type":"horizons-task","trial_index":28,"time_elapsed":392766,"internal_node_id":"0.0-24.0","task_version":"0.2"},{"response_times":[539.8000000277534,448.1849999865517,401.55499998945743,785.3699999977835,2097.4899999564514],"keys_pressed":["rightarrow","rightarrow","rightarrow","leftarrow","rightarrow"],"horizon":5,"forced_choices":["rightarrow","rightarrow","rightarrow","leftarrow"],"right_color":"orange","left_color":"lightblue","left_mu":60,"right_mu":52,"left_numbers":[60,35,51,52,44],"right_numbers":[63,53,40,58,59],"points_earned":267,"phase":"task","trial_type":"horizons-task","trial_index":29,"time_elapsed":398543,"internal_node_id":"0.0-25.0","task_version":"0.2"},{"response_times":[1537.8100000089034,977.3749999585561,485.4150000028312,921.2899999693036,1707.2449999977835],"keys_pressed":["rightarrow","leftarrow","rightarrow","leftarrow","leftarrow"],"horizon":5,"forced_choices":["rightarrow","leftarrow","rightarrow","leftarrow"],"right_color":"lightblue","left_color":"orange","left_mu":60,"right_mu":48,"left_numbers":[56,58,57,64,50],"right_numbers":[66,42,52,42,43],"points_earned":290,"phase":"task","trial_type":"horizons-task","trial_index":30,"time_elapsed":405678,"internal_node_id":"0.0-26.0","task_version":"0.2"},{"response_times":[548.4500000020489,509.4300000346266,1328.7799999816343,663.3950000395998,567.0800000079907],"keys_pressed":["leftarrow","leftarrow","rightarrow","rightarrow","leftarrow"],"horizon":5,"forced_choices":["leftarrow","leftarrow","rightarrow","rightarrow"],"right_color":"lightblue","left_color":"orange","left_mu":60,"right_mu":30,"left_numbers":[56,64,54,69,69],"right_numbers":[29,26,33,29,46],"points_earned":251,"phase":"task","trial_type":"horizons-task","trial_index":31,"time_elapsed":410800,"internal_node_id":"0.0-27.0","task_version":"0.2"},{"response_times":[528.0899999779649,453.47000000765547,435.9600000316277,505.02500002039596,489.1399999614805,1069.3500000052154,449.0300000179559,384.810000017751,413.4650000487454,491.6200000443496],"keys_pressed":["rightarrow","rightarrow","rightarrow","leftarrow","leftarrow","rightarrow","leftarrow","leftarrow","leftarrow","leftarrow"],"horizon":10,"forced_choices":["rightarrow","rightarrow","rightarrow","leftarrow"],"right_color":"lightblue","left_color":"orange","left_mu":40,"right_mu":28,"left_numbers":[32,50,47,47,47,40,32,42,47,41],"right_numbers":[33,16,34,28,21,17,20,27,29,31],"points_earned":356,"phase":"task","trial_type":"horizons-task","trial_index":32,"time_elapsed":417524,"internal_node_id":"0.0-28.0","task_version":"0.2"},{"response_times":[717.8350000176579,779.9400000367314,902.9699999955483,516.1450000014156,1441.6850000270642],"keys_pressed":["rightarrow","leftarrow","rightarrow","rightarrow","leftarrow"],"horizon":5,"forced_choices":["rightarrow","leftarrow","rightarrow","rightarrow"],"right_color":"lightblue","left_color":"orange","left_mu":40,"right_mu":32,"left_numbers":[41,33,29,31,67],"right_numbers":[33,24,45,27,37],"points_earned":205,"phase":"task","trial_type":"horizons-task","trial_index":33,"time_elapsed":423388,"internal_node_id":"0.0-29.0","task_version":"0.2"},{"response_times":[1691.5000000153668,1944.2050000070594,822.8150000213645,466.47500002291054,2840.314999979455],"keys_pressed":["leftarrow","leftarrow","rightarrow","rightarrow","leftarrow"],"horizon":5,"forced_choices":["leftarrow","leftarrow","rightarrow","rightarrow"],"right_color":"orange","left_color":"lightblue","left_mu":40,"right_mu":52,"left_numbers":[55,44,35,50,43],"right_numbers":[53,47,52,45,42],"points_earned":239,"phase":"task","trial_type":"horizons-task","trial_index":34,"time_elapsed":432659,"internal_node_id":"0.0-30.0","task_version":"0.2"},{"response_times":[528.9249999914318,733.490000013262,794.4450000068173,664.8100000456907,403.6000000196509],"keys_pressed":["rightarrow","rightarrow","leftarrow","leftarrow","rightarrow"],"horizon":5,"forced_choices":["rightarrow","rightarrow","leftarrow","leftarrow"],"right_color":"orange","left_color":"lightblue","left_mu":40,"right_mu":70,"left_numbers":[33,30,35,44,40],"right_numbers":[69,73,79,71,83],"points_earned":304,"phase":"task","trial_type":"horizons-task","trial_index":35,"time_elapsed":437289,"internal_node_id":"0.0-31.0","task_version":"0.2"},{"response_times":[694.9949999689125,579.3150000390597,922.8299999958836,507.29999999748543,1719.8849999695085,570.209999976214,446.30000001052395,830.4149999748915,369.56999998074025,419.85000000568107],"keys_pressed":["leftarrow","rightarrow","leftarrow","leftarrow","rightarrow","leftarrow","leftarrow","rightarrow","leftarrow","leftarrow"],"horizon":10,"forced_choices":["leftarrow","rightarrow","leftarrow","leftarrow"],"right_color":"orange","left_color":"lightblue","left_mu":60,"right_mu":40,"left_numbers":[58,57,63,71,58,55,51,59,70,61],"right_numbers":[41,29,39,42,40,44,38,34,29,47],"points_earned":532,"phase":"task","trial_type":"horizons-task","trial_index":36,"time_elapsed":445855,"internal_node_id":"0.0-32.0","task_version":"0.2"},{"response_times":[537.6500000129454,533.8600000250153,620.5099999788217,981.4650000189431,1181.8699999712408,457.5950000435114,566.419999988284,1137.0599999791011,585.190000012517,632.660000002943],"keys_pressed":["rightarrow","leftarrow","leftarrow","rightarrow","rightarrow","leftarrow","leftarrow","rightarrow","rightarrow","leftarrow"],"horizon":10,"forced_choices":["rightarrow","leftarrow","leftarrow","rightarrow"],"right_color":"orange","left_color":"lightblue","left_mu":40,"right_mu":36,"left_numbers":[44,43,40,34,32,44,35,49,43,35],"right_numbers":[36,34,49,29,33,32,28,48,23,37],"points_earned":366,"phase":"task","trial_type":"horizons-task","trial_index":37,"time_elapsed":454595,"internal_node_id":"0.0-33.0","task_version":"0.2"},{"response_times":[589.7300000069663,478.3199999947101,399.1950000054203,701.0050000390038,2743.8100000144914],"keys_pressed":["rightarrow","rightarrow","rightarrow","leftarrow","leftarrow"],"horizon":5,"forced_choices":["rightarrow","rightarrow","rightarrow","leftarrow"],"right_color":"lightblue","left_color":"orange","left_mu":40,"right_mu":28,"left_numbers":[32,42,47,23,30],"right_numbers":[26,15,19,19,15],"points_earned":113,"phase":"task","trial_type":"horizons-task","trial_index":38,"time_elapsed":461013,"internal_node_id":"0.0-34.0","task_version":"0.2"},{"response_times":[600.6300000008196,980.0749999703839,593.8900000182912,393.08000000892207,566.3599999970756,1061.5099999704398,273.2349999714643,449.0599999553524,325.1699999673292,342.1650000382215],"keys_pressed":["leftarrow","rightarrow","rightarrow","rightarrow","leftarrow","rightarrow","leftarrow","leftarrow","leftarrow","leftarrow"],"horizon":10,"forced_choices":["leftarrow","rightarrow","rightarrow","rightarrow"],"right_color":"lightblue","left_color":"orange","left_mu":60,"right_mu":30,"left_numbers":[59,61,59,57,58,71,59,67,54,48],"right_numbers":[25,25,20,27,37,37,27,26,28,34],"points_earned":454,"phase":"task","trial_type":"horizons-task","trial_index":39,"time_elapsed":468105,"internal_node_id":"0.0-35.0","task_version":"0.2"},{"response_times":[542.6950000110082,405.5999999982305,463.51999999023974,479.0649999631569,572.9500000015832],"keys_pressed":["leftarrow","leftarrow","leftarrow","rightarrow","rightarrow"],"horizon":5,"forced_choices":["leftarrow","leftarrow","leftarrow","rightarrow"],"right_color":"lightblue","left_color":"orange","left_mu":40,"right_mu":60,"left_numbers":[46,55,36,51,47],"right_numbers":[62,70,61,69,65],"points_earned":271,"phase":"task","trial_type":"horizons-task","trial_index":40,"time_elapsed":472073,"internal_node_id":"0.0-36.0","task_version":"0.2"},{"response_times":[493.0849999655038,954.7099999617785,634.9199999822304,463.77000003121793,429.9650000175461,493.784999998752,266.0199999809265,395.94999997643754,411.4650000119582,300.054999999702],"keys_pressed":["rightarrow","leftarrow","leftarrow","rightarrow","rightarrow","leftarrow","rightarrow","rightarrow","rightarrow","rightarrow"],"horizon":10,"forced_choices":["rightarrow","leftarrow","leftarrow","rightarrow"],"right_color":"lightblue","left_color":"orange","left_mu":60,"right_mu":80,"left_numbers":[71,65,61,58,71,55,63,63,61,53],"right_numbers":[87,78,84,86,86,78,81,73,89,76],"points_earned":759,"phase":"task","trial_type":"horizons-task","trial_index":41,"time_elapsed":478422,"internal_node_id":"0.0-37.0","task_version":"0.2"},{"response_times":[535.1700000464916,454.8850000137463,589.3899999791756,470.56499996688217,1400.0550000346266],"keys_pressed":["rightarrow","leftarrow","leftarrow","rightarrow","leftarrow"],"horizon":5,"forced_choices":["rightarrow","leftarrow","leftarrow","rightarrow"],"right_color":"orange","left_color":"lightblue","left_mu":60,"right_mu":40,"left_numbers":[57,68,46,66,59],"right_numbers":[32,31,29,62,34],"points_earned":267,"phase":"task","trial_type":"horizons-task","trial_index":42,"time_elapsed":483377,"internal_node_id":"0.0-38.0","task_version":"0.2"},{"response_times":[505.5399999837391,472.3000000230968,354.68499996932223,413.6150000267662,669.385000015609],"keys_pressed":["leftarrow","leftarrow","rightarrow","leftarrow","leftarrow"],"horizon":5,"forced_choices":["leftarrow","leftarrow","rightarrow","leftarrow"],"right_color":"orange","left_color":"lightblue","left_mu":60,"right_mu":64,"left_numbers":[58,55,62,72,50],"right_numbers":[55,51,62,63,77],"points_earned":297,"phase":"task","trial_type":"horizons-task","trial_index":43,"time_elapsed":487297,"internal_node_id":"0.0-39.0","task_version":"0.2"},{"response_times":[773.444999998901,422.96499997610226,871.5300000039861,679.2900000000373,471.0000000195578,356.77499999292195,208.6799999815412,377.4800000246614,417.86000004503876,414.2449999926612],"keys_pressed":["leftarrow","leftarrow","rightarrow","rightarrow","rightarrow","rightarrow","rightarrow","rightarrow","rightarrow","rightarrow"],"horizon":10,"forced_choices":["leftarrow","leftarrow","rightarrow","rightarrow"],"right_color":"lightblue","left_color":"orange","left_mu":60,"right_mu":90,"left_numbers":[64,55,67,44,69,56,61,51,51,55],"right_numbers":[89,75,99,93,96,79,81,86,84,98],"points_earned":835,"phase":"task","trial_type":"horizons-task","trial_index":44,"time_elapsed":493795,"internal_node_id":"0.0-40.0","task_version":"0.2"},{"response_times":[795.6300000078045,491.32000003010035,665.0950000039302,937.5950000248849,1762.334999977611],"keys_pressed":["rightarrow","leftarrow","leftarrow","leftarrow","rightarrow"],"horizon":5,"forced_choices":["rightarrow","leftarrow","leftarrow","leftarrow"],"right_color":"lightblue","left_color":"orange","left_mu":60,"right_mu":72,"left_numbers":[49,58,61,62,61],"right_numbers":[64,75,75,69,53],"points_earned":298,"phase":"task","trial_type":"horizons-task","trial_index":45,"time_elapsed":499951,"internal_node_id":"0.0-41.0","task_version":"0.2"},{"response_times":[434.0700000175275,477.40000003250316,842.5649999990128,606.1050000134856,840.2699999860488,426.0249999933876,434.49499999405816,413.1550000165589,408.6700000334531,348.71500002918765],"keys_pressed":["rightarrow","rightarrow","leftarrow","rightarrow","leftarrow","leftarrow","leftarrow","leftarrow","leftarrow","leftarrow"],"horizon":10,"forced_choices":["rightarrow","rightarrow","leftarrow","rightarrow"],"right_color":"lightblue","left_color":"orange","left_mu":40,"right_mu":10,"left_numbers":[42,48,29,18,38,23,46,32,43,30],"right_numbers":[4,10,6,5,21,20,0,14,11,27],"points_earned":260,"phase":"task","trial_type":"horizons-task","trial_index":46,"time_elapsed":506688,"internal_node_id":"0.0-42.0","task_version":"0.2"},{"response_times":[485.19000003580004,312.39500001538545,391.135000041686,582.4349999893457,378.25499998871237],"keys_pressed":["leftarrow","rightarrow","rightarrow","leftarrow","rightarrow"],"horizon":5,"forced_choices":["leftarrow","rightarrow","rightarrow","leftarrow"],"right_color":"orange","left_color":"lightblue","left_mu":60,"right_mu":64,"left_numbers":[42,70,65,54,57],"right_numbers":[77,71,75,55,62],"points_earned":304,"phase":"task","trial_type":"horizons-task","trial_index":47,"time_elapsed":510342,"internal_node_id":"0.0-43.0","task_version":"0.2"},{"response_times":[468.1649999693036,395.554999995511,517.7699999767356,717.0200000400655,772.4649999872781],"keys_pressed":["leftarrow","rightarrow","leftarrow","leftarrow","leftarrow"],"horizon":5,"forced_choices":["leftarrow","rightarrow","leftarrow","leftarrow"],"right_color":"orange","left_color":"lightblue","left_mu":60,"right_mu":40,"left_numbers":[54,64,59,49,56],"right_numbers":[36,31,41,39,45],"points_earned":249,"phase":"task","trial_type":"horizons-task","trial_index":48,"time_elapsed":514717,"internal_node_id":"0.0-44.0","task_version":"0.2"},{"response_times":[571.4099999750033,452.6799999875948,429.36499998904765,525.0900000100955,344.0699999919161],"keys_pressed":["leftarrow","leftarrow","rightarrow","rightarrow","rightarrow"],"horizon":5,"forced_choices":["leftarrow","leftarrow","rightarrow","rightarrow"],"right_color":"lightblue","left_color":"orange","left_mu":60,"right_mu":90,"left_numbers":[67,63,46,52,49],"right_numbers":[90,87,89,85,81],"points_earned":385,"phase":"task","trial_type":"horizons-task","trial_index":49,"time_elapsed":518543,"internal_node_id":"0.0-45.0","task_version":"0.2"},{"response_times":[764.6949999616481,447.3299999954179,519.5500000263564,671.7850000131875,1398.5249999677762,1081.8250000011176,813.7700000079349,1011.2049999879673,950.829999987036,499.71000000368804],"keys_pressed":["rightarrow","leftarrow","leftarrow","leftarrow","rightarrow","rightarrow","rightarrow","rightarrow","rightarrow","rightarrow"],"horizon":10,"forced_choices":["rightarrow","leftarrow","leftarrow","leftarrow"],"right_color":"orange","left_color":"lightblue","left_mu":60,"right_mu":68,"left_numbers":[74,48,56,58,68,60,47,59,59,60],"right_numbers":[66,59,69,71,82,64,70,59,70,62],"points_earned":635,"phase":"task","trial_type":"horizons-task","trial_index":50,"time_elapsed":528209,"internal_node_id":"0.0-46.0","task_version":"0.2"},{"view_history":"[{\"page_index\":0,\"viewing_time\":3495.584999967832},{\"page_index\":1,\"viewing_time\":1837.7350000082515}]","rt":5333.924999984447,"trial_type":"instructions","trial_index":51,"time_elapsed":533546,"internal_node_id":"0.0-47.0","task_version":"0.2"},{"response_times":[483.9299999875948,463.4999999543652,414.45000004023314,490.8249999862164,935.4150000144728,820.5949999974109,858.6500000092201,570.5650000018068,523.5199999879114,333.57999997679144],"keys_pressed":["rightarrow","rightarrow","rightarrow","leftarrow","leftarrow","leftarrow","leftarrow","leftarrow","leftarrow","leftarrow"],"horizon":10,"forced_choices":["rightarrow","rightarrow","rightarrow","leftarrow"],"right_color":"orange","left_color":"lightblue","left_mu":60,"right_mu":52,"left_numbers":[73,62,61,62,61,50,64,59,55,69],"right_numbers":[47,42,55,37,43,49,65,59,53,47],"points_earned":564,"phase":"task","trial_type":"horizons-task","trial_index":52,"time_elapsed":540957,"internal_node_id":"0.0-48.0","task_version":"0.2"},{"response_times":[537.7650000154972,346.6649999609217,607.7650000224821,539.4550000200979,747.0700000412762],"keys_pressed":["rightarrow","leftarrow","leftarrow","rightarrow","leftarrow"],"horizon":5,"forced_choices":["rightarrow","leftarrow","leftarrow","rightarrow"],"right_color":"orange","left_color":"lightblue","left_mu":40,"right_mu":36,"left_numbers":[50,36,38,39,47],"right_numbers":[20,46,38,25,34],"points_earned":166,"phase":"task","trial_type":"horizons-task","trial_index":53,"time_elapsed":545241,"internal_node_id":"0.0-49.0","task_version":"0.2"},{"response_times":[560.4299999540672,426.6749999951571,678.2200000016019,692.83000001451,2291.3900000276044,1278.5649999859743,865.2999999467283,669.8400000459515,460.1649999967776,625.4250000347383],"keys_pressed":["rightarrow","rightarrow","leftarrow","rightarrow","leftarrow","leftarrow","leftarrow","rightarrow","rightarrow","rightarrow"],"horizon":10,"forced_choices":["rightarrow","rightarrow","leftarrow","rightarrow"],"right_color":"lightblue","left_color":"orange","left_mu":40,"right_mu":48,"left_numbers":[35,46,40,48,53,44,39,45,32,47],"right_numbers":[29,48,50,42,51,44,47,54,37,41],"points_earned":427,"phase":"task","trial_type":"horizons-task","trial_index":54,"time_elapsed":555295,"internal_node_id":"0.0-50.0","task_version":"0.2"},{"response_times":[603.000000002794,400.74499999172986,756.2899999902584,767.4750000005588,1637.7649999922141],"keys_pressed":["leftarrow","rightarrow","rightarrow","rightarrow","leftarrow"],"horizon":5,"forced_choices":["leftarrow","rightarrow","rightarrow","rightarrow"],"right_color":"lightblue","left_color":"orange","left_mu":60,"right_mu":30,"left_numbers":[38,60,59,58,42],"right_numbers":[33,44,26,18,29],"points_earned":168,"phase":"task","trial_type":"horizons-task","trial_index":55,"time_elapsed":560967,"internal_node_id":"0.0-51.0","task_version":"0.2"},{"response_times":[515.914999996312,465.5899999779649,676.1249999981374,460.2450000238605,1255.0000000046566,1586.8749999790452,1102.439999987837,590.8749999944121,450.8849999983795,464.37499998137355],"keys_pressed":["rightarrow","rightarrow","leftarrow","leftarrow","rightarrow","rightarrow","rightarrow","rightarrow","rightarrow","rightarrow"],"horizon":10,"forced_choices":["rightarrow","rightarrow","leftarrow","leftarrow"],"right_color":"orange","left_color":"lightblue","left_mu":40,"right_mu":44,"left_numbers":[34,57,41,45,34,33,27,41,43,38],"right_numbers":[45,37,54,50,48,44,45,45,44,59],"points_earned":453,"phase":"task","trial_type":"horizons-task","trial_index":56,"time_elapsed":570041,"internal_node_id":"0.0-52.0","task_version":"0.2"},{"response_times":[1003.1849999795668,347.8449999820441,442.0500000123866,440.1549999602139,1778.1400000094436,455.420000012964,452.7349999989383,812.4250000109896,381.16500002797693,357.7800000202842],"keys_pressed":["leftarrow","rightarrow","leftarrow","rightarrow","leftarrow","rightarrow","leftarrow","rightarrow","rightarrow","rightarrow"],"horizon":10,"forced_choices":["leftarrow","rightarrow","leftarrow","rightarrow"],"right_color":"lightblue","left_color":"orange","left_mu":40,"right_mu":32,"left_numbers":[39,29,36,45,41,48,29,44,45,40],"right_numbers":[40,40,17,39,33,40,34,36,39,35],"points_earned":374,"phase":"task","trial_type":"horizons-task","trial_index":57,"time_elapsed":578017,"internal_node_id":"0.0-53.0","task_version":"0.2"},{"response_times":[591.7400000034831,565.0899999891408,963.8399999821559,1941.709999984596,1591.664999956265,2613.000000012107,433.23500000406057,1605.0900000263937,394.74499999778345,342.049999977462],"keys_pressed":["rightarrow","leftarrow","leftarrow","rightarrow","rightarrow","rightarrow","rightarrow","rightarrow","rightarrow","rightarrow"],"horizon":10,"forced_choices":["rightarrow","leftarrow","leftarrow","rightarrow"],"right_color":"lightblue","left_color":"orange","left_mu":40,"right_mu":48,"left_numbers":[38,20,44,44,45,31,29,39,28,56],"right_numbers":[47,54,45,51,53,57,31,53,65,41],"points_earned":462,"phase":"task","trial_type":"horizons-task","trial_index":58,"time_elapsed":590564,"internal_node_id":"0.0-54.0","task_version":"0.2"},{"response_times":[756.3150000059977,513.6150000034831,467.40999998291954,463.38999998988584,621.2100000120699],"keys_pressed":["leftarrow","leftarrow","leftarrow","rightarrow","rightarrow"],"horizon":5,"forced_choices":["leftarrow","leftarrow","leftarrow","rightarrow"],"right_color":"lightblue","left_color":"orange","left_mu":60,"right_mu":80,"left_numbers":[54,58,66,61,57],"right_numbers":[71,69,83,76,87],"points_earned":341,"phase":"task","trial_type":"horizons-task","trial_index":59,"time_elapsed":594891,"internal_node_id":"0.0-55.0","task_version":"0.2"},{"response_times":[543.950000021141,380.36499998997897,538.5649999952875,914.9249999900348,1042.0849999645725],"keys_pressed":["leftarrow","rightarrow","leftarrow","rightarrow","leftarrow"],"horizon":5,"forced_choices":["leftarrow","rightarrow","leftarrow","rightarrow"],"right_color":"orange","left_color":"lightblue","left_mu":40,"right_mu":20,"left_numbers":[27,52,40,32,35],"right_numbers":[23,15,20,25,27],"points_earned":142,"phase":"task","trial_type":"horizons-task","trial_index":60,"time_elapsed":599815,"internal_node_id":"0.0-56.0","task_version":"0.2"},{"response_times":[642.2349999775179,387.3850000090897,758.4049999713898,1106.6800000262447,421.64499999489635],"keys_pressed":["leftarrow","rightarrow","leftarrow","rightarrow","rightarrow"],"horizon":5,"forced_choices":["leftarrow","rightarrow","leftarrow","rightarrow"],"right_color":"lightblue","left_color":"orange","left_mu":60,"right_mu":72,"left_numbers":[57,46,54,78,53],"right_numbers":[83,61,74,68,77],"points_earned":317,"phase":"task","trial_type":"horizons-task","trial_index":61,"time_elapsed":604636,"internal_node_id":"0.0-57.0","task_version":"0.2"},{"response_times":[688.1949999951757,467.4900000100024,765.0199999916367,925.5249999696389,1254.369999980554,670.5300000030547,447.649999987334,491.13999999826774,444.1450000158511,500.82999997539446],"keys_pressed":["rightarrow","leftarrow","rightarrow","leftarrow","rightarrow","rightarrow","rightarrow","rightarrow","rightarrow","rightarrow"],"horizon":10,"forced_choices":["rightarrow","leftarrow","rightarrow","leftarrow"],"right_color":"lightblue","left_color":"orange","left_mu":40,"right_mu":60,"left_numbers":[41,39,39,36,31,44,25,40,36,40],"right_numbers":[65,51,49,63,60,54,65,63,50,38],"points_earned":519,"phase":"task","trial_type":"horizons-task","trial_index":62,"time_elapsed":612797,"internal_node_id":"0.0-58.0","task_version":"0.2"},{"response_times":[729.2000000015832,328.3650000230409,577.3749999934807,833.3400000119582,1246.9149999669753,386.23000000370666,454.28499998524785,388.00500001525506,331.7650000099093,436.4449999993667],"keys_pressed":["leftarrow","rightarrow","leftarrow","leftarrow","rightarrow","leftarrow","leftarrow","leftarrow","leftarrow","leftarrow"],"horizon":10,"forced_choices":["leftarrow","rightarrow","leftarrow","leftarrow"],"right_color":"orange","left_color":"lightblue","left_mu":40,"right_mu":20,"left_numbers":[32,43,47,32,29,35,56,44,42,40],"right_numbers":[33,18,28,12,19,20,8,18,11,18],"points_earned":365,"phase":"task","trial_type":"horizons-task","trial_index":63,"time_elapsed":620014,"internal_node_id":"0.0-59.0","task_version":"0.2"},{"response_times":[491.47000000812113,570.0199999846518,607.4350000126287,816.3150000036694,264.2399999895133],"keys_pressed":["leftarrow","leftarrow","rightarrow","leftarrow","rightarrow"],"horizon":5,"forced_choices":["leftarrow","leftarrow","rightarrow","leftarrow"],"right_color":"orange","left_color":"lightblue","left_mu":40,"right_mu":52,"left_numbers":[32,37,32,40,49],"right_numbers":[34,59,58,53,61],"points_earned":228,"phase":"task","trial_type":"horizons-task","trial_index":64,"time_elapsed":624268,"internal_node_id":"0.0-60.0","task_version":"0.2"},{"response_times":[553.7699999986216,355.99999997066334,615.2100000181235,1198.2050000224262,637.1950000175275,876.1100000119768,307.91500001214445,412.80000004917383,336.42999996664,219.43499997723848],"keys_pressed":["leftarrow","rightarrow","rightarrow","rightarrow","leftarrow","rightarrow","leftarrow","leftarrow","leftarrow","leftarrow"],"horizon":10,"forced_choices":["leftarrow","rightarrow","rightarrow","rightarrow"],"right_color":"orange","left_color":"lightblue","left_mu":40,"right_mu":36,"left_numbers":[47,53,47,52,55,28,49,39,55,44],"right_numbers":[31,36,30,28,43,33,21,42,41,42],"points_earned":416,"phase":"task","trial_type":"horizons-task","trial_index":65,"time_elapsed":631286,"internal_node_id":"0.0-61.0","task_version":"0.2"},{"response_times":[587.6849999767728,344.2100000102073,842.3199999961071,567.6400000229478,602.7349999640137,459.35999997891486,402.3749999469146,388.9149999595247,332.8099999926053,372.0399999874644],"keys_pressed":["leftarrow","rightarrow","leftarrow","rightarrow","rightarrow","rightarrow","rightarrow","rightarrow","rightarrow","rightarrow"],"horizon":10,"forced_choices":["leftarrow","rightarrow","leftarrow","rightarrow"],"right_color":"lightblue","left_color":"orange","left_mu":60,"right_mu":72,"left_numbers":[61,68,58,60,70,60,59,60,64,61],"right_numbers":[91,66,70,79,66,85,76,76,59,69],"points_earned":695,"phase":"task","trial_type":"horizons-task","trial_index":66,"time_elapsed":637692,"internal_node_id":"0.0-62.0","task_version":"0.2"},{"response_times":[668.1150000076741,280.5999999982305,567.0150000369176,742.8450000006706,1299.120000039693],"keys_pressed":["leftarrow","rightarrow","leftarrow","rightarrow","leftarrow"],"horizon":5,"forced_choices":["leftarrow","rightarrow","leftarrow","rightarrow"],"right_color":"lightblue","left_color":"orange","left_mu":40,"right_mu":32,"left_numbers":[39,34,38,39,47],"right_numbers":[21,32,25,38,27],"points_earned":194,"phase":"task","trial_type":"horizons-task","trial_index":67,"time_elapsed":642754,"internal_node_id":"0.0-63.0","task_version":"0.2"},{"response_times":[734.6399999805726,569.7400000062771,619.2399999708869,461.2450000131503,716.9199999771081],"keys_pressed":["rightarrow","leftarrow","leftarrow","leftarrow","rightarrow"],"horizon":5,"forced_choices":["rightarrow","leftarrow","leftarrow","leftarrow"],"right_color":"orange","left_color":"lightblue","left_mu":60,"right_mu":68,"left_numbers":[62,55,60,56,46],"right_numbers":[75,65,73,75,68],"points_earned":314,"phase":"task","trial_type":"horizons-task","trial_index":68,"time_elapsed":647360,"internal_node_id":"0.0-64.0","task_version":"0.2"},{"response_times":[605.8849999681115,440.37000002572313,616.5400000172667,759.0649999910966,445.1300000073388],"keys_pressed":["rightarrow","leftarrow","leftarrow","rightarrow","rightarrow"],"horizon":5,"forced_choices":["rightarrow","leftarrow","leftarrow","rightarrow"],"right_color":"lightblue","left_color":"orange","left_mu":40,"right_mu":48,"left_numbers":[49,40,27,43,43],"right_numbers":[40,44,50,43,62],"points_earned":212,"phase":"task","trial_type":"horizons-task","trial_index":69,"time_elapsed":651731,"internal_node_id":"0.0-65.0","task_version":"0.2"},{"response_times":[696.555000031367,547.8400000138208,640.769999998156,638.3599999826401,1098.71499997098,622.7250000229105,2414.6900000050664,584.8700000206009,642.8249999880791,784.7450000117533],"keys_pressed":["rightarrow","rightarrow","leftarrow","leftarrow","leftarrow","rightarrow","leftarrow","rightarrow","rightarrow","leftarrow"],"horizon":10,"forced_choices":["rightarrow","rightarrow","leftarrow","leftarrow"],"right_color":"lightblue","left_color":"orange","left_mu":40,"right_mu":28,"left_numbers":[42,32,44,51,29,54,27,50,44,44],"right_numbers":[43,29,25,24,30,31,15,29,30,30],"points_earned":357,"phase":"task","trial_type":"horizons-task","trial_index":70,"time_elapsed":661909,"internal_node_id":"0.0-66.0","task_version":"0.2"},{"response_times":[484.5799999893643,443.75499995658174,582.1800000267103,747.7199999848381,1167.1649999916553],"keys_pressed":["rightarrow","rightarrow","leftarrow","leftarrow","leftarrow"],"horizon":5,"forced_choices":["rightarrow","rightarrow","leftarrow","leftarrow"],"right_color":"orange","left_color":"lightblue","left_mu":40,"right_mu":44,"left_numbers":[30,36,48,40,28],"right_numbers":[46,39,40,64,37],"points_earned":201,"phase":"task","trial_type":"horizons-task","trial_index":71,"time_elapsed":666840,"internal_node_id":"0.0-67.0","task_version":"0.2"},{"response_times":[554.3049999978393,355.0950000062585,583.3649999694899,649.8249999713153,601.044999959413],"keys_pressed":["leftarrow","rightarrow","leftarrow","rightarrow","leftarrow"],"horizon":5,"forced_choices":["leftarrow","rightarrow","leftarrow","rightarrow"],"right_color":"lightblue","left_color":"orange","left_mu":40,"right_mu":10,"left_numbers":[37,38,44,31,39],"right_numbers":[4,17,11,9,0],"points_earned":146,"phase":"task","trial_type":"horizons-task","trial_index":72,"time_elapsed":671088,"internal_node_id":"0.0-68.0","task_version":"0.2"},{"response_times":[503.8300000014715,493.45499998889863,469.7150000138208,786.7549999500625,1275.7850000052713,507.29999999748543,479.27000001072884,557.1399999898858,532.2850000229664,384.41499997861683],"keys_pressed":["rightarrow","rightarrow","leftarrow","leftarrow","rightarrow","rightarrow","rightarrow","rightarrow","rightarrow","rightarrow"],"horizon":10,"forced_choices":["rightarrow","rightarrow","leftarrow","leftarrow"],"right_color":"orange","left_color":"lightblue","left_mu":40,"right_mu":70,"left_numbers":[24,20,43,33,39,36,32,48,46,44],"right_numbers":[79,68,76,61,68,77,76,53,51,75],"points_earned":623,"phase":"task","trial_type":"horizons-task","trial_index":73,"time_elapsed":678583,"internal_node_id":"0.0-69.0","task_version":"0.2"},{"response_times":[766.6750000207685,432.280000008177,621.5250000241213,861.5850000060163,911.019999999553,490.6100000371225,525.8050000411458,475.7850000169128,425.504999991972,253.46999999601394],"keys_pressed":["rightarrow","leftarrow","rightarrow","leftarrow","leftarrow","leftarrow","rightarrow","rightarrow","leftarrow","leftarrow"],"horizon":10,"forced_choices":["rightarrow","leftarrow","rightarrow","leftarrow"],"right_color":"orange","left_color":"lightblue","left_mu":60,"right_mu":52,"left_numbers":[63,71,47,64,70,46,58,61,60,57],"right_numbers":[51,62,64,51,49,40,53,46,59,41],"points_earned":582,"phase":"task","trial_type":"horizons-task","trial_index":74,"time_elapsed":685853,"internal_node_id":"0.0-70.0","task_version":"0.2"},{"response_times":[1182.730000000447,549.944999977015,578.5949999699369,913.8800000073388,962.485000025481],"keys_pressed":["rightarrow","rightarrow","leftarrow","rightarrow","leftarrow"],"horizon":5,"forced_choices":["rightarrow","rightarrow","leftarrow","rightarrow"],"right_color":"lightblue","left_color":"orange","left_mu":40,"right_mu":10,"left_numbers":[31,31,44,39,47],"right_numbers":[6,0,9,11,4],"points_earned":108,"phase":"task","trial_type":"horizons-task","trial_index":75,"time_elapsed":691545,"internal_node_id":"0.0-71.0","task_version":"0.2"},{"response_times":[968.4400000260212,550.4950000322424,536.6200000280514,554.4900000095367,895.4249999951571],"keys_pressed":["leftarrow","rightarrow","rightarrow","leftarrow","leftarrow"],"horizon":5,"forced_choices":["leftarrow","rightarrow","rightarrow","leftarrow"],"right_color":"orange","left_color":"lightblue","left_mu":60,"right_mu":68,"left_numbers":[57,55,63,60,50],"right_numbers":[65,57,45,63,65],"points_earned":269,"phase":"task","trial_type":"horizons-task","trial_index":76,"time_elapsed":696556,"internal_node_id":"0.0-72.0","task_version":"0.2"},{"response_times":[631.6249999799766,537.865000020247,446.7350000049919,590.4399999999441,867.5200000288896],"keys_pressed":["rightarrow","rightarrow","leftarrow","leftarrow","leftarrow"],"horizon":5,"forced_choices":["rightarrow","rightarrow","leftarrow","leftarrow"],"right_color":"lightblue","left_color":"orange","left_mu":40,"right_mu":28,"left_numbers":[38,56,29,27,35],"right_numbers":[18,27,23,31,25],"points_earned":136,"phase":"task","trial_type":"horizons-task","trial_index":77,"time_elapsed":701135,"internal_node_id":"0.0-73.0","task_version":"0.2"},{"response_times":[679.2700000223704,408.545000012964,375.9449999779463,420.6700000213459,1024.9750000075437,471.7750000418164,353.08500000974163,291.4500000188127,383.9799999841489,252.3249999503605],"keys_pressed":["leftarrow","leftarrow","rightarrow","leftarrow","rightarrow","rightarrow","rightarrow","rightarrow","rightarrow","rightarrow"],"horizon":10,"forced_choices":["leftarrow","leftarrow","rightarrow","leftarrow"],"right_color":"orange","left_color":"lightblue","left_mu":40,"right_mu":70,"left_numbers":[32,29,35,34,33,41,50,44,37,41],"right_numbers":[62,74,69,83,76,78,67,71,74,76],"points_earned":606,"phase":"task","trial_type":"horizons-task","trial_index":78,"time_elapsed":707303,"internal_node_id":"0.0-74.0","task_version":"0.2"},{"response_times":[592.9049999685958,628.0200000037439,499.0299999481067,391.2899999995716,463.3299999986775,430.66000001272187,416.4800000144169,408.629999961704,411.6650000214577,354.3699999572709],"keys_pressed":["rightarrow","leftarrow","leftarrow","leftarrow","rightarrow","rightarrow","rightarrow","rightarrow","rightarrow","rightarrow"],"horizon":10,"forced_choices":["rightarrow","leftarrow","leftarrow","leftarrow"],"right_color":"lightblue","left_color":"orange","left_mu":60,"right_mu":72,"left_numbers":[56,56,54,43,59,59,44,66,68,51],"right_numbers":[66,53,66,74,69,79,70,81,75,67],"points_earned":660,"phase":"task","trial_type":"horizons-task","trial_index":79,"time_elapsed":713405,"internal_node_id":"0.0-75.0","task_version":"0.2"},{"response_times":[585.2650000015274,433.15500003518537,578.6750000552274,388.47499998519197,341.85500000603497],"keys_pressed":["rightarrow","leftarrow","leftarrow","rightarrow","rightarrow"],"horizon":5,"forced_choices":["rightarrow","leftarrow","leftarrow","rightarrow"],"right_color":"lightblue","left_color":"orange","left_mu":60,"right_mu":80,"left_numbers":[55,55,43,46,61],"right_numbers":[87,84,89,89,86],"points_earned":360,"phase":"task","trial_type":"horizons-task","trial_index":80,"time_elapsed":717237,"internal_node_id":"0.0-76.0","task_version":"0.2"},{"response_times":[758.3100000047125,740.60499999905,431.32000003242865,586.3600000157021,1307.1050000144169,705.9550000121817,707.5199999962933,752.9799999902025,518.1900000316091,372.3100000061095],"keys_pressed":["leftarrow","leftarrow","rightarrow","rightarrow","rightarrow","rightarrow","rightarrow","rightarrow","rightarrow","rightarrow"],"horizon":10,"forced_choices":["leftarrow","leftarrow","rightarrow","rightarrow"],"right_color":"orange","left_color":"lightblue","left_mu":40,"right_mu":52,"left_numbers":[43,45,43,34,56,36,45,39,44,38],"right_numbers":[60,51,51,44,73,55,46,49,50,53],"points_earned":509,"phase":"task","trial_type":"horizons-task","trial_index":81,"time_elapsed":725623,"internal_node_id":"0.0-77.0","task_version":"0.2"},{"response_times":[572.5349999847822,361.9850000250153,597.2450000117533,693.8850000151433,805.9950000024401,2017.5750000053085,430.3300000028685,923.3349999994971,753.6450000479817,322.89499999023974],"keys_pressed":["rightarrow","rightarrow","leftarrow","rightarrow","leftarrow","leftarrow","leftarrow","leftarrow","leftarrow","leftarrow"],"horizon":10,"forced_choices":["rightarrow","rightarrow","leftarrow","rightarrow"],"right_color":"orange","left_color":"lightblue","left_mu":60,"right_mu":56,"left_numbers":[56,75,68,55,52,62,53,48,69,47],"right_numbers":[47,52,71,55,54,47,39,57,46,59],"points_earned":553,"phase":"task","trial_type":"horizons-task","trial_index":82,"time_elapsed":734607,"internal_node_id":"0.0-78.0","task_version":"0.2"},{"response_times":[547.5250000017695,395.86500002769753,521.7300000367686,509.07500000903383,255.42499998118728],"keys_pressed":["leftarrow","leftarrow","rightarrow","leftarrow","rightarrow"],"horizon":5,"forced_choices":["leftarrow","leftarrow","rightarrow","leftarrow"],"right_color":"orange","left_color":"lightblue","left_mu":40,"right_mu":70,"left_numbers":[44,28,45,48,40],"right_numbers":[72,74,60,80,68],"points_earned":248,"phase":"task","trial_type":"horizons-task","trial_index":83,"time_elapsed":738342,"internal_node_id":"0.0-79.0","task_version":"0.2"},{"response_times":[545.8499999949709,425.7849999703467,673.9799999631941,406.02499997476116,507.1950000128709],"keys_pressed":["leftarrow","rightarrow","rightarrow","leftarrow","leftarrow"],"horizon":5,"forced_choices":["leftarrow","rightarrow","rightarrow","leftarrow"],"right_color":"orange","left_color":"lightblue","left_mu":60,"right_mu":56,"left_numbers":[70,49,58,59,58],"right_numbers":[53,49,58,56,50],"points_earned":294,"phase":"task","trial_type":"horizons-task","trial_index":84,"time_elapsed":742405,"internal_node_id":"0.0-80.0","task_version":"0.2"},{"response_times":[734.085000003688,402.0449999952689,638.8150000129826,594.5700000156648,1131.1599999899045,452.42000004509464,984.1850000084378,433.78500000108033,428.95500001031905,310.12499995995313],"keys_pressed":["rightarrow","leftarrow","leftarrow","rightarrow","leftarrow","leftarrow","leftarrow","leftarrow","leftarrow","leftarrow"],"horizon":10,"forced_choices":["rightarrow","leftarrow","leftarrow","rightarrow"],"right_color":"orange","left_color":"lightblue","left_mu":60,"right_mu":40,"left_numbers":[61,47,61,48,77,55,82,55,62,55],"right_numbers":[27,28,45,39,49,52,31,53,46,58],"points_earned":560,"phase":"task","trial_type":"horizons-task","trial_index":85,"time_elapsed":750019,"internal_node_id":"0.0-81.0","task_version":"0.2"},{"response_times":[633.4700000006706,449.00000002235174,560.5699999723583,693.1650000042282,1226.6950000193901,399.55999999074265,454.9000000115484,229.1500000283122,420.64500000560656,368.0150000145659],"keys_pressed":["rightarrow","leftarrow","rightarrow","leftarrow","leftarrow","leftarrow","leftarrow","leftarrow","leftarrow","leftarrow"],"horizon":10,"forced_choices":["rightarrow","leftarrow","rightarrow","leftarrow"],"right_color":"lightblue","left_color":"orange","left_mu":60,"right_mu":48,"left_numbers":[65,73,64,60,63,65,46,63,68,61],"right_numbers":[45,34,42,36,47,41,53,46,44,46],"points_earned":586,"phase":"task","trial_type":"horizons-task","trial_index":86,"time_elapsed":756961,"internal_node_id":"0.0-82.0","task_version":"0.2"},{"response_times":[481.70999996364117,481.49500001454726,450.345000019297,603.8599999737926,1212.9450000356883,763.4950000210665,437.9550000303425,283.20000000530854,270.14500001678243,332.85000000614673],"keys_pressed":["leftarrow","leftarrow","leftarrow","rightarrow","leftarrow","rightarrow","rightarrow","rightarrow","rightarrow","rightarrow"],"horizon":10,"forced_choices":["leftarrow","leftarrow","leftarrow","rightarrow"],"right_color":"lightblue","left_color":"orange","left_mu":60,"right_mu":80,"left_numbers":[70,60,66,60,55,63,50,63,66,61],"right_numbers":[74,96,75,66,83,92,75,83,92,79],"points_earned":738,"phase":"task","trial_type":"horizons-task","trial_index":87,"time_elapsed":763784,"internal_node_id":"0.0-83.0","task_version":"0.2"},{"response_times":[1689.2400000360794,449.2500000051223,600.1050000195391,635.5199999525212,760.4299999657087],"keys_pressed":["leftarrow","rightarrow","rightarrow","rightarrow","leftarrow"],"horizon":5,"forced_choices":["leftarrow","rightarrow","rightarrow","rightarrow"],"right_color":"orange","left_color":"lightblue","left_mu":40,"right_mu":36,"left_numbers":[37,27,47,44,66],"right_numbers":[32,27,40,32,33],"points_earned":202,"phase":"task","trial_type":"horizons-task","trial_index":88,"time_elapsed":769423,"internal_node_id":"0.0-84.0","task_version":"0.2"},{"response_times":[672.8749999892898,480.039999994915,610.2550000068732,1811.664999986533,707.4650000431575],"keys_pressed":["rightarrow","leftarrow","rightarrow","rightarrow","leftarrow"],"horizon":5,"forced_choices":["rightarrow","leftarrow","rightarrow","rightarrow"],"right_color":"lightblue","left_color":"orange","left_mu":60,"right_mu":48,"left_numbers":[73,65,68,53,61],"right_numbers":[57,43,43,62,57],"points_earned":288,"phase":"task","trial_type":"horizons-task","trial_index":89,"time_elapsed":775211,"internal_node_id":"0.0-85.0","task_version":"0.2"},{"response_times":[551.1500000138767,399.2549999966286,437.33500002417713,615.010000008624,845.4949999577366,908.6499999975786,408.9650000096299,354.71500002313405,314.7400000016205,326.9950000103563],"keys_pressed":["rightarrow","leftarrow","rightarrow","rightarrow","rightarrow","leftarrow","leftarrow","leftarrow","leftarrow","leftarrow"],"horizon":10,"forced_choices":["rightarrow","leftarrow","rightarrow","rightarrow"],"right_color":"lightblue","left_color":"orange","left_mu":60,"right_mu":48,"left_numbers":[65,62,54,68,66,69,66,58,56,67],"right_numbers":[55,55,40,46,41,48,42,56,38,48],"points_earned":560,"phase":"task","trial_type":"horizons-task","trial_index":90,"time_elapsed":781880,"internal_node_id":"0.0-86.0","task_version":"0.2"},{"response_times":[535.8700000215322,484.6549999783747,523.8599999574944,1553.1949999858625,696.97999994969],"keys_pressed":["rightarrow","rightarrow","leftarrow","rightarrow","rightarrow"],"horizon":5,"forced_choices":["rightarrow","rightarrow","leftarrow","rightarrow"],"right_color":"orange","left_color":"lightblue","left_mu":60,"right_mu":56,"left_numbers":[58,58,58,60,58],"right_numbers":[71,45,56,66,62],"points_earned":302,"phase":"task","trial_type":"horizons-task","trial_index":91,"time_elapsed":787180,"internal_node_id":"0.0-87.0","task_version":"0.2"},{"rt":10627.069999987725,"responses":{"age":"26","gender-categorical":"Male","gender-free-response":"","ethnicity":"Not Hispanic or Latino","race":["White"],"language":"Yes","fluency":"Very well"},"survey":"demographics","trial_type":"survey-demo","trial_index":92,"time_elapsed":797815,"internal_node_id":"0.0-88.0","task_version":"0.2"},{"rt":16367.299999983516,"responses":{"difficulty":"3","fun":"4","clarity":"4","strategy":"no","feedback":"I do not, thank you."},"survey":"debrief","trial_type":"survey-debrief","trial_index":93,"time_elapsed":814201,"internal_node_id":"0.0-89.0","task_version":"0.2","interactions":"[]"}]