[{"view_history":"[{\"page_index\":0,\"viewing_time\":2266.7850000143517}]","rt":2267.3399999912363,"trial_type":"instructions","trial_index":0,"time_elapsed":2281,"internal_node_id":"0.0-0.0","task_version":"0.2"},{"item_order":[5,12,1,2,3,7,8,11,6,10,0,4,9],"responses":{"Q06":"0","Q13":"4","Q02":"3","Q03":"2","Q04":"3","Q08":"4","Q09":"2","Q12":"1","Q07":"1","Q11":"2","Q01":"3","Q05":"4","Q10":"2"},"radio_events":[8746.565000008559,12529.620000015711,14761.91000000108,19918.590000015683,23772.005000006175,25028.40500001912,30691.43500001519,34686.52000001748,37228.70999999577,40153.89000001596,47268.8049999997,51146.380000020145,55723.89000002295,58665.09500000393,66466.33500000462],"key_events":[],"mouse_events":[0.27000001864507794,3808.7450000166427,8746.565000008559,10580.045000009704,11991.710000002058,12249.370000005001,12529.620000015711,13412.01000000001,14761.91000000108,16369.0700000152,16796.125000022585,18045.095000008587,18974.490000022342,19918.590000015683,22944.730000017444,23435.874999995576,23772.005000006175,25028.40500001912,30691.43500001519,34686.52000001748,37228.70999999577,40153.89000001596,42447.64500000747,45233.009999996284,46061.04500000947,46402.80000001076,47268.8049999997,51146.380000020145,55723.89000002295,58320.78999999794,58665.09500000393,59531.21499999543,66044.5250000048,66466.33500000462,67348.1449999963],"rt":67351.44500000752,"survey":"ius12","trial_type":"survey-template","trial_index":1,"time_elapsed":69640,"internal_node_id":"0.0-1.0","task_version":"0.2"},{"item_order":[6,15,8,0,1,9,3,5,7,13,14,12,10,2,11,4],"responses":{"Q07":"5","Q16":"5","Q09":"5","Q01":"5","Q02":"5","Q10":"5","Q04":"5","Q06":"5","Q08":"5","Q14":"5","Q15":"4","Q13":"5","Q11":"4","Q03":"5","Q12":"5","Q05":"3"},"radio_events":[5374.490000016522,6793.725000025006,19682.460000010906,22468.060000013793,24659.750000020722,25689.630000008037,30370.90999999782,31368.835000001127,39973.49000000395,40863.51000002469,42001.365000003716,43141.30000001751,44684.93000001763,47648.83499999996,56767.95000000857,62244.36000001151,64928.2050000038,68368.35500001325,73678.96499999915],"key_events":[],"mouse_events":[5374.490000016522,6793.725000025006,14611.025000020163,19682.460000010906,21204.19000001857,22468.060000013793,24659.750000020722,25689.630000008037,28896.99500001734,29738.60500002047,30370.90999999782,31368.835000001127,38327.95000000624,39973.49000000395,40863.51000002469,42001.365000003716,43141.30000001751,44684.93000001763,47648.83499999996,50528.04500001366,55043.4800000221,56767.95000000857,60060.75500001316,60784.840000007534,61978.37000002619,62244.36000001151,64928.2050000038,68368.35500001325,69865.88500000653,73678.96499999915,74787.00000001118],"rt":74792.56000000169,"survey":"nfc","trial_type":"survey-template","trial_index":2,"time_elapsed":144444,"internal_node_id":"0.0-2.0","task_version":"0.2"},{"item_order":[8,6,4,14,16,3,0,9,13,15,5,11,12,2,1,10,7],"responses":{"Q09":"4","Q07":"4","Q05":"4","Q15":"4","Q17":"0","Q04":"4","Q01":"0","Q10":"0","Q14":"4","Q16":"4","Q06":"4","Q12":"4","Q13":"4","Q03":"0","Q02":"4","Q11":"2","Q08":"2"},"radio_events":[5747.069999983069,7602.209999982733,10846.26500000013,13296.184999984689,15075.364999996964,18235.37999999826,286255.1449999737,288890.8199999714,289858.76499998267,308870.68999998155,313845.564999996,314665.33999997773,317349.33499997715,325491.9649999938,327019.9549999961,331193.05499998154,337440.1299999736],"key_events":[],"mouse_events":[5394.304999994347,5747.069999983069,6573.46499999403,6860.074999975041,7242.009999987204,7602.209999982733,9044.029999990016,10143.879999988712,10846.26500000013,12913.669999979902,13296.184999984689,14776.93999998155,15075.364999996964,18235.37999999826,285825.4049999814,286255.1449999737,286909.1199999966,288890.8199999714,289858.76499998267,308870.68999998155,309470.7599999965,309757.6949999784,313503.69499999215,313845.564999996,314665.33999997773,315273.41999998316,316496.9449999917,317349.33499997715,325491.9649999938,326613.97499998566,327019.9549999961,331193.05499998154,337440.1299999736,338860.4999999807],"rt":338865.44999998296,"survey":"pswq","trial_type":"survey-template","trial_index":3,"time_elapsed":483322,"internal_node_id":"0.0-3.0","task_version":"0.2"},{"view_history":"[{\"page_index\":0,\"viewing_time\":4491.405000007944},{\"page_index\":1,\"viewing_time\":4687.9250000056345},{\"page_index\":2,\"viewing_time\":5385.999999998603},{\"page_index\":3,\"viewing_time\":7153.489999996964},{\"page_index\":4,\"viewing_time\":7160.730000003241},{\"page_index\":5,\"viewing_time\":4227.47499999241},{\"page_index\":6,\"viewing_time\":6019.120000011753},{\"page_index\":7,\"viewing_time\":4093.8049999822397},{\"page_index\":8,\"viewing_time\":4795.13000001316},{\"page_index\":9,\"viewing_time\":2989.55999998725}]","rt":51005.11500000721,"trial_type":"instructions","trial_index":4,"time_elapsed":534336,"internal_node_id":"0.0-4.0-0.0","task_version":"0.2"},{"response_times":[25962.59499998996,4551.03999999119,7731.10999999335,1055.564999987837,165.95500000403263],"keys_pressed":["rightarrow","leftarrow","rightarrow","rightarrow","leftarrow"],"horizon":5,"forced_choices":["rightarrow","leftarrow","rightarrow","rightarrow"],"right_color":"lightblue","left_color":"orange","left_mu":40,"right_mu":20,"left_numbers":[43,35,44,44,52],"right_numbers":[19,32,12,11,23],"points_earned":129,"phase":"practice","trial_type":"horizons-task","trial_index":5,"time_elapsed":575319,"internal_node_id":"0.0-4.0-1.0","task_version":"0.2"},{"response_times":[1129.3000000005122,932.2999999858439,987.730000022566,1741.8699999980163,2909.270000003744,991.5649999747984,1337.9449999774806,845.6600000208709,464.2349999921862,1338.1700000027195],"keys_pressed":["leftarrow","leftarrow","rightarrow","rightarrow","leftarrow","rightarrow","leftarrow","rightarrow","leftarrow","rightarrow"],"horizon":10,"forced_choices":["leftarrow","leftarrow","rightarrow","rightarrow"],"right_color":"orange","left_color":"lightblue","left_mu":60,"right_mu":70,"left_numbers":[65,38,64,64,66,56,56,60,73,50],"right_numbers":[68,75,73,70,74,81,64,69,67,67],"points_earned":658,"phase":"practice","trial_type":"horizons-task","trial_index":6,"time_elapsed":589500,"internal_node_id":"0.0-4.0-2.0","task_version":"0.2"},{"view_history":"[{\"page_index\":0,\"viewing_time\":1762.7599999832455},{\"page_index\":1,\"viewing_time\":2995.8950000000186},{\"page_index\":2,\"viewing_time\":6030.890000023646},{\"page_index\":3,\"viewing_time\":1944.00499999756}]","rt":12733.795000007376,"trial_type":"instructions","trial_index":7,"time_elapsed":602235,"internal_node_id":"0.0-4.0-3.0","task_version":"0.2"},{"responses":["true","false","true"],"num_errors":0,"rt":13484.785000007832,"trial_type":"horizons-comprehension","trial_index":8,"time_elapsed":615722,"internal_node_id":"0.0-4.0-4.0","task_version":"0.2"},{"trial_type":"call-function","trial_index":9,"time_elapsed":615731,"internal_node_id":"0.0-5.0","task_version":"0.2"},{"view_history":"[{\"page_index\":0,\"viewing_time\":1459.869999991497},{\"page_index\":1,\"viewing_time\":4175.469999987399}]","rt":5635.624999995343,"trial_type":"instructions","trial_index":10,"time_elapsed":621368,"internal_node_id":"0.0-6.0","task_version":"0.2"},{"response_times":[3327.370000013616,2889.824999991106,3439.329999993788,2523.749999993015,4201.384999993024],"keys_pressed":["rightarrow","leftarrow","rightarrow","leftarrow","rightarrow"],"horizon":5,"forced_choices":["rightarrow","leftarrow","rightarrow","leftarrow"],"right_color":"lightblue","left_color":"orange","left_mu":60,"right_mu":68,"left_numbers":[54,52,76,57,58],"right_numbers":[60,71,68,61,58],"points_earned":295,"phase":"task","trial_type":"horizons-task","trial_index":11,"time_elapsed":639259,"internal_node_id":"0.0-7.0","task_version":"0.2"},{"response_times":[1082.68500000122,1695.5799999996088,2817.769999994198,631.7950000229757,2520.01000000746,3535.4299999889918,947.2449999884702,5127.674999996088,701.9399999990128,1911.485000018729],"keys_pressed":["rightarrow","leftarrow","leftarrow","leftarrow","rightarrow","rightarrow","leftarrow","leftarrow","leftarrow","leftarrow"],"horizon":10,"forced_choices":["rightarrow","leftarrow","leftarrow","leftarrow"],"right_color":"orange","left_color":"lightblue","left_mu":60,"right_mu":56,"left_numbers":[58,51,66,65,65,76,65,63,61,49],"right_numbers":[56,60,58,59,60,56,51,70,54,56],"points_earned":592,"phase":"task","trial_type":"horizons-task","trial_index":12,"time_elapsed":661737,"internal_node_id":"0.0-8.0","task_version":"0.2"},{"response_times":[1727.8750000114087,688.9749999972992,765.9549999807496,963.8250000134576,3780.094999994617,1779.1049999941606,1124.4749999896158,3223.0149999959394,729.6999999962281,1405.834999983199],"keys_pressed":["rightarrow","rightarrow","leftarrow","rightarrow","leftarrow","rightarrow","leftarrow","rightarrow","leftarrow","leftarrow"],"horizon":10,"forced_choices":["rightarrow","rightarrow","leftarrow","rightarrow"],"right_color":"orange","left_color":"lightblue","left_mu":60,"right_mu":30,"left_numbers":[69,70,61,70,55,72,57,55,67,52],"right_numbers":[29,52,25,17,42,38,26,27,33,30],"points_earned":455,"phase":"task","trial_type":"horizons-task","trial_index":13,"time_elapsed":679429,"internal_node_id":"0.0-9.0","task_version":"0.2"},{"response_times":[1093.684999999823,2619.425000011688,487.82999999821186,662.1649999869987,2097.440000012284,3335.609999980079,12824.549999990268,1237.3000000079628,667.8749999846332,634.2599999916274],"keys_pressed":["rightarrow","leftarrow","rightarrow","rightarrow","rightarrow","rightarrow","leftarrow","rightarrow","rightarrow","rightarrow"],"horizon":10,"forced_choices":["rightarrow","leftarrow","rightarrow","rightarrow"],"right_color":"lightblue","left_color":"orange","left_mu":40,"right_mu":60,"left_numbers":[38,53,42,38,48,42,28,40,46,37],"right_numbers":[68,57,62,70,56,66,58,68,56,62],"points_earned":589,"phase":"task","trial_type":"horizons-task","trial_index":14,"time_elapsed":706593,"internal_node_id":"0.0-10.0","task_version":"0.2"},{"response_times":[408.40500002377667,584.0899999893736,2167.749999993248,887.9000000015367,3839.559999993071,3031.510000000708,927.6499999978114,2359.694999991916,591.7649999901187,457.8050000127405],"keys_pressed":["rightarrow","rightarrow","leftarrow","leftarrow","rightarrow","rightarrow","rightarrow","rightarrow","rightarrow","rightarrow"],"horizon":10,"forced_choices":["rightarrow","rightarrow","leftarrow","leftarrow"],"right_color":"orange","left_color":"lightblue","left_mu":40,"right_mu":48,"left_numbers":[53,38,47,29,46,43,28,60,38,34],"right_numbers":[39,46,64,39,44,35,32,43,50,57],"points_earned":422,"phase":"task","trial_type":"horizons-task","trial_index":15,"time_elapsed":723353,"internal_node_id":"0.0-11.0","task_version":"0.2"},{"response_times":[698.6800000013318,510.0399999937508,603.5599999886472,455.7949999871198,2443.8950000039767,459.68500000890344,678.1599999812897,1065.6550000130665,453.91000001109205,522.0800000242889],"keys_pressed":["leftarrow","rightarrow","rightarrow","leftarrow","rightarrow","rightarrow","rightarrow","rightarrow","rightarrow","rightarrow"],"horizon":10,"forced_choices":["leftarrow","rightarrow","rightarrow","leftarrow"],"right_color":"lightblue","left_color":"orange","left_mu":40,"right_mu":52,"left_numbers":[39,32,49,51,45,49,26,35,33,50],"right_numbers":[51,54,49,49,43,48,46,66,57,37],"points_earned":490,"phase":"task","trial_type":"horizons-task","trial_index":16,"time_elapsed":732748,"internal_node_id":"0.0-12.0","task_version":"0.2"},{"response_times":[974.1350000258535,719.9200000031851,587.8500000108033,709.8500000138301,2433.7149999919347,1493.6549999983981,969.5749999955297,472.00000000884756,1571.735000004992,1608.3100000105333],"keys_pressed":["leftarrow","leftarrow","rightarrow","leftarrow","leftarrow","leftarrow","leftarrow","leftarrow","rightarrow","leftarrow"],"horizon":10,"forced_choices":["leftarrow","leftarrow","rightarrow","leftarrow"],"right_color":"lightblue","left_color":"orange","left_mu":60,"right_mu":48,"left_numbers":[67,57,60,63,54,66,59,45,53,59],"right_numbers":[57,47,60,45,38,40,56,58,57,41],"points_earned":587,"phase":"task","trial_type":"horizons-task","trial_index":17,"time_elapsed":745792,"internal_node_id":"0.0-13.0","task_version":"0.2"},{"response_times":[1154.0150000073481,351.59000000567175,969.8600000119768,909.734999993816,4951.744999998482],"keys_pressed":["rightarrow","leftarrow","leftarrow","rightarrow","rightarrow"],"horizon":5,"forced_choices":["rightarrow","leftarrow","leftarrow","rightarrow"],"right_color":"lightblue","left_color":"orange","left_mu":40,"right_mu":60,"left_numbers":[50,46,42,41,44],"right_numbers":[45,60,69,70,34],"points_earned":237,"phase":"task","trial_type":"horizons-task","trial_index":18,"time_elapsed":755633,"internal_node_id":"0.0-14.0","task_version":"0.2"},{"response_times":[724.7000000206754,249.8699999996461,708.13499999349,1023.6099999747239,1612.105000007432],"keys_pressed":["rightarrow","leftarrow","leftarrow","leftarrow","rightarrow"],"horizon":5,"forced_choices":["rightarrow","leftarrow","leftarrow","leftarrow"],"right_color":"orange","left_color":"lightblue","left_mu":40,"right_mu":48,"left_numbers":[43,32,33,44,30],"right_numbers":[55,55,62,51,71],"points_earned":235,"phase":"task","trial_type":"horizons-task","trial_index":19,"time_elapsed":761454,"internal_node_id":"0.0-15.0","task_version":"0.2"},{"response_times":[713.1899999803863,551.8499999889173,1057.7650000050198,659.9400000122841,2379.929999995511],"keys_pressed":["leftarrow","leftarrow","rightarrow","rightarrow","rightarrow"],"horizon":5,"forced_choices":["leftarrow","leftarrow","rightarrow","rightarrow"],"right_color":"orange","left_color":"lightblue","left_mu":40,"right_mu":32,"left_numbers":[25,24,48,34,34],"right_numbers":[35,35,31,34,6],"points_earned":120,"phase":"task","trial_type":"horizons-task","trial_index":20,"time_elapsed":768320,"internal_node_id":"0.0-16.0","task_version":"0.2"},{"response_times":[925.9749999910127,527.540000010049,443.7900000193622,609.8200000124052,3677.7100000181235,1854.0949999878649,1803.2600000151433,2253.8950000016484,1675.6250000034925,575.68499998888],"keys_pressed":["leftarrow","leftarrow","leftarrow","rightarrow","leftarrow","rightarrow","rightarrow","rightarrow","leftarrow","rightarrow"],"horizon":10,"forced_choices":["leftarrow","leftarrow","leftarrow","rightarrow"],"right_color":"lightblue","left_color":"orange","left_mu":40,"right_mu":70,"left_numbers":[39,23,31,40,51,29,36,43,34,26],"right_numbers":[77,52,81,66,68,60,71,65,73,66],"points_earned":506,"phase":"task","trial_type":"horizons-task","trial_index":21,"time_elapsed":784170,"internal_node_id":"0.0-17.0","task_version":"0.2"},{"response_times":[746.8750000116415,297.8350000048522,911.805000010645,650.0499999965541,1949.655000003986],"keys_pressed":["rightarrow","leftarrow","leftarrow","leftarrow","leftarrow"],"horizon":5,"forced_choices":["rightarrow","leftarrow","leftarrow","leftarrow"],"right_color":"orange","left_color":"lightblue","left_mu":60,"right_mu":56,"left_numbers":[56,53,53,56,60],"right_numbers":[46,59,49,53,50],"points_earned":268,"phase":"task","trial_type":"horizons-task","trial_index":22,"time_elapsed":790230,"internal_node_id":"0.0-18.0","task_version":"0.2"},{"response_times":[1177.6600000157487,861.6150000016205,1550.2599999890663,583.6799999815412,1797.5050000241026],"keys_pressed":["rightarrow","rightarrow","leftarrow","leftarrow","rightarrow"],"horizon":5,"forced_choices":["rightarrow","rightarrow","leftarrow","leftarrow"],"right_color":"orange","left_color":"lightblue","left_mu":60,"right_mu":64,"left_numbers":[62,67,57,59,48],"right_numbers":[74,70,56,57,68],"points_earned":328,"phase":"task","trial_type":"horizons-task","trial_index":23,"time_elapsed":797704,"internal_node_id":"0.0-19.0","task_version":"0.2"},{"response_times":[1317.6999999850523,599.6250000025611,733.8850000232924,633.8949999772012,1602.0449999778066],"keys_pressed":["rightarrow","rightarrow","leftarrow","rightarrow","rightarrow"],"horizon":5,"forced_choices":["rightarrow","rightarrow","leftarrow","rightarrow"],"right_color":"orange","left_color":"lightblue","left_mu":60,"right_mu":90,"left_numbers":[55,50,74,45,65],"right_numbers":[100,99,98,92,104],"points_earned":469,"phase":"task","trial_type":"horizons-task","trial_index":24,"time_elapsed":804094,"internal_node_id":"0.0-20.0","task_version":"0.2"},{"response_times":[686.6900000022724,597.7849999908358,644.1850000119302,1069.9399999866728,807.394999981625],"keys_pressed":["rightarrow","rightarrow","rightarrow","leftarrow","rightarrow"],"horizon":5,"forced_choices":["rightarrow","rightarrow","rightarrow","leftarrow"],"right_color":"orange","left_color":"lightblue","left_mu":60,"right_mu":72,"left_numbers":[45,61,52,51,49],"right_numbers":[64,69,75,84,63],"points_earned":322,"phase":"task","trial_type":"horizons-task","trial_index":25,"time_elapsed":809404,"internal_node_id":"0.0-21.0","task_version":"0.2"},{"response_times":[676.7549999931362,465.2300000016112,434.43500000284985,609.3350000155624,1656.0500000196043],"keys_pressed":["leftarrow","rightarrow","leftarrow","leftarrow","leftarrow"],"horizon":5,"forced_choices":["leftarrow","rightarrow","leftarrow","leftarrow"],"right_color":"orange","left_color":"lightblue","left_mu":40,"right_mu":32,"left_numbers":[35,36,44,38,26],"right_numbers":[26,26,41,27,18],"points_earned":169,"phase":"task","trial_type":"horizons-task","trial_index":26,"time_elapsed":814749,"internal_node_id":"0.0-22.0","task_version":"0.2"},{"response_times":[682.3999999905936,305.74999999953434,635.840000002645,543.935000023339,325.829999987036,3059.689999994589,1187.610000022687,727.8900000092108,946.17000001017,1041.6350000014063],"keys_pressed":["leftarrow","rightarrow","rightarrow","rightarrow","leftarrow","leftarrow","leftarrow","leftarrow","leftarrow","leftarrow"],"horizon":10,"forced_choices":["leftarrow","rightarrow","rightarrow","rightarrow"],"right_color":"lightblue","left_color":"orange","left_mu":40,"right_mu":10,"left_numbers":[45,39,35,29,40,36,42,28,40,44],"right_numbers":[5,14,16,8,12,2,10,21,17,0],"points_earned":313,"phase":"task","trial_type":"horizons-task","trial_index":27,"time_elapsed":825710,"internal_node_id":"0.0-23.0","task_version":"0.2"},{"response_times":[675.4900000232738,667.9900000162888,505.6650000042282,828.6400000215508,1589.7600000025705],"keys_pressed":["leftarrow","leftarrow","rightarrow","leftarrow","leftarrow"],"horizon":5,"forced_choices":["leftarrow","leftarrow","rightarrow","leftarrow"],"right_color":"lightblue","left_color":"orange","left_mu":60,"right_mu":48,"left_numbers":[56,57,60,66,61],"right_numbers":[55,34,56,43,43],"points_earned":296,"phase":"task","trial_type":"horizons-task","trial_index":28,"time_elapsed":831480,"internal_node_id":"0.0-24.0","task_version":"0.2"},{"response_times":[685.0249999843072,333.9400000113528,598.0649999983143,501.77499998244457,3389.6499999973457],"keys_pressed":["leftarrow","rightarrow","rightarrow","leftarrow","leftarrow"],"horizon":5,"forced_choices":["leftarrow","rightarrow","rightarrow","leftarrow"],"right_color":"lightblue","left_color":"orange","left_mu":60,"right_mu":48,"left_numbers":[58,57,75,52,61],"right_numbers":[48,50,47,38,59],"points_earned":268,"phase":"task","trial_type":"horizons-task","trial_index":29,"time_elapsed":838492,"internal_node_id":"0.0-25.0","task_version":"0.2"},{"response_times":[629.704999999376,445.89500001166016,547.9300000006333,427.75000000256114,418.3049999992363,1805.5750000057742,1169.5750000071712,761.9499999855179,1633.8249999971595,1563.959999999497],"keys_pressed":["rightarrow","leftarrow","leftarrow","rightarrow","leftarrow","rightarrow","rightarrow","rightarrow","leftarrow","rightarrow"],"horizon":10,"forced_choices":["rightarrow","leftarrow","leftarrow","rightarrow"],"right_color":"lightblue","left_color":"orange","left_mu":40,"right_mu":60,"left_numbers":[32,36,54,57,36,44,50,45,45,38],"right_numbers":[65,37,55,63,28,38,56,57,61,70],"points_earned":520,"phase":"task","trial_type":"horizons-task","trial_index":30,"time_elapsed":849400,"internal_node_id":"0.0-26.0","task_version":"0.2"},{"response_times":[694.870000006631,445.46500002616085,406.01500001503155,1235.9050000086427,1395.7200000004377],"keys_pressed":["rightarrow","leftarrow","rightarrow","leftarrow","rightarrow"],"horizon":5,"forced_choices":["rightarrow","leftarrow","rightarrow","leftarrow"],"right_color":"orange","left_color":"lightblue","left_mu":60,"right_mu":72,"left_numbers":[55,55,61,42,60],"right_numbers":[70,72,65,63,65],"points_earned":297,"phase":"task","trial_type":"horizons-task","trial_index":31,"time_elapsed":855082,"internal_node_id":"0.0-27.0","task_version":"0.2"},{"response_times":[966.1999999952968,369.84500000835396,625.8799999777693,499.8349999950733,2214.6450000000186,1844.8450000141747,1363.984999974491,1189.3250000139233,1646.1299999791663,797.6550000021234],"keys_pressed":["leftarrow","rightarrow","rightarrow","leftarrow","leftarrow","leftarrow","leftarrow","leftarrow","leftarrow","leftarrow"],"horizon":10,"forced_choices":["leftarrow","rightarrow","rightarrow","leftarrow"],"right_color":"lightblue","left_color":"orange","left_mu":60,"right_mu":48,"left_numbers":[59,58,50,59,62,72,52,47,75,68],"right_numbers":[46,34,58,53,41,46,50,45,46,36],"points_earned":586,"phase":"task","trial_type":"horizons-task","trial_index":32,"time_elapsed":868104,"internal_node_id":"0.0-28.0","task_version":"0.2"},{"response_times":[872.7099999960046,628.0099999858066,435.9300000069197,471.8050000083167,1728.255000023637,651.1700000264682,1158.0850000027567,1115.7949999906123,586.1750000040047,489.4700000004377],"keys_pressed":["leftarrow","rightarrow","leftarrow","rightarrow","leftarrow","leftarrow","leftarrow","leftarrow","leftarrow","leftarrow"],"horizon":10,"forced_choices":["leftarrow","rightarrow","leftarrow","rightarrow"],"right_color":"orange","left_color":"lightblue","left_mu":40,"right_mu":20,"left_numbers":[37,49,46,50,54,20,43,35,48,34],"right_numbers":[17,16,9,17,15,29,16,4,18,14],"points_earned":350,"phase":"task","trial_type":"horizons-task","trial_index":33,"time_elapsed":877744,"internal_node_id":"0.0-29.0","task_version":"0.2"},{"response_times":[736.3550000009127,813.8200000103097,605.5000000051223,946.7099999892525,1707.0299999904819],"keys_pressed":["leftarrow","leftarrow","rightarrow","rightarrow","leftarrow"],"horizon":5,"forced_choices":["leftarrow","leftarrow","rightarrow","rightarrow"],"right_color":"orange","left_color":"lightblue","left_mu":60,"right_mu":30,"left_numbers":[63,73,52,62,70],"right_numbers":[39,35,18,24,33],"points_earned":248,"phase":"task","trial_type":"horizons-task","trial_index":34,"time_elapsed":884058,"internal_node_id":"0.0-30.0","task_version":"0.2"},{"response_times":[694.0549999999348,285.6599999940954,314.0500000154134,301.8449999799486,1841.9050000084098,529.8950000142213,2516.124999994645,413.70000000461005,417.47500002384186,492.23500001244247],"keys_pressed":["leftarrow","rightarrow","leftarrow","rightarrow","leftarrow","leftarrow","leftarrow","leftarrow","leftarrow","leftarrow"],"horizon":10,"forced_choices":["leftarrow","rightarrow","leftarrow","rightarrow"],"right_color":"lightblue","left_color":"orange","left_mu":40,"right_mu":10,"left_numbers":[30,47,42,33,36,29,49,34,44,56],"right_numbers":[0,20,12,4,11,6,10,13,1,13],"points_earned":344,"phase":"task","trial_type":"horizons-task","trial_index":35,"time_elapsed":893368,"internal_node_id":"0.0-31.0","task_version":"0.2"},{"response_times":[952.8550000104588,546.4349999965634,400.9950000036042,640.1849999965634,2007.805000001099],"keys_pressed":["rightarrow","rightarrow","rightarrow","leftarrow","rightarrow"],"horizon":5,"forced_choices":["rightarrow","rightarrow","rightarrow","leftarrow"],"right_color":"lightblue","left_color":"orange","left_mu":40,"right_mu":52,"left_numbers":[39,42,46,38,36],"right_numbers":[55,43,58,63,50],"points_earned":244,"phase":"task","trial_type":"horizons-task","trial_index":36,"time_elapsed":899420,"internal_node_id":"0.0-32.0","task_version":"0.2"},{"response_times":[646.8000000168104,266.105000016978,961.4950000250246,407.7849999885075,349.74000000511296,5229.575000004843,1237.6799999910872,1283.7750000180677,381.7999999737367,457.9599999997299],"keys_pressed":["leftarrow","rightarrow","rightarrow","leftarrow","rightarrow","leftarrow","leftarrow","leftarrow","leftarrow","leftarrow"],"horizon":10,"forced_choices":["leftarrow","rightarrow","rightarrow","leftarrow"],"right_color":"lightblue","left_color":"orange","left_mu":40,"right_mu":44,"left_numbers":[45,36,23,33,40,42,43,36,41,43],"right_numbers":[36,25,49,45,37,63,45,51,32,38],"points_earned":394,"phase":"task","trial_type":"horizons-task","trial_index":37,"time_elapsed":912146,"internal_node_id":"0.0-33.0","task_version":"0.2"},{"response_times":[614.3999999912921,513.6699999857228,524.0749999938998,531.7449999856763,2133.720000012545],"keys_pressed":["leftarrow","leftarrow","rightarrow","leftarrow","leftarrow"],"horizon":5,"forced_choices":["leftarrow","leftarrow","rightarrow","leftarrow"],"right_color":"orange","left_color":"lightblue","left_mu":40,"right_mu":28,"left_numbers":[31,42,37,36,46],"right_numbers":[31,12,32,13,10],"points_earned":187,"phase":"task","trial_type":"horizons-task","trial_index":38,"time_elapsed":917967,"internal_node_id":"0.0-34.0","task_version":"0.2"},{"response_times":[633.9049999951385,237.86500000278465,821.9049999897834,422.09000000730157,1192.0499999832828],"keys_pressed":["rightarrow","leftarrow","leftarrow","leftarrow","leftarrow"],"horizon":5,"forced_choices":["rightarrow","leftarrow","leftarrow","leftarrow"],"right_color":"lightblue","left_color":"orange","left_mu":60,"right_mu":80,"left_numbers":[43,65,54,69,62],"right_numbers":[82,65,82,85,89],"points_earned":332,"phase":"task","trial_type":"horizons-task","trial_index":39,"time_elapsed":922780,"internal_node_id":"0.0-35.0","task_version":"0.2"},{"response_times":[861.6749999928288,579.8399999912363,457.67000000341795,1265.9549999807496,1027.7749999950174],"keys_pressed":["leftarrow","leftarrow","leftarrow","rightarrow","rightarrow"],"horizon":5,"forced_choices":["leftarrow","leftarrow","leftarrow","rightarrow"],"right_color":"lightblue","left_color":"orange","left_mu":40,"right_mu":70,"left_numbers":[48,41,41,42,52],"right_numbers":[57,70,72,63,59],"points_earned":252,"phase":"task","trial_type":"horizons-task","trial_index":40,"time_elapsed":928476,"internal_node_id":"0.0-36.0","task_version":"0.2"},{"response_times":[1144.479999988107,749.8199999972712,412.03000000678,877.8199999942444,1023.9149999979418,6155.30499999295,925.6650000170339,1471.6199999966193,1475.9349999949336,817.6000000094064],"keys_pressed":["leftarrow","leftarrow","leftarrow","rightarrow","rightarrow","leftarrow","leftarrow","leftarrow","rightarrow","leftarrow"],"horizon":10,"forced_choices":["leftarrow","leftarrow","leftarrow","rightarrow"],"right_color":"orange","left_color":"lightblue","left_mu":60,"right_mu":64,"left_numbers":[66,56,53,74,73,61,57,56,52,44],"right_numbers":[62,64,64,83,60,65,77,69,60,56],"points_earned":596,"phase":"task","trial_type":"horizons-task","trial_index":41,"time_elapsed":945033,"internal_node_id":"0.0-37.0","task_version":"0.2"},{"response_times":[704.8999999824446,931.7849999933969,407.8049999952782,499.75000001722947,1758.3699999959208,4160.945000010543,649.7699999890756,1144.2800000077114,203.4799999964889,563.8250000192784],"keys_pressed":["rightarrow","rightarrow","rightarrow","leftarrow","rightarrow","rightarrow","rightarrow","rightarrow","rightarrow","rightarrow"],"horizon":10,"forced_choices":["rightarrow","rightarrow","rightarrow","leftarrow"],"right_color":"lightblue","left_color":"orange","left_mu":40,"right_mu":52,"left_numbers":[47,39,45,31,59,57,22,40,24,52],"right_numbers":[57,39,40,53,58,65,50,54,61,49],"points_earned":504,"phase":"task","trial_type":"horizons-task","trial_index":42,"time_elapsed":957572,"internal_node_id":"0.0-38.0","task_version":"0.2"},{"response_times":[688.7350000033621,553.9250000147149,497.815000009723,1003.7500000034925,2557.744999998249,2165.8149999857415,1055.5699999968056,761.8599999987055,1125.8950000046752,739.9100000038743],"keys_pressed":["rightarrow","rightarrow","leftarrow","leftarrow","leftarrow","rightarrow","rightarrow","leftarrow","leftarrow","leftarrow"],"horizon":10,"forced_choices":["rightarrow","rightarrow","leftarrow","leftarrow"],"right_color":"orange","left_color":"lightblue","left_mu":60,"right_mu":64,"left_numbers":[44,50,62,76,41,56,60,79,59,55],"right_numbers":[51,61,68,56,69,66,58,59,63,66],"points_earned":608,"phase":"task","trial_type":"horizons-task","trial_index":43,"time_elapsed":970226,"internal_node_id":"0.0-39.0","task_version":"0.2"},{"response_times":[661.1949999933131,233.63500001141801,264.44500000798143,285.55500000948086,1629.9099999887403,1863.6500000138767,1002.0150000054855,2911.805000010645,701.3650000153575,691.8500000028871],"keys_pressed":["rightarrow","leftarrow","rightarrow","leftarrow","rightarrow","rightarrow","rightarrow","rightarrow","rightarrow","rightarrow"],"horizon":10,"forced_choices":["rightarrow","leftarrow","rightarrow","leftarrow"],"right_color":"orange","left_color":"lightblue","left_mu":60,"right_mu":90,"left_numbers":[62,74,69,64,56,71,63,63,59,58],"right_numbers":[89,92,87,91,70,102,95,96,97,88],"points_earned":862,"phase":"task","trial_type":"horizons-task","trial_index":44,"time_elapsed":981975,"internal_node_id":"0.0-40.0","task_version":"0.2"},{"response_times":[670.540000020992,657.6250000216532,3927.3899999971036,2137.959999992745,2507.710000005318,1577.434999984689,3635.3850000014063,399.79999998467974,617.9950000077952,1170.605000021169],"keys_pressed":["rightarrow","leftarrow","leftarrow","rightarrow","rightarrow","leftarrow","leftarrow","leftarrow","rightarrow","leftarrow"],"horizon":10,"forced_choices":["rightarrow","leftarrow","leftarrow","rightarrow"],"right_color":"orange","left_color":"lightblue","left_mu":40,"right_mu":36,"left_numbers":[30,32,25,50,48,35,37,51,50,38],"right_numbers":[48,40,45,34,29,16,42,34,41,32],"points_earned":370,"phase":"task","trial_type":"horizons-task","trial_index":45,"time_elapsed":1000781,"internal_node_id":"0.0-41.0","task_version":"0.2"},{"response_times":[995.6600000150502,511.56499999342486,484.3200000177603,513.7650000106078,1488.0899999989197],"keys_pressed":["leftarrow","rightarrow","leftarrow","rightarrow","leftarrow"],"horizon":5,"forced_choices":["leftarrow","rightarrow","leftarrow","rightarrow"],"right_color":"lightblue","left_color":"orange","left_mu":40,"right_mu":10,"left_numbers":[55,43,47,34,28],"right_numbers":[23,13,33,9,7],"points_earned":152,"phase":"task","trial_type":"horizons-task","trial_index":46,"time_elapsed":1006278,"internal_node_id":"0.0-42.0","task_version":"0.2"},{"response_times":[716.1999999952968,563.7899999856018,517.9399999906309,551.7800000088755,1521.8599999789149,3017.5250000029337,446.1100000189617,2181.845000013709,443.394999980228,348.03500000271015],"keys_pressed":["leftarrow","leftarrow","rightarrow","leftarrow","rightarrow","rightarrow","rightarrow","leftarrow","leftarrow","leftarrow"],"horizon":10,"forced_choices":["leftarrow","leftarrow","rightarrow","leftarrow"],"right_color":"orange","left_color":"lightblue","left_mu":40,"right_mu":28,"left_numbers":[28,44,56,33,41,46,29,23,25,31],"right_numbers":[14,26,22,22,26,31,36,36,29,23],"points_earned":299,"phase":"task","trial_type":"horizons-task","trial_index":47,"time_elapsed":1018091,"internal_node_id":"0.0-43.0","task_version":"0.2"},{"response_times":[609.3999999866355,888.329999987036,25444.900000002235,381.06499999412335,326.5700000047218],"keys_pressed":["rightarrow","leftarrow","rightarrow","rightarrow","rightarrow"],"horizon":5,"forced_choices":["rightarrow","leftarrow","rightarrow","rightarrow"],"right_color":"lightblue","left_color":"orange","left_mu":40,"right_mu":60,"left_numbers":[36,38,31,52,37],"right_numbers":[65,48,58,63,61],"points_earned":285,"phase":"task","trial_type":"horizons-task","trial_index":48,"time_elapsed":1047245,"internal_node_id":"0.0-44.0","task_version":"0.2"},{"response_times":[795.8550000039395,400.0300000188872,856.1850000114646,761.144999996759,5814.064999984112],"keys_pressed":["leftarrow","rightarrow","rightarrow","rightarrow","leftarrow"],"horizon":5,"forced_choices":["leftarrow","rightarrow","rightarrow","rightarrow"],"right_color":"orange","left_color":"lightblue","left_mu":40,"right_mu":20,"left_numbers":[41,27,32,51,40],"right_numbers":[16,35,22,23,17],"points_earned":161,"phase":"task","trial_type":"horizons-task","trial_index":49,"time_elapsed":1057375,"internal_node_id":"0.0-45.0","task_version":"0.2"},{"response_times":[3706.869999994524,491.8199999956414,606.0949999955483,795.4350000072736,1812.1500000124797,925.6500000192318,611.8349999887869,1825.8000000205357,3827.385000011418,925.7050000014715],"keys_pressed":["leftarrow","rightarrow","leftarrow","leftarrow","rightarrow","rightarrow","rightarrow","rightarrow","leftarrow","rightarrow"],"horizon":10,"forced_choices":["leftarrow","rightarrow","leftarrow","leftarrow"],"right_color":"orange","left_color":"lightblue","left_mu":40,"right_mu":36,"left_numbers":[37,40,55,37,47,45,35,41,34,48],"right_numbers":[32,54,39,23,39,29,24,30,51,30],"points_earned":369,"phase":"task","trial_type":"horizons-task","trial_index":50,"time_elapsed":1074408,"internal_node_id":"0.0-46.0","task_version":"0.2"},{"view_history":"[{\"page_index\":0,\"viewing_time\":43017.61000000988},{\"page_index\":1,\"viewing_time\":1755.524999985937}]","rt":44773.71000000858,"trial_type":"instructions","trial_index":51,"time_elapsed":1119184,"internal_node_id":"0.0-47.0","task_version":"0.2"},{"response_times":[636.7650000029244,531.764999992447,462.16999998432584,261.78000000072643,2371.9400000118185],"keys_pressed":["leftarrow","leftarrow","rightarrow","leftarrow","leftarrow"],"horizon":5,"forced_choices":["leftarrow","leftarrow","rightarrow","leftarrow"],"right_color":"lightblue","left_color":"orange","left_mu":60,"right_mu":68,"left_numbers":[65,63,49,57,72],"right_numbers":[77,73,58,49,57],"points_earned":315,"phase":"task","trial_type":"horizons-task","trial_index":52,"time_elapsed":1124959,"internal_node_id":"0.0-48.0","task_version":"0.2"},{"response_times":[908.2350000098813,207.83999998820946,743.7349999963772,409.9700000078883,1205.8649999962654,1195.689999993192,376.2049999786541,389.57999998820014,414.1550000058487,383.704999985639],"keys_pressed":["leftarrow","rightarrow","rightarrow","rightarrow","leftarrow","leftarrow","leftarrow","leftarrow","leftarrow","leftarrow"],"horizon":10,"forced_choices":["leftarrow","rightarrow","rightarrow","rightarrow"],"right_color":"orange","left_color":"lightblue","left_mu":40,"right_mu":20,"left_numbers":[42,28,47,29,44,45,49,44,32,57],"right_numbers":[16,12,20,11,23,10,19,29,29,17],"points_earned":356,"phase":"task","trial_type":"horizons-task","trial_index":53,"time_elapsed":1132696,"internal_node_id":"0.0-49.0","task_version":"0.2"},{"response_times":[1887.0699999970384,291.84499999973923,341.81000001262873,574.0050000022165,1911.5799999854062],"keys_pressed":["rightarrow","leftarrow","rightarrow","rightarrow","rightarrow"],"horizon":5,"forced_choices":["rightarrow","leftarrow","rightarrow","rightarrow"],"right_color":"lightblue","left_color":"orange","left_mu":60,"right_mu":52,"left_numbers":[68,55,66,63,59],"right_numbers":[66,40,47,52,59],"points_earned":279,"phase":"task","trial_type":"horizons-task","trial_index":54,"time_elapsed":1139206,"internal_node_id":"0.0-50.0","task_version":"0.2"},{"response_times":[918.1899999966845,187.82500000088476,350.0200000125915,387.9849999793805,20964.549999975134,524.3849999969825,553.7799999874551,265.9900000144262,497.9049999965355,187.89500001003034],"keys_pressed":["leftarrow","rightarrow","leftarrow","rightarrow","rightarrow","rightarrow","rightarrow","rightarrow","rightarrow","rightarrow"],"horizon":10,"forced_choices":["leftarrow","rightarrow","leftarrow","rightarrow"],"right_color":"lightblue","left_color":"orange","left_mu":40,"right_mu":70,"left_numbers":[26,37,49,39,48,42,33,45,38,32],"right_numbers":[80,74,68,63,76,77,68,74,74,55],"points_earned":636,"phase":"task","trial_type":"horizons-task","trial_index":55,"time_elapsed":1165552,"internal_node_id":"0.0-51.0","task_version":"0.2"},{"response_times":[830.6999999913387,297.919999982696,547.9350000096019,459.87500000046566,74824.37500002561],"keys_pressed":["leftarrow","rightarrow","leftarrow","rightarrow","rightarrow"],"horizon":5,"forced_choices":["leftarrow","rightarrow","leftarrow","rightarrow"],"right_color":"orange","left_color":"lightblue","left_mu":40,"right_mu":28,"left_numbers":[37,34,23,39,44],"right_numbers":[40,23,32,38,23],"points_earned":144,"phase":"task","trial_type":"horizons-task","trial_index":56,"time_elapsed":1244016,"internal_node_id":"0.0-52.0","task_version":"0.2"},{"response_times":[536.4300000073854,222.2699999983888,647.4549999984447,440.1699999871198,1523.5300000058487],"keys_pressed":["leftarrow","rightarrow","rightarrow","rightarrow","rightarrow"],"horizon":5,"forced_choices":["leftarrow","rightarrow","rightarrow","rightarrow"],"right_color":"lightblue","left_color":"orange","left_mu":40,"right_mu":44,"left_numbers":[41,46,49,45,31],"right_numbers":[36,47,23,38,34],"points_earned":183,"phase":"task","trial_type":"horizons-task","trial_index":57,"time_elapsed":1248896,"internal_node_id":"0.0-53.0","task_version":"0.2"},{"response_times":[566.7100000136998,581.3450000132434,387.80499997665174,578.1300000089686,2000.2350000140723,977.3450000211596,469.6199999889359,784.8050000029616,311.02999998256564,577.9549999861047],"keys_pressed":["rightarrow","leftarrow","rightarrow","rightarrow","leftarrow","leftarrow","leftarrow","leftarrow","leftarrow","leftarrow"],"horizon":10,"forced_choices":["rightarrow","leftarrow","rightarrow","rightarrow"],"right_color":"lightblue","left_color":"orange","left_mu":60,"right_mu":52,"left_numbers":[63,59,45,56,49,43,58,60,61,62],"right_numbers":[58,47,55,57,50,55,47,56,46,43],"points_earned":562,"phase":"task","trial_type":"horizons-task","trial_index":58,"time_elapsed":1257634,"internal_node_id":"0.0-54.0","task_version":"0.2"},{"response_times":[1030.319999990752,244.10999999963678,199.6600000129547,597.7299999794923,443.9249999995809,1527.7400000195485,302.21500000334345,225.6000000052154,168.0849999829661,159.96499999891967],"keys_pressed":["leftarrow","rightarrow","leftarrow","leftarrow","leftarrow","leftarrow","leftarrow","leftarrow","leftarrow","leftarrow"],"horizon":10,"forced_choices":["leftarrow","rightarrow","leftarrow","leftarrow"],"right_color":"orange","left_color":"lightblue","left_mu":40,"right_mu":32,"left_numbers":[42,46,30,49,51,35,42,32,35,44],"right_numbers":[32,26,20,27,27,37,24,35,29,32],"points_earned":386,"phase":"task","trial_type":"horizons-task","trial_index":59,"time_elapsed":1264038,"internal_node_id":"0.0-55.0","task_version":"0.2"},{"response_times":[599.5799999800511,261.91000000108033,295.81499999039806,1955.774999980349,545.8349999971688],"keys_pressed":["rightarrow","leftarrow","rightarrow","leftarrow","rightarrow"],"horizon":5,"forced_choices":["rightarrow","leftarrow","rightarrow","leftarrow"],"right_color":"orange","left_color":"lightblue","left_mu":60,"right_mu":90,"left_numbers":[65,49,69,70,61],"right_numbers":[81,91,94,95,78],"points_earned":372,"phase":"task","trial_type":"horizons-task","trial_index":60,"time_elapsed":1269211,"internal_node_id":"0.0-56.0","task_version":"0.2"},{"response_times":[18669.24500002642,202.6049999985844,297.86500000045635,480.16000000643544,1195.7950000069104],"keys_pressed":["leftarrow","rightarrow","leftarrow","rightarrow","rightarrow"],"horizon":5,"forced_choices":["leftarrow","rightarrow","leftarrow","rightarrow"],"right_color":"lightblue","left_color":"orange","left_mu":40,"right_mu":70,"left_numbers":[52,42,43,33,42],"right_numbers":[62,72,76,86,79],"points_earned":332,"phase":"task","trial_type":"horizons-task","trial_index":61,"time_elapsed":1291560,"internal_node_id":"0.0-57.0","task_version":"0.2"},{"response_times":[113788.48499999731,289.9350000079721,629.7499999927823,549.6299999940675,1702.0849999971688,607.819999975618,389.67000000411645,210.69000000716187,155.05000000121072,605.9849999728613],"keys_pressed":["rightarrow","leftarrow","leftarrow","rightarrow","leftarrow","leftarrow","leftarrow","leftarrow","leftarrow","leftarrow"],"horizon":10,"forced_choices":["rightarrow","leftarrow","leftarrow","rightarrow"],"right_color":"orange","left_color":"lightblue","left_mu":60,"right_mu":56,"left_numbers":[55,71,63,50,70,60,57,55,48,57],"right_numbers":[66,68,41,57,71,59,63,59,66,51],"points_earned":604,"phase":"task","trial_type":"horizons-task","trial_index":62,"time_elapsed":1411993,"internal_node_id":"0.0-58.0","task_version":"0.2"},{"response_times":[1129.8100000130944,570.2150000142865,421.5649999969173,409.86500002327375,1090.1300000259653,567.6600000006147,485.71999999694526,525.9699999878649,433.95000000600703,547.9549999872688],"keys_pressed":["rightarrow","rightarrow","leftarrow","rightarrow","rightarrow","rightarrow","rightarrow","rightarrow","rightarrow","rightarrow"],"horizon":10,"forced_choices":["rightarrow","rightarrow","leftarrow","rightarrow"],"right_color":"orange","left_color":"lightblue","left_mu":60,"right_mu":90,"left_numbers":[60,48,49,45,63,54,68,54,57,71],"right_numbers":[81,88,97,99,80,82,85,94,97,98],"points_earned":853,"phase":"task","trial_type":"horizons-task","trial_index":63,"time_elapsed":1419681,"internal_node_id":"0.0-59.0","task_version":"0.2"},{"response_times":[593.9500000094995,227.89000000921078,625.6850000063423,499.9600000155624,913.5700000042561],"keys_pressed":["leftarrow","rightarrow","rightarrow","leftarrow","rightarrow"],"horizon":5,"forced_choices":["leftarrow","rightarrow","rightarrow","leftarrow"],"right_color":"lightblue","left_color":"orange","left_mu":40,"right_mu":52,"left_numbers":[35,49,30,35,40],"right_numbers":[45,62,61,45,48],"points_earned":241,"phase":"task","trial_type":"horizons-task","trial_index":64,"time_elapsed":1424046,"internal_node_id":"0.0-60.0","task_version":"0.2"},{"response_times":[529.6050000179093,173.92500001005828,225.73999999440275,550.4999999830034,1057.3699999949895],"keys_pressed":["leftarrow","rightarrow","leftarrow","leftarrow","rightarrow"],"horizon":5,"forced_choices":["leftarrow","rightarrow","leftarrow","leftarrow"],"right_color":"orange","left_color":"lightblue","left_mu":40,"right_mu":36,"left_numbers":[30,30,57,26,48],"right_numbers":[24,40,31,40,36],"points_earned":189,"phase":"task","trial_type":"horizons-task","trial_index":65,"time_elapsed":1428087,"internal_node_id":"0.0-61.0","task_version":"0.2"},{"response_times":[746.9299999938812,547.7449999889359,548.5349999798927,653.5549999971408,23991.840000002412,494.84500000835396,557.5299999909475,353.86500001186505,214.64500000001863,175.28999998467043],"keys_pressed":["leftarrow","leftarrow","rightarrow","rightarrow","rightarrow","rightarrow","rightarrow","rightarrow","rightarrow","rightarrow"],"horizon":10,"forced_choices":["leftarrow","leftarrow","rightarrow","rightarrow"],"right_color":"lightblue","left_color":"orange","left_mu":60,"right_mu":80,"left_numbers":[63,62,60,56,40,66,57,55,56,49],"right_numbers":[77,94,84,93,70,78,71,75,90,76],"points_earned":762,"phase":"task","trial_type":"horizons-task","trial_index":66,"time_elapsed":1457875,"internal_node_id":"0.0-62.0","task_version":"0.2"},{"response_times":[7607.994999998482,485.6500000169035,514.1200000070967,317.6499999826774,2265.625],"keys_pressed":["rightarrow","rightarrow","leftarrow","rightarrow","leftarrow"],"horizon":5,"forced_choices":["rightarrow","rightarrow","leftarrow","rightarrow"],"right_color":"lightblue","left_color":"orange","left_mu":60,"right_mu":40,"left_numbers":[64,52,63,54,72],"right_numbers":[38,51,37,45,53],"points_earned":269,"phase":"task","trial_type":"horizons-task","trial_index":67,"time_elapsed":1470570,"internal_node_id":"0.0-63.0","task_version":"0.2"},{"response_times":[3674.09499999485,239.75499998778105,243.9650000014808,510.19000000087544,1703.960000013467,493.58000000938773,303.7999999942258,180.06499999319203,162.3400000098627,187.63999998918734],"keys_pressed":["leftarrow","rightarrow","leftarrow","rightarrow","leftarrow","leftarrow","leftarrow","leftarrow","leftarrow","leftarrow"],"horizon":10,"forced_choices":["leftarrow","rightarrow","leftarrow","rightarrow"],"right_color":"orange","left_color":"lightblue","left_mu":40,"right_mu":28,"left_numbers":[27,39,58,41,34,38,36,31,49,38],"right_numbers":[17,20,33,25,44,28,33,20,34,34],"points_earned":356,"phase":"task","trial_type":"horizons-task","trial_index":68,"time_elapsed":1479773,"internal_node_id":"0.0-64.0","task_version":"0.2"},{"response_times":[7020.565000013448,151.41500000027008,262.46500000706874,451.4199999975972,871.6300000087358],"keys_pressed":["leftarrow","rightarrow","rightarrow","rightarrow","leftarrow"],"horizon":5,"forced_choices":["leftarrow","rightarrow","rightarrow","rightarrow"],"right_color":"lightblue","left_color":"orange","left_mu":40,"right_mu":10,"left_numbers":[46,42,37,46,23],"right_numbers":[12,4,0,6,7],"points_earned":79,"phase":"task","trial_type":"horizons-task","trial_index":69,"time_elapsed":1490033,"internal_node_id":"0.0-65.0","task_version":"0.2"},{"response_times":[5538.539999979548,217.44000000762753,599.5199999888428,408.064999995986,1853.9699999964796,459.63499997742474,202.04000000376254,157.8049999952782,124.12999998196028,428.30000002868474],"keys_pressed":["rightarrow","leftarrow","leftarrow","leftarrow","rightarrow","rightarrow","rightarrow","rightarrow","rightarrow","rightarrow"],"horizon":10,"forced_choices":["rightarrow","leftarrow","leftarrow","leftarrow"],"right_color":"lightblue","left_color":"orange","left_mu":60,"right_mu":80,"left_numbers":[66,55,58,62,72,65,62,62,62,66],"right_numbers":[72,81,77,83,73,86,80,76,86,95],"points_earned":743,"phase":"task","trial_type":"horizons-task","trial_index":70,"time_elapsed":1501526,"internal_node_id":"0.0-66.0","task_version":"0.2"},{"response_times":[95960.83500000532,450.0500000140164,313.88499998138286,2041.9099999999162,1041.5349999966566,354.03000001679175,185.80999999539927,179.9250000040047,163.91000000294298,156.0649999883026],"keys_pressed":["rightarrow","rightarrow","rightarrow","leftarrow","rightarrow","rightarrow","rightarrow","rightarrow","rightarrow","rightarrow"],"horizon":10,"forced_choices":["rightarrow","rightarrow","rightarrow","leftarrow"],"right_color":"orange","left_color":"lightblue","left_mu":60,"right_mu":72,"left_numbers":[75,66,44,52,56,57,61,63,61,59],"right_numbers":[87,63,70,73,72,74,55,73,81,74],"points_earned":701,"phase":"task","trial_type":"horizons-task","trial_index":71,"time_elapsed":1603880,"internal_node_id":"0.0-67.0","task_version":"0.2"},{"response_times":[592.7399999927729,557.8800000075717,411.9850000133738,409.7100000071805,1163.765000004787,726.1449999932665,209.79500000248663,174.20499998843297,183.7050000031013,743.7250000075437],"keys_pressed":["rightarrow","rightarrow","leftarrow","rightarrow","leftarrow","leftarrow","leftarrow","leftarrow","leftarrow","leftarrow"],"horizon":10,"forced_choices":["rightarrow","rightarrow","leftarrow","rightarrow"],"right_color":"lightblue","left_color":"orange","left_mu":60,"right_mu":40,"left_numbers":[67,60,74,56,49,54,54,44,63,58],"right_numbers":[41,36,45,35,51,41,42,39,44,42],"points_earned":508,"phase":"task","trial_type":"horizons-task","trial_index":72,"time_elapsed":1610557,"internal_node_id":"0.0-68.0","task_version":"0.2"},{"response_times":[3131.2699999834877,557.7099999936763,393.770000024233,374.10499999532476,1162.8649999911431,159.0250000008382,151.8649999925401,161.8799999996554,184.06500000855885,192.02999997651204],"keys_pressed":["leftarrow","leftarrow","rightarrow","leftarrow","rightarrow","rightarrow","rightarrow","rightarrow","rightarrow","rightarrow"],"horizon":10,"forced_choices":["leftarrow","leftarrow","rightarrow","leftarrow"],"right_color":"lightblue","left_color":"orange","left_mu":60,"right_mu":68,"left_numbers":[55,54,66,56,54,67,55,60,70,56],"right_numbers":[56,69,74,68,64,64,55,63,85,72],"points_earned":642,"phase":"task","trial_type":"horizons-task","trial_index":73,"time_elapsed":1618529,"internal_node_id":"0.0-69.0","task_version":"0.2"},{"response_times":[5209.790000022622,160.91999999480322,560.6099999858998,319.8350000020582,1447.8200000012293],"keys_pressed":["rightarrow","leftarrow","leftarrow","rightarrow","rightarrow"],"horizon":5,"forced_choices":["rightarrow","leftarrow","leftarrow","rightarrow"],"right_color":"orange","left_color":"lightblue","left_mu":40,"right_mu":36,"left_numbers":[48,38,36,44,31],"right_numbers":[40,21,34,38,35],"points_earned":187,"phase":"task","trial_type":"horizons-task","trial_index":74,"time_elapsed":1627731,"internal_node_id":"0.0-70.0","task_version":"0.2"},{"response_times":[5738.134999992326,191.61499998881482,573.9999999932479,499.92000000202097,1143.8550000020768],"keys_pressed":["rightarrow","leftarrow","leftarrow","rightarrow","rightarrow"],"horizon":5,"forced_choices":["rightarrow","leftarrow","leftarrow","rightarrow"],"right_color":"orange","left_color":"lightblue","left_mu":60,"right_mu":56,"left_numbers":[58,60,66,53,53],"right_numbers":[48,48,61,59,56],"points_earned":289,"phase":"task","trial_type":"horizons-task","trial_index":75,"time_elapsed":1637383,"internal_node_id":"0.0-71.0","task_version":"0.2"},{"response_times":[721.8200000061188,441.8349999759812,456.1049999902025,881.5799999865703,1071.8899999919813],"keys_pressed":["rightarrow","rightarrow","leftarrow","leftarrow","leftarrow"],"horizon":5,"forced_choices":["rightarrow","rightarrow","leftarrow","leftarrow"],"right_color":"lightblue","left_color":"orange","left_mu":60,"right_mu":52,"left_numbers":[63,51,50,57,48],"right_numbers":[40,44,57,47,47],"points_earned":239,"phase":"task","trial_type":"horizons-task","trial_index":76,"time_elapsed":1642474,"internal_node_id":"0.0-72.0","task_version":"0.2"},{"response_times":[31637.6899999741,486.3300000142772,533.7900000158697,593.8100000203121,2140.0849999918137,567.4749999889173,178.10499999905005,167.8400000091642,163.90499999397434,174.14999997708946],"keys_pressed":["leftarrow","leftarrow","rightarrow","rightarrow","leftarrow","leftarrow","leftarrow","leftarrow","leftarrow","leftarrow"],"horizon":10,"forced_choices":["leftarrow","leftarrow","rightarrow","rightarrow"],"right_color":"orange","left_color":"lightblue","left_mu":60,"right_mu":30,"left_numbers":[64,55,64,64,62,65,54,35,59,55],"right_numbers":[24,41,20,42,30,30,37,38,23,31],"points_earned":511,"phase":"task","trial_type":"horizons-task","trial_index":77,"time_elapsed":1680621,"internal_node_id":"0.0-73.0","task_version":"0.2"},{"response_times":[1333.4599999943748,327.8799999970943,507.8300000168383,628.5100000095554,1061.8949999916367,357.35000000568107,175.84000001079403,169.9899999948684,164.03499999432825,183.8199999765493],"keys_pressed":["rightarrow","leftarrow","leftarrow","leftarrow","rightarrow","rightarrow","rightarrow","rightarrow","rightarrow","rightarrow"],"horizon":10,"forced_choices":["rightarrow","leftarrow","leftarrow","leftarrow"],"right_color":"orange","left_color":"lightblue","left_mu":40,"right_mu":48,"left_numbers":[43,27,44,56,40,40,42,42,30,43],"right_numbers":[55,54,47,55,37,53,51,44,54,38],"points_earned":459,"phase":"task","trial_type":"horizons-task","trial_index":78,"time_elapsed":1687034,"internal_node_id":"0.0-74.0","task_version":"0.2"},{"response_times":[820.5650000018068,234.06499999691732,293.78999999607913,1975.7050000189338,1627.9900000081398,183.75499997637235,193.95000001532026,187.84500000765547,175.87999999523163,174.47499997797422],"keys_pressed":["rightarrow","leftarrow","rightarrow","leftarrow","rightarrow","rightarrow","rightarrow","rightarrow","rightarrow","rightarrow"],"horizon":10,"forced_choices":["rightarrow","leftarrow","rightarrow","leftarrow"],"right_color":"lightblue","left_color":"orange","left_mu":60,"right_mu":68,"left_numbers":[52,64,59,66,66,48,51,65,55,66],"right_numbers":[65,73,66,74,70,70,74,70,72,63],"points_earned":680,"phase":"task","trial_type":"horizons-task","trial_index":79,"time_elapsed":1694408,"internal_node_id":"0.0-75.0","task_version":"0.2"},{"response_times":[17079.49999999255,258.1850000133272,232.0000000181608,308.36500000441447,877.4300000222865],"keys_pressed":["leftarrow","rightarrow","leftarrow","rightarrow","leftarrow"],"horizon":5,"forced_choices":["leftarrow","rightarrow","leftarrow","rightarrow"],"right_color":"orange","left_color":"lightblue","left_mu":40,"right_mu":20,"left_numbers":[31,36,32,27,52],"right_numbers":[34,26,14,5,14],"points_earned":146,"phase":"task","trial_type":"horizons-task","trial_index":80,"time_elapsed":1714667,"internal_node_id":"0.0-76.0","task_version":"0.2"},{"response_times":[2000.480000016978,471.81499999715015,797.9050000139978,425.9299999976065,1269.9250000005122],"keys_pressed":["leftarrow","leftarrow","rightarrow","rightarrow","rightarrow"],"horizon":5,"forced_choices":["leftarrow","leftarrow","rightarrow","rightarrow"],"right_color":"lightblue","left_color":"orange","left_mu":60,"right_mu":80,"left_numbers":[54,72,68,49,63],"right_numbers":[95,86,84,71,70],"points_earned":351,"phase":"task","trial_type":"horizons-task","trial_index":81,"time_elapsed":1721137,"internal_node_id":"0.0-77.0","task_version":"0.2"},{"response_times":[6185.300000011921,309.5350000075996,561.7799999890849,403.96500000497326,1295.8400000061374,300.4949999740347,207.26499997545034,184.03499998385087,190.08500000927597,171.80999999982305],"keys_pressed":["rightarrow","leftarrow","leftarrow","rightarrow","leftarrow","leftarrow","leftarrow","leftarrow","leftarrow","leftarrow"],"horizon":10,"forced_choices":["rightarrow","leftarrow","leftarrow","rightarrow"],"right_color":"lightblue","left_color":"orange","left_mu":60,"right_mu":40,"left_numbers":[42,59,60,57,51,65,59,49,57,54],"right_numbers":[36,40,40,30,54,39,40,29,47,38],"points_earned":520,"phase":"task","trial_type":"horizons-task","trial_index":82,"time_elapsed":1732451,"internal_node_id":"0.0-78.0","task_version":"0.2"},{"response_times":[3620.179999998072,409.5149999775458,543.8750000030268,522.0450000197161,1933.5549999959767,43994.83000001055,267.13500000187196,175.77500001061708,156.31500000017695,153.68499999749474],"keys_pressed":["leftarrow","rightarrow","rightarrow","rightarrow","leftarrow","leftarrow","leftarrow","leftarrow","leftarrow","leftarrow"],"horizon":10,"forced_choices":["leftarrow","rightarrow","rightarrow","rightarrow"],"right_color":"lightblue","left_color":"orange","left_mu":40,"right_mu":44,"left_numbers":[53,40,38,54,24,39,54,40,35,46],"right_numbers":[30,32,47,36,47,43,37,37,37,40],"points_earned":406,"phase":"task","trial_type":"horizons-task","trial_index":83,"time_elapsed":1785733,"internal_node_id":"0.0-79.0","task_version":"0.2"},{"response_times":[611.8000000133179,513.8949999818578,415.7349999877624,448.4649999940302,1247.2650000127032],"keys_pressed":["rightarrow","rightarrow","leftarrow","leftarrow","leftarrow"],"horizon":5,"forced_choices":["rightarrow","rightarrow","leftarrow","leftarrow"],"right_color":"orange","left_color":"lightblue","left_mu":40,"right_mu":48,"left_numbers":[44,42,46,60,34],"right_numbers":[33,60,42,57,38],"points_earned":233,"phase":"task","trial_type":"horizons-task","trial_index":84,"time_elapsed":1790474,"internal_node_id":"0.0-80.0","task_version":"0.2"},{"response_times":[700.0849999894854,523.8650000246707,519.815000006929,483.90999998082407,12903.250000003027,218.80000000237487,397.9350000154227,176.130000007106,163.75999999581836,155.96999999252148],"keys_pressed":["leftarrow","leftarrow","rightarrow","rightarrow","leftarrow","leftarrow","leftarrow","leftarrow","leftarrow","leftarrow"],"horizon":10,"forced_choices":["leftarrow","leftarrow","rightarrow","rightarrow"],"right_color":"orange","left_color":"lightblue","left_mu":40,"right_mu":32,"left_numbers":[61,34,47,44,34,45,35,33,43,66],"right_numbers":[29,33,49,21,19,30,19,26,20,32],"points_earned":421,"phase":"task","trial_type":"horizons-task","trial_index":85,"time_elapsed":1808221,"internal_node_id":"0.0-81.0","task_version":"0.2"},{"response_times":[9668.485000001965,333.32000000518747,763.9699999999721,649.9049999983981,505.7200000155717],"keys_pressed":["rightarrow","rightarrow","leftarrow","rightarrow","leftarrow"],"horizon":5,"forced_choices":["rightarrow","rightarrow","leftarrow","rightarrow"],"right_color":"orange","left_color":"lightblue","left_mu":60,"right_mu":30,"left_numbers":[60,59,62,63,65],"right_numbers":[23,31,30,19,31],"points_earned":200,"phase":"task","trial_type":"horizons-task","trial_index":86,"time_elapsed":1821645,"internal_node_id":"0.0-82.0","task_version":"0.2"},{"response_times":[664.1999999992549,571.8399999896064,421.90000001573935,1035.9950000129174,555.6150000193156],"keys_pressed":["leftarrow","leftarrow","leftarrow","rightarrow","leftarrow"],"horizon":5,"forced_choices":["leftarrow","leftarrow","leftarrow","rightarrow"],"right_color":"orange","left_color":"lightblue","left_mu":60,"right_mu":64,"left_numbers":[64,55,74,64,50],"right_numbers":[61,63,74,73,61],"points_earned":316,"phase":"task","trial_type":"horizons-task","trial_index":87,"time_elapsed":1826399,"internal_node_id":"0.0-83.0","task_version":"0.2"},{"response_times":[88933.41000002692,288.7800000025891,567.8450000123121,1247.7950000029523,340.22499999264255],"keys_pressed":["leftarrow","rightarrow","rightarrow","leftarrow","rightarrow"],"horizon":5,"forced_choices":["leftarrow","rightarrow","rightarrow","leftarrow"],"right_color":"lightblue","left_color":"orange","left_mu":40,"right_mu":44,"left_numbers":[28,25,34,43,34],"right_numbers":[31,43,46,35,37],"points_earned":197,"phase":"task","trial_type":"horizons-task","trial_index":88,"time_elapsed":1919280,"internal_node_id":"0.0-84.0","task_version":"0.2"},{"response_times":[3024.0950000006706,65614.65499998303,790.6099999963772,877.489999984391,20166.505000001052,608.6850000137929,398.2049999758601,323.80000001285225,245.75000000186265,265.85500000510365],"keys_pressed":["rightarrow","leftarrow","rightarrow","leftarrow","rightarrow","rightarrow","rightarrow","rightarrow","rightarrow","rightarrow"],"horizon":10,"forced_choices":["rightarrow","leftarrow","rightarrow","leftarrow"],"right_color":"orange","left_color":"lightblue","left_mu":60,"right_mu":72,"left_numbers":[59,61,60,54,59,63,59,48,56,66],"right_numbers":[76,58,83,63,74,70,69,62,77,77],"points_earned":703,"phase":"task","trial_type":"horizons-task","trial_index":89,"time_elapsed":2013112,"internal_node_id":"0.0-85.0","task_version":"0.2"},{"response_times":[599.9949999968521,406.05999997933395,587.6749999879394,597.7750000020023,1883.8549999927636,571.7099999892525,481.90499999327585,245.98999999579974,183.92499999026768,172.3000000056345],"keys_pressed":["rightarrow","rightarrow","leftarrow","leftarrow","leftarrow","leftarrow","leftarrow","leftarrow","leftarrow","leftarrow"],"horizon":10,"forced_choices":["rightarrow","rightarrow","leftarrow","leftarrow"],"right_color":"lightblue","left_color":"orange","left_mu":60,"right_mu":52,"left_numbers":[53,59,49,53,40,66,60,59,55,46],"right_numbers":[48,45,59,43,40,47,41,54,44,55],"points_earned":521,"phase":"task","trial_type":"horizons-task","trial_index":90,"time_elapsed":2020348,"internal_node_id":"0.0-86.0","task_version":"0.2"},{"response_times":[1157.8100000042468,193.98999999975786,559.7199999901932,293.8600000052247,1094.0100000007078],"keys_pressed":["rightarrow","leftarrow","leftarrow","rightarrow","leftarrow"],"horizon":5,"forced_choices":["rightarrow","leftarrow","leftarrow","rightarrow"],"right_color":"lightblue","left_color":"orange","left_mu":60,"right_mu":40,"left_numbers":[58,74,70,62,60],"right_numbers":[24,37,35,45,43],"points_earned":273,"phase":"task","trial_type":"horizons-task","trial_index":91,"time_elapsed":2025150,"internal_node_id":"0.0-87.0","task_version":"0.2"},{"rt":14408.079999993788,"responses":{"age":"25","gender-categorical":"Male","gender-free-response":"","ethnicity":"Not Hispanic or Latino","race":["Asian"],"language":"Yes","fluency":"Very well"},"survey":"demographics","trial_type":"survey-demo","trial_index":92,"time_elapsed":2039581,"internal_node_id":"0.0-88.0","task_version":"0.2"},{"rt":22883.735000010347,"responses":{"difficulty":"3","fun":"4","clarity":"4","strategy":"look at the trending numbers","feedback":"It was fun"},"survey":"debrief","trial_type":"survey-debrief","trial_index":93,"time_elapsed":2062473,"internal_node_id":"0.0-89.0","task_version":"0.2","interactions":"[{\"event\":\"blur\",\"trial\":89,\"time\":1926064},{\"event\":\"focus\",\"trial\":89,\"time\":1953359},{\"event\":\"blur\",\"trial\":89,\"time\":1953990},{\"event\":\"focus\",\"trial\":89,\"time\":1956799}]"}]