[{"view_history":"[{\"page_index\":0,\"viewing_time\":2383.814999833703}]","rt":2384.254999924451,"trial_type":"instructions","trial_index":0,"time_elapsed":2397,"internal_node_id":"0.0-0.0","task_version":"0.2"},{"item_order":[8,10,1,11,6,0,3,5,9,7,2,12,4],"responses":{"Q09":"0","Q11":"3","Q02":"2","Q12":"1","Q07":"1","Q01":"0","Q04":"1","Q06":"0","Q10":"1","Q08":"2","Q03":"1","Q13":"4","Q05":"1"},"radio_events":[7779.660000000149,12363.274999894202,17106.91999993287,21990.784999914467,28510.66999998875,33223.22499984875,38457.32499985024,40791.65999987163,50667.0649999287,56614.79999986477,61946.379999862984,66461.84999984689,70648.19999993779,77810.74499990791],"key_events":[],"mouse_events":[0.11499994434416294,7779.660000000149,12363.274999894202,17106.91999993287,21990.784999914467,27213.724999921396,28510.66999998875,33223.22499984875,38457.32499985024,39706.95499982685,40791.65999987163,49388.69499997236,50667.0649999287,54782.51999989152,56614.79999986477,61946.379999862984,66461.84999984689,70648.19999993779,77810.74499990791,116882.54999998026],"rt":116884.97499981895,"survey":"ius12","trial_type":"survey-template","trial_index":1,"time_elapsed":119287,"internal_node_id":"0.0-1.0","task_version":"0.2"},{"item_order":[10,2,16,1,13,4,8,0,15,3,12,7,9,6,5,14,11],"responses":{"Q11":"2","Q03":"2","Q17":"0","Q02":"1","Q14":"2","Q05":"2","Q09":"1","Q01":"3","Q16":"2","Q04":"2","Q13":"2","Q08":"3","Q10":"3","Q07":"2","Q06":"2","Q15":"1","Q12":"1"},"radio_events":[23826.91500009969,29618.770000059158,35047.53499990329,38461.46499994211,42495.72500004433,81700.26000007056,86430.04500004463,96970.2699999325,102163.40499999933,111266.24500006437,115621.54500000179,121482.6100000646,127239.03999989852,131676.41499987803,135568.4599999804,138162.07499988377,139874.9700000044],"key_events":[],"mouse_events":[22522.10499998182,23826.91500009969,29618.770000059158,35047.53499990329,38461.46499994211,40467.11499989033,42495.72500004433,81700.26000007056,86430.04500004463,95348.50499988534,96970.2699999325,102163.40499999933,111266.24500006437,115621.54500000179,121482.6100000646,125878.53999994695,127239.03999989852,131676.41499987803,135568.4599999804,138162.07499988377,139874.9700000044,141573.4550000634],"rt":141576.29500003532,"survey":"pswq","trial_type":"survey-template","trial_index":2,"time_elapsed":260871,"internal_node_id":"0.0-2.0","task_version":"0.2"},{"item_order":[8,1,6,9,4,10,14,7,11,2,15,12,5,0,3,13],"responses":{"Q09":"2","Q02":"0","Q07":"4","Q10":"2","Q05":"2","Q11":"0","Q15":"0","Q08":"3","Q12":"3","Q03":"3","Q16":"5","Q13":"2","Q06":"1","Q01":"1","Q04":"1","Q14":"1"},"radio_events":[12846.935000037774,20542.184999911115,27280.009999871254,33127.14500003494,40949.65000008233,46308.26999992132,49595.20999994129,57346.13499999978,67439.69499995,73484.93000003509,75690.36999996752,83018.35999987088,85765.40499995463,93771.44999988377,110840.87499999441,120589.41999985836],"key_events":[],"mouse_events":[12846.935000037774,20542.184999911115,27280.009999871254,33127.14500003494,39747.96499987133,40949.65000008233,46308.26999992132,48467.78000006452,49595.20999994129,57346.13499999978,67439.69499995,73484.93000003509,75690.36999996752,81460.80000000075,83018.35999987088,85765.40499995463,93771.44999988377,110840.87499999441,120589.41999985836,123083.37499992922],"rt":123086.43999998458,"survey":"nfc","trial_type":"survey-template","trial_index":3,"time_elapsed":383966,"internal_node_id":"0.0-3.0","task_version":"0.2"},{"view_history":"[{\"page_index\":0,\"viewing_time\":4075.7050001993775},{\"page_index\":1,\"viewing_time\":8214.299999875948},{\"page_index\":2,\"viewing_time\":10447.910000104457},{\"page_index\":3,\"viewing_time\":12439.189999829978},{\"page_index\":4,\"viewing_time\":9107.23500000313},{\"page_index\":5,\"viewing_time\":6808.015000075102},{\"page_index\":6,\"viewing_time\":7427.889999933541},{\"page_index\":7,\"viewing_time\":12916.505000088364},{\"page_index\":8,\"viewing_time\":9266.924999887124},{\"page_index\":9,\"viewing_time\":9237.584999995306}]","rt":89941.5900001768,"trial_type":"instructions","trial_index":4,"time_elapsed":473913,"internal_node_id":"0.0-4.0-0.0","task_version":"0.2"},{"response_times":[831.6150000318885,744.5149999111891,505.3499999921769,704.6049998607486,17884.97000001371],"keys_pressed":["rightarrow","leftarrow","rightarrow","rightarrow","leftarrow"],"horizon":5,"forced_choices":["rightarrow","leftarrow","rightarrow","rightarrow"],"right_color":"lightblue","left_color":"orange","left_mu":40,"right_mu":20,"left_numbers":[42,37,35,37,41],"right_numbers":[8,28,9,12,20],"points_earned":107,"phase":"practice","trial_type":"horizons-task","trial_index":5,"time_elapsed":496094,"internal_node_id":"0.0-4.0-1.0","task_version":"0.2"},{"response_times":[1481.4800000749528,685.0799999665469,659.9300000816584,614.6749998442829,3524.564999854192,2424.044999992475,1334.2399999964982,3484.1250001918525,594.8949998710304,1189.6949999500066],"keys_pressed":["leftarrow","leftarrow","rightarrow","rightarrow","rightarrow","rightarrow","rightarrow","rightarrow","rightarrow","rightarrow"],"horizon":10,"forced_choices":["leftarrow","leftarrow","rightarrow","rightarrow"],"right_color":"orange","left_color":"lightblue","left_mu":60,"right_mu":70,"left_numbers":[61,63,50,56,62,66,65,68,61,63],"right_numbers":[76,67,66,72,61,78,74,71,80,62],"points_earned":688,"phase":"practice","trial_type":"horizons-task","trial_index":6,"time_elapsed":513589,"internal_node_id":"0.0-4.0-2.0","task_version":"0.2"},{"view_history":"[{\"page_index\":0,\"viewing_time\":2481.7699999548495},{\"page_index\":1,\"viewing_time\":3419.950000010431},{\"page_index\":2,\"viewing_time\":6228.060000110418},{\"page_index\":3,\"viewing_time\":6787.084999959916}]","rt":18917.06999996677,"trial_type":"instructions","trial_index":7,"time_elapsed":532507,"internal_node_id":"0.0-4.0-3.0","task_version":"0.2"},{"responses":["true","false","true"],"num_errors":0,"rt":14306.794999865815,"trial_type":"horizons-comprehension","trial_index":8,"time_elapsed":546816,"internal_node_id":"0.0-4.0-4.0","task_version":"0.2"},{"trial_type":"call-function","trial_index":9,"time_elapsed":546823,"internal_node_id":"0.0-5.0","task_version":"0.2"},{"view_history":"[{\"page_index\":0,\"viewing_time\":2301.7750000581145},{\"page_index\":1,\"viewing_time\":6468.970000045374}]","rt":8770.9399999585,"trial_type":"instructions","trial_index":10,"time_elapsed":555594,"internal_node_id":"0.0-6.0","task_version":"0.2"},{"response_times":[797.224999871105,425.3400000743568,476.05499997735023,488.0300001241267,2059.614999918267,1104.7699998598546,3748.9100000821054,870.0800000224262,854.5150000136346,1044.315000064671],"keys_pressed":["leftarrow","rightarrow","rightarrow","rightarrow","rightarrow","rightarrow","rightarrow","rightarrow","rightarrow","rightarrow"],"horizon":10,"forced_choices":["leftarrow","rightarrow","rightarrow","rightarrow"],"right_color":"lightblue","left_color":"orange","left_mu":60,"right_mu":68,"left_numbers":[59,51,63,66,59,48,51,52,51,60],"right_numbers":[66,72,62,74,70,57,60,57,65,75],"points_earned":651,"phase":"task","trial_type":"horizons-task","trial_index":11,"time_elapsed":568971,"internal_node_id":"0.0-7.0","task_version":"0.2"},{"response_times":[762.7199999988079,564.5950001198798,590.4899998567998,664.7950001060963,21247.124999994412,565.3099999763072,664.6050000563264,1933.8500001467764,590.5400000046939,534.2349999118596],"keys_pressed":["leftarrow","leftarrow","rightarrow","rightarrow","rightarrow","rightarrow","rightarrow","rightarrow","rightarrow","rightarrow"],"horizon":10,"forced_choices":["leftarrow","leftarrow","rightarrow","rightarrow"],"right_color":"lightblue","left_color":"orange","left_mu":40,"right_mu":52,"left_numbers":[35,40,45,47,34,41,35,52,52,43],"right_numbers":[50,46,49,46,51,52,54,55,69,44],"points_earned":495,"phase":"task","trial_type":"horizons-task","trial_index":12,"time_elapsed":598592,"internal_node_id":"0.0-8.0","task_version":"0.2"},{"response_times":[861.6650002077222,514.5399998873472,515.625,723.0150001123548,15479.234999977052,1305.4649999830872,1419.5700001437217,1824.0149999037385,1030.3400000557303,879.285000031814],"keys_pressed":["rightarrow","rightarrow","rightarrow","leftarrow","leftarrow","leftarrow","rightarrow","leftarrow","leftarrow","leftarrow"],"horizon":10,"forced_choices":["rightarrow","rightarrow","rightarrow","leftarrow"],"right_color":"orange","left_color":"lightblue","left_mu":60,"right_mu":40,"left_numbers":[47,60,63,60,71,53,64,58,64,63],"right_numbers":[31,52,45,41,37,39,44,36,54,46],"points_earned":541,"phase":"task","trial_type":"horizons-task","trial_index":13,"time_elapsed":624648,"internal_node_id":"0.0-9.0","task_version":"0.2"},{"response_times":[930.9999998658895,590.0600000750273,555.2949998527765,639.5600000396371,13712.485000025481],"keys_pressed":["rightarrow","rightarrow","rightarrow","leftarrow","leftarrow"],"horizon":5,"forced_choices":["rightarrow","rightarrow","rightarrow","leftarrow"],"right_color":"orange","left_color":"lightblue","left_mu":60,"right_mu":40,"left_numbers":[63,62,50,43,75],"right_numbers":[18,51,34,48,23],"points_earned":221,"phase":"task","trial_type":"horizons-task","trial_index":14,"time_elapsed":642578,"internal_node_id":"0.0-10.0","task_version":"0.2"},{"response_times":[872.7150000631809,434.6150001510978,624.9450000468642,495.1349999755621,17870.17000000924,932.9500000458211,1181.3400001265109,1558.1499999389052,639.740000013262,530.775000108406],"keys_pressed":["leftarrow","rightarrow","leftarrow","rightarrow","rightarrow","leftarrow","rightarrow","leftarrow","rightarrow","rightarrow"],"horizon":10,"forced_choices":["leftarrow","rightarrow","leftarrow","rightarrow"],"right_color":"orange","left_color":"lightblue","left_mu":40,"right_mu":44,"left_numbers":[38,28,42,43,45,42,34,35,36,39],"right_numbers":[39,34,46,52,49,58,65,43,61,27],"points_earned":445,"phase":"task","trial_type":"horizons-task","trial_index":15,"time_elapsed":669221,"internal_node_id":"0.0-11.0","task_version":"0.2"},{"response_times":[776.3350000604987,515.224999981001,621.8249998055398,637.8600001335144,1709.5299998763949],"keys_pressed":["leftarrow","rightarrow","rightarrow","leftarrow","rightarrow"],"horizon":5,"forced_choices":["leftarrow","rightarrow","rightarrow","leftarrow"],"right_color":"orange","left_color":"lightblue","left_mu":40,"right_mu":60,"left_numbers":[49,32,34,37,36],"right_numbers":[50,56,65,51,61],"points_earned":268,"phase":"task","trial_type":"horizons-task","trial_index":16,"time_elapsed":674985,"internal_node_id":"0.0-12.0","task_version":"0.2"},{"response_times":[710.9099999070168,437.66999989748,597.4150002002716,740.5650001019239,1839.655000017956,1048.5450001433492,3529.945000074804,1149.364999961108,750.2099999692291,1014.3000001553446],"keys_pressed":["rightarrow","leftarrow","rightarrow","leftarrow","rightarrow","leftarrow","rightarrow","leftarrow","rightarrow","leftarrow"],"horizon":10,"forced_choices":["rightarrow","leftarrow","rightarrow","leftarrow"],"right_color":"orange","left_color":"lightblue","left_mu":40,"right_mu":36,"left_numbers":[37,27,39,30,31,51,56,40,45,44],"right_numbers":[48,26,42,27,33,30,45,41,38,42],"points_earned":398,"phase":"task","trial_type":"horizons-task","trial_index":17,"time_elapsed":688306,"internal_node_id":"0.0-13.0","task_version":"0.2"},{"response_times":[662.1700001414865,654.7000000718981,904.3600000441074,589.8549999110401,2039.989999961108,824.4849999900907,539.4950001500547,569.8100000154227,385.0050000473857,434.5850001554936],"keys_pressed":["rightarrow","leftarrow","leftarrow","leftarrow","leftarrow","rightarrow","leftarrow","leftarrow","leftarrow","leftarrow"],"horizon":10,"forced_choices":["rightarrow","leftarrow","leftarrow","leftarrow"],"right_color":"lightblue","left_color":"orange","left_mu":40,"right_mu":10,"left_numbers":[54,33,52,39,31,44,47,36,31,43],"right_numbers":[2,9,3,2,20,12,4,5,17,12],"points_earned":326,"phase":"task","trial_type":"horizons-task","trial_index":18,"time_elapsed":697413,"internal_node_id":"0.0-14.0","task_version":"0.2"},{"response_times":[612.894999794662,425.14499998651445,649.4249999523163,540.2000001631677,2588.814999908209],"keys_pressed":["rightarrow","leftarrow","leftarrow","leftarrow","leftarrow"],"horizon":5,"forced_choices":["rightarrow","leftarrow","leftarrow","leftarrow"],"right_color":"orange","left_color":"lightblue","left_mu":60,"right_mu":80,"left_numbers":[70,61,60,67,54],"right_numbers":[84,75,86,77,83],"points_earned":326,"phase":"task","trial_type":"horizons-task","trial_index":19,"time_elapsed":703732,"internal_node_id":"0.0-15.0","task_version":"0.2"},{"response_times":[671.254999935627,430.53500005044043,513.7949998024851,1019.7349998634309,3768.6000000685453,800.5349999293685,1388.8600000645965,630.0850000698119,854.6549999155104,599.370000185445],"keys_pressed":["leftarrow","rightarrow","leftarrow","leftarrow","leftarrow","rightarrow","rightarrow","rightarrow","rightarrow","rightarrow"],"horizon":10,"forced_choices":["leftarrow","rightarrow","leftarrow","leftarrow"],"right_color":"lightblue","left_color":"orange","left_mu":40,"right_mu":52,"left_numbers":[48,50,31,42,45,57,60,41,35,51],"right_numbers":[68,56,60,55,40,45,50,42,53,65],"points_earned":477,"phase":"task","trial_type":"horizons-task","trial_index":20,"time_elapsed":715912,"internal_node_id":"0.0-16.0","task_version":"0.2"},{"response_times":[782.2499999310821,519.730000058189,634.4500000122935,670.2049998566508,1929.5449999626726],"keys_pressed":["leftarrow","leftarrow","rightarrow","leftarrow","leftarrow"],"horizon":5,"forced_choices":["leftarrow","leftarrow","rightarrow","leftarrow"],"right_color":"orange","left_color":"lightblue","left_mu":40,"right_mu":36,"left_numbers":[38,50,36,40,28],"right_numbers":[43,38,44,28,25],"points_earned":200,"phase":"task","trial_type":"horizons-task","trial_index":21,"time_elapsed":721950,"internal_node_id":"0.0-17.0","task_version":"0.2"},{"response_times":[820.3050000593066,486.95999989286065,1284.074999857694,644.7550000157207,2384.0900000650436],"keys_pressed":["rightarrow","leftarrow","leftarrow","leftarrow","leftarrow"],"horizon":5,"forced_choices":["rightarrow","leftarrow","leftarrow","leftarrow"],"right_color":"lightblue","left_color":"orange","left_mu":60,"right_mu":30,"left_numbers":[63,68,57,53,46],"right_numbers":[20,37,37,21,22],"points_earned":244,"phase":"task","trial_type":"horizons-task","trial_index":22,"time_elapsed":729073,"internal_node_id":"0.0-18.0","task_version":"0.2"},{"response_times":[611.6649999748915,499.91500005126,610.0250000599772,574.8599998187274,1984.1599999926984,1094.2550001200289,1004.7349999658763,895.1950001064688,694.029999896884,689.2500000540167],"keys_pressed":["rightarrow","leftarrow","leftarrow","rightarrow","rightarrow","leftarrow","leftarrow","leftarrow","rightarrow","leftarrow"],"horizon":10,"forced_choices":["rightarrow","leftarrow","leftarrow","rightarrow"],"right_color":"lightblue","left_color":"orange","left_mu":60,"right_mu":56,"left_numbers":[61,53,54,50,61,67,55,67,57,54],"right_numbers":[68,46,40,52,52,50,62,59,48,46],"points_earned":570,"phase":"task","trial_type":"horizons-task","trial_index":23,"time_elapsed":739234,"internal_node_id":"0.0-19.0","task_version":"0.2"},{"response_times":[619.0299999434501,483.9050001464784,599.709999980405,794.4650000426918,1214.3449999857694],"keys_pressed":["leftarrow","leftarrow","rightarrow","leftarrow","leftarrow"],"horizon":5,"forced_choices":["leftarrow","leftarrow","rightarrow","leftarrow"],"right_color":"orange","left_color":"lightblue","left_mu":60,"right_mu":48,"left_numbers":[55,53,51,71,71],"right_numbers":[58,42,46,37,39],"points_earned":296,"phase":"task","trial_type":"horizons-task","trial_index":24,"time_elapsed":744447,"internal_node_id":"0.0-20.0","task_version":"0.2"},{"response_times":[628.4149999264628,415.1850000489503,759.190000128001,615.1449999306351,3179.1950000915676,673.4599999617785,760.1250000298023,434.5850001554936,870.4349999316037,529.8049999400973],"keys_pressed":["rightarrow","leftarrow","leftarrow","rightarrow","leftarrow","rightarrow","rightarrow","rightarrow","leftarrow","rightarrow"],"horizon":10,"forced_choices":["rightarrow","leftarrow","leftarrow","rightarrow"],"right_color":"lightblue","left_color":"orange","left_mu":60,"right_mu":64,"left_numbers":[67,67,59,53,51,65,59,57,46,56],"right_numbers":[56,62,62,59,66,62,66,59,60,73],"points_earned":598,"phase":"task","trial_type":"horizons-task","trial_index":25,"time_elapsed":754815,"internal_node_id":"0.0-21.0","task_version":"0.2"},{"response_times":[707.0150000508875,684.8599999211729,530.1149999722838,504.5450001489371,1444.8100000154227],"keys_pressed":["rightarrow","rightarrow","rightarrow","leftarrow","rightarrow"],"horizon":5,"forced_choices":["rightarrow","rightarrow","rightarrow","leftarrow"],"right_color":"lightblue","left_color":"orange","left_mu":60,"right_mu":90,"left_numbers":[52,71,69,62,76],"right_numbers":[91,83,81,95,84],"points_earned":401,"phase":"task","trial_type":"horizons-task","trial_index":26,"time_elapsed":760188,"internal_node_id":"0.0-22.0","task_version":"0.2"},{"response_times":[636.8849999271333,414.8750000167638,633.8949999772012,1120.8550001028925,1649.7600001748651,2984.070000005886,749.3499999400228,774.4800001382828,853.3199999947101,721.3900000788271],"keys_pressed":["leftarrow","rightarrow","rightarrow","rightarrow","rightarrow","leftarrow","rightarrow","leftarrow","leftarrow","rightarrow"],"horizon":10,"forced_choices":["leftarrow","rightarrow","rightarrow","rightarrow"],"right_color":"orange","left_color":"lightblue","left_mu":40,"right_mu":48,"left_numbers":[48,37,38,42,47,40,43,57,30,48],"right_numbers":[42,40,39,53,50,44,39,29,40,37],"points_earned":433,"phase":"task","trial_type":"horizons-task","trial_index":27,"time_elapsed":772229,"internal_node_id":"0.0-23.0","task_version":"0.2"},{"response_times":[637.3549997806549,353.0350001528859,371.37000006623566,450.48000011593103,1504.4799998868257],"keys_pressed":["leftarrow","rightarrow","leftarrow","rightarrow","leftarrow"],"horizon":5,"forced_choices":["leftarrow","rightarrow","leftarrow","rightarrow"],"right_color":"orange","left_color":"lightblue","left_mu":40,"right_mu":44,"left_numbers":[55,43,39,30,54],"right_numbers":[57,48,49,39,34],"points_earned":235,"phase":"task","trial_type":"horizons-task","trial_index":28,"time_elapsed":777049,"internal_node_id":"0.0-24.0","task_version":"0.2"},{"response_times":[966.4950000587851,409.1399998869747,979.5599998906255,1075.1050000544637,1834.5899998676032,1509.2599999625236,560.0649998523295,614.6049997769296,434.9899999797344,394.6100000757724],"keys_pressed":["leftarrow","rightarrow","rightarrow","leftarrow","rightarrow","leftarrow","rightarrow","rightarrow","rightarrow","rightarrow"],"horizon":10,"forced_choices":["leftarrow","rightarrow","rightarrow","leftarrow"],"right_color":"orange","left_color":"lightblue","left_mu":40,"right_mu":60,"left_numbers":[43,35,40,53,30,32,36,22,34,53],"right_numbers":[73,54,69,54,56,54,61,71,73,65],"points_earned":577,"phase":"task","trial_type":"horizons-task","trial_index":29,"time_elapsed":787331,"internal_node_id":"0.0-25.0","task_version":"0.2"},{"response_times":[601.5600000973791,371.37999990954995,538.304999936372,688.6700000613928,991.2449999246746],"keys_pressed":["leftarrow","rightarrow","rightarrow","rightarrow","rightarrow"],"horizon":5,"forced_choices":["leftarrow","rightarrow","rightarrow","rightarrow"],"right_color":"lightblue","left_color":"orange","left_mu":60,"right_mu":68,"left_numbers":[61,55,42,71,56],"right_numbers":[72,73,68,70,61],"points_earned":333,"phase":"task","trial_type":"horizons-task","trial_index":30,"time_elapsed":792024,"internal_node_id":"0.0-26.0","task_version":"0.2"},{"response_times":[716.9599998742342,593.129999935627,471.6700001154095,584.6649999730289,1539.409999968484],"keys_pressed":["rightarrow","leftarrow","rightarrow","leftarrow","leftarrow"],"horizon":5,"forced_choices":["rightarrow","leftarrow","rightarrow","leftarrow"],"right_color":"orange","left_color":"lightblue","left_mu":40,"right_mu":20,"left_numbers":[34,34,35,47,34],"right_numbers":[13,18,10,30,33],"points_earned":138,"phase":"task","trial_type":"horizons-task","trial_index":31,"time_elapsed":797432,"internal_node_id":"0.0-27.0","task_version":"0.2"},{"response_times":[731.6049998626113,440.35000004805624,1124.250000109896,695.1500000432134,1588.854999979958,950.6149999797344,1673.6300000920892,1255.0599998794496,1449.1799999959767,570.2150000724941],"keys_pressed":["rightarrow","leftarrow","leftarrow","rightarrow","rightarrow","rightarrow","leftarrow","rightarrow","rightarrow","rightarrow"],"horizon":10,"forced_choices":["rightarrow","leftarrow","leftarrow","rightarrow"],"right_color":"orange","left_color":"lightblue","left_mu":60,"right_mu":80,"left_numbers":[65,61,61,51,60,45,61,66,65,65],"right_numbers":[74,84,95,73,95,69,73,74,69,68],"points_earned":705,"phase":"task","trial_type":"horizons-task","trial_index":32,"time_elapsed":809413,"internal_node_id":"0.0-28.0","task_version":"0.2"},{"response_times":[707.8299999702722,519.6350000333041,524.7199998702854,445.40000008419156,1694.1550001502037],"keys_pressed":["rightarrow","rightarrow","leftarrow","rightarrow","rightarrow"],"horizon":5,"forced_choices":["rightarrow","rightarrow","leftarrow","rightarrow"],"right_color":"orange","left_color":"lightblue","left_mu":40,"right_mu":44,"left_numbers":[39,40,35,36,38],"right_numbers":[38,51,56,42,42],"points_earned":208,"phase":"task","trial_type":"horizons-task","trial_index":33,"time_elapsed":814806,"internal_node_id":"0.0-29.0","task_version":"0.2"},{"response_times":[696.8950000591576,474.5600000023842,475.3149999305606,490.3299999423325,588.6049999389797,2494.590000016615,570.2049999963492,959.2699999921024,449.8749999329448,494.68000000342727],"keys_pressed":["rightarrow","leftarrow","rightarrow","leftarrow","rightarrow","leftarrow","leftarrow","leftarrow","rightarrow","leftarrow"],"horizon":10,"forced_choices":["rightarrow","leftarrow","rightarrow","leftarrow"],"right_color":"orange","left_color":"lightblue","left_mu":60,"right_mu":40,"left_numbers":[67,49,59,63,49,71,51,61,56,47],"right_numbers":[29,58,53,26,39,38,47,42,37,32],"points_earned":500,"phase":"task","trial_type":"horizons-task","trial_index":34,"time_elapsed":824005,"internal_node_id":"0.0-30.0","task_version":"0.2"},{"response_times":[801.6899998765439,419.39000017009676,844.8749999515712,504.905000096187,1174.3850000202656],"keys_pressed":["leftarrow","rightarrow","leftarrow","leftarrow","leftarrow"],"horizon":5,"forced_choices":["leftarrow","rightarrow","leftarrow","leftarrow"],"right_color":"orange","left_color":"lightblue","left_mu":40,"right_mu":20,"left_numbers":[37,32,48,49,44],"right_numbers":[22,33,17,7,18],"points_earned":211,"phase":"task","trial_type":"horizons-task","trial_index":35,"time_elapsed":829253,"internal_node_id":"0.0-31.0","task_version":"0.2"},{"response_times":[661.2799998838454,414.7349998820573,735.4449999984354,554.1350001003593,1714.6499999798834,833.2700000610203,646.184999961406,668.3199999388307,1965.5150000471622,768.889999948442],"keys_pressed":["leftarrow","rightarrow","rightarrow","leftarrow","leftarrow","rightarrow","leftarrow","leftarrow","rightarrow","leftarrow"],"horizon":10,"forced_choices":["leftarrow","rightarrow","rightarrow","leftarrow"],"right_color":"lightblue","left_color":"orange","left_mu":40,"right_mu":32,"left_numbers":[51,28,30,34,51,48,18,48,51,29],"right_numbers":[24,22,41,29,26,35,12,38,34,36],"points_earned":363,"phase":"task","trial_type":"horizons-task","trial_index":36,"time_elapsed":839717,"internal_node_id":"0.0-32.0","task_version":"0.2"},{"response_times":[648.530000122264,394.9049999937415,714.149999897927,475.0600000843406,2399.070000043139,100.0550000462681,844.8349998798221,365.1399998925626,319.215000141412,315.14499988406897],"keys_pressed":["rightarrow","leftarrow","leftarrow","rightarrow","rightarrow","rightarrow","rightarrow","rightarrow","rightarrow","rightarrow"],"horizon":10,"forced_choices":["rightarrow","leftarrow","leftarrow","rightarrow"],"right_color":"lightblue","left_color":"orange","left_mu":60,"right_mu":90,"left_numbers":[66,58,61,74,67,66,51,55,61,59],"right_numbers":[98,69,84,94,98,87,77,85,84,86],"points_earned":828,"phase":"task","trial_type":"horizons-task","trial_index":37,"time_elapsed":847796,"internal_node_id":"0.0-33.0","task_version":"0.2"},{"response_times":[721.5400000568479,489.82000001706183,500.3349999897182,485.1549998857081,1894.0300000831485,499.1600001230836,610.0349999032915,374.5550001040101,365.3899999335408,374.6050000190735],"keys_pressed":["leftarrow","leftarrow","rightarrow","leftarrow","leftarrow","leftarrow","leftarrow","leftarrow","leftarrow","leftarrow"],"horizon":10,"forced_choices":["leftarrow","leftarrow","rightarrow","leftarrow"],"right_color":"lightblue","left_color":"orange","left_mu":60,"right_mu":52,"left_numbers":[78,56,51,66,74,50,67,59,50,77],"right_numbers":[51,33,52,41,61,57,54,55,53,52],"points_earned":629,"phase":"task","trial_type":"horizons-task","trial_index":38,"time_elapsed":855613,"internal_node_id":"0.0-34.0","task_version":"0.2"},{"response_times":[732.249999884516,479.4949998613447,415.3750000987202,541.4749998599291,4269.155000103638],"keys_pressed":["leftarrow","leftarrow","leftarrow","rightarrow","rightarrow"],"horizon":5,"forced_choices":["leftarrow","leftarrow","leftarrow","rightarrow"],"right_color":"orange","left_color":"lightblue","left_mu":40,"right_mu":60,"left_numbers":[39,33,54,42,41],"right_numbers":[47,69,67,67,73],"points_earned":266,"phase":"task","trial_type":"horizons-task","trial_index":39,"time_elapsed":863554,"internal_node_id":"0.0-35.0","task_version":"0.2"},{"response_times":[670.7649999298155,475.0950001180172,524.7849998995662,749.695000005886,2109.4699997920543,699.4799999520183,1804.4050000607967,520.1150001958013,450.06499998271465,424.68499997630715],"keys_pressed":["rightarrow","rightarrow","leftarrow","leftarrow","leftarrow","leftarrow","rightarrow","leftarrow","leftarrow","leftarrow"],"horizon":10,"forced_choices":["rightarrow","rightarrow","leftarrow","leftarrow"],"right_color":"lightblue","left_color":"orange","left_mu":60,"right_mu":52,"left_numbers":[56,67,64,70,61,59,63,63,58,48],"right_numbers":[50,43,65,56,62,39,35,66,57,43],"points_earned":551,"phase":"task","trial_type":"horizons-task","trial_index":40,"time_elapsed":873485,"internal_node_id":"0.0-36.0","task_version":"0.2"},{"response_times":[25981.45499988459,679.6549998689443,419.4799999240786,585.4150000959635,3786.659999983385,680.6900000665337,780.0199999473989,429.44999993778765,550.4450001753867,374.4999999180436],"keys_pressed":["rightarrow","leftarrow","rightarrow","rightarrow","rightarrow","leftarrow","leftarrow","leftarrow","leftarrow","leftarrow"],"horizon":10,"forced_choices":["rightarrow","leftarrow","rightarrow","rightarrow"],"right_color":"lightblue","left_color":"orange","left_mu":60,"right_mu":56,"left_numbers":[66,57,54,67,83,56,58,68,54,58],"right_numbers":[47,53,47,53,48,71,61,72,46,63],"points_earned":546,"phase":"task","trial_type":"horizons-task","trial_index":41,"time_elapsed":909256,"internal_node_id":"0.0-37.0","task_version":"0.2"},{"response_times":[686.8200001772493,439.7849999368191,519.7199999820441,439.93999995291233,864.3450001254678],"keys_pressed":["rightarrow","rightarrow","leftarrow","rightarrow","rightarrow"],"horizon":5,"forced_choices":["rightarrow","rightarrow","leftarrow","rightarrow"],"right_color":"orange","left_color":"lightblue","left_mu":40,"right_mu":70,"left_numbers":[51,36,25,38,39],"right_numbers":[76,57,68,81,67],"points_earned":306,"phase":"task","trial_type":"horizons-task","trial_index":42,"time_elapsed":913708,"internal_node_id":"0.0-38.0","task_version":"0.2"},{"response_times":[722.8050001431257,415.2999999932945,484.51499990187585,994.2450001835823,2074.185000034049],"keys_pressed":["leftarrow","leftarrow","rightarrow","rightarrow","rightarrow"],"horizon":5,"forced_choices":["leftarrow","leftarrow","rightarrow","rightarrow"],"right_color":"orange","left_color":"lightblue","left_mu":40,"right_mu":48,"left_numbers":[44,39,55,46,35],"right_numbers":[52,52,43,61,46],"points_earned":233,"phase":"task","trial_type":"horizons-task","trial_index":43,"time_elapsed":919902,"internal_node_id":"0.0-39.0","task_version":"0.2"},{"response_times":[612.5849999953061,409.7800001036376,529.209999833256,430.495000211522,874.5899999048561],"keys_pressed":["rightarrow","leftarrow","leftarrow","rightarrow","rightarrow"],"horizon":5,"forced_choices":["rightarrow","leftarrow","leftarrow","rightarrow"],"right_color":"lightblue","left_color":"orange","left_mu":60,"right_mu":64,"left_numbers":[54,51,62,55,78],"right_numbers":[66,64,74,72,54],"points_earned":305,"phase":"task","trial_type":"horizons-task","trial_index":44,"time_elapsed":924261,"internal_node_id":"0.0-40.0","task_version":"0.2"},{"response_times":[754.7200000844896,556.5649999771267,614.5999999716878,409.47500010952353,2593.709999928251,1045.2399998903275,1165.6150000635535,1183.6349999066442,1661.0449999570847,1792.8599999286234],"keys_pressed":["rightarrow","rightarrow","leftarrow","rightarrow","leftarrow","rightarrow","leftarrow","rightarrow","leftarrow","leftarrow"],"horizon":10,"forced_choices":["rightarrow","rightarrow","leftarrow","rightarrow"],"right_color":"orange","left_color":"lightblue","left_mu":40,"right_mu":28,"left_numbers":[47,42,39,55,52,52,36,42,48,27],"right_numbers":[34,13,31,27,24,19,43,24,43,28],"points_earned":319,"phase":"task","trial_type":"horizons-task","trial_index":45,"time_elapsed":937542,"internal_node_id":"0.0-41.0","task_version":"0.2"},{"response_times":[871.5349999256432,400.069999974221,459.74499988369644,434.71499998122454,6218.249999918044],"keys_pressed":["leftarrow","rightarrow","leftarrow","rightarrow","rightarrow"],"horizon":5,"forced_choices":["leftarrow","rightarrow","leftarrow","rightarrow"],"right_color":"lightblue","left_color":"orange","left_mu":60,"right_mu":72,"left_numbers":[65,52,74,61,61],"right_numbers":[77,82,80,69,79],"points_earned":369,"phase":"task","trial_type":"horizons-task","trial_index":46,"time_elapsed":947428,"internal_node_id":"0.0-42.0","task_version":"0.2"},{"response_times":[687.0399999897927,364.9549998808652,395.3150000888854,414.77999999187887,1303.855000063777,850.1749997958541,679.7749998513609,290.4000000562519,319.48999990709126,334.5200000330806],"keys_pressed":["leftarrow","rightarrow","leftarrow","rightarrow","leftarrow","rightarrow","leftarrow","leftarrow","leftarrow","leftarrow"],"horizon":10,"forced_choices":["leftarrow","rightarrow","leftarrow","rightarrow"],"right_color":"lightblue","left_color":"orange","left_mu":60,"right_mu":30,"left_numbers":[36,57,54,50,55,60,60,50,55,59],"right_numbers":[36,23,39,22,45,39,33,27,30,38],"points_earned":453,"phase":"task","trial_type":"horizons-task","trial_index":47,"time_elapsed":954570,"internal_node_id":"0.0-43.0","task_version":"0.2"},{"response_times":[597.3100000992417,400.4249998833984,694.7399999480695,390.140000032261,849.5750001166016],"keys_pressed":["rightarrow","leftarrow","leftarrow","rightarrow","rightarrow"],"horizon":5,"forced_choices":["rightarrow","leftarrow","leftarrow","rightarrow"],"right_color":"lightblue","left_color":"orange","left_mu":60,"right_mu":90,"left_numbers":[55,60,52,76,65],"right_numbers":[94,89,82,94,88],"points_earned":388,"phase":"task","trial_type":"horizons-task","trial_index":48,"time_elapsed":959005,"internal_node_id":"0.0-44.0","task_version":"0.2"},{"response_times":[792.1400000341237,370.2549999579787,634.6950000151992,535.0300001446158,2058.7750000413507],"keys_pressed":["leftarrow","rightarrow","rightarrow","leftarrow","rightarrow"],"horizon":5,"forced_choices":["leftarrow","rightarrow","rightarrow","leftarrow"],"right_color":"orange","left_color":"lightblue","left_mu":40,"right_mu":70,"left_numbers":[44,30,12,36,36],"right_numbers":[90,83,65,78,67],"points_earned":295,"phase":"task","trial_type":"horizons-task","trial_index":49,"time_elapsed":964897,"internal_node_id":"0.0-45.0","task_version":"0.2"},{"response_times":[2402.5200000032783,369.41999988630414,570.405000122264,529.2550001759082,1716.7100000660866],"keys_pressed":["rightarrow","leftarrow","leftarrow","leftarrow","leftarrow"],"horizon":5,"forced_choices":["rightarrow","leftarrow","leftarrow","leftarrow"],"right_color":"lightblue","left_color":"orange","left_mu":40,"right_mu":10,"left_numbers":[39,39,33,37,35],"right_numbers":[10,12,17,10,0],"points_earned":154,"phase":"task","trial_type":"horizons-task","trial_index":50,"time_elapsed":971989,"internal_node_id":"0.0-46.0","task_version":"0.2"},{"view_history":"[{\"page_index\":0,\"viewing_time\":9581.769999815151},{\"page_index\":1,\"viewing_time\":2368.6300001572818}]","rt":11950.740000000224,"trial_type":"instructions","trial_index":51,"time_elapsed":983940,"internal_node_id":"0.0-47.0","task_version":"0.2"},{"response_times":[704.1599999647588,369.30999998003244,376.0049999691546,389.6800000220537,1209.4149999320507],"keys_pressed":["leftarrow","rightarrow","leftarrow","rightarrow","leftarrow"],"horizon":5,"forced_choices":["leftarrow","rightarrow","leftarrow","rightarrow"],"right_color":"lightblue","left_color":"orange","left_mu":60,"right_mu":30,"left_numbers":[65,63,52,58,58],"right_numbers":[29,25,19,24,34],"points_earned":224,"phase":"task","trial_type":"horizons-task","trial_index":52,"time_elapsed":988495,"internal_node_id":"0.0-48.0","task_version":"0.2"},{"response_times":[642.1449999324977,384.86500014550984,580.0799999851733,544.8549999855459,1649.184999987483],"keys_pressed":["leftarrow","rightarrow","rightarrow","rightarrow","rightarrow"],"horizon":5,"forced_choices":["leftarrow","rightarrow","rightarrow","rightarrow"],"right_color":"orange","left_color":"lightblue","left_mu":40,"right_mu":48,"left_numbers":[40,36,32,55,44],"right_numbers":[35,52,37,41,47],"points_earned":217,"phase":"task","trial_type":"horizons-task","trial_index":53,"time_elapsed":993799,"internal_node_id":"0.0-49.0","task_version":"0.2"},{"response_times":[630.5549999233335,456.0499999206513,469.07999995164573,553.3500001765788,1715.8150000032037],"keys_pressed":["rightarrow","rightarrow","leftarrow","leftarrow","leftarrow"],"horizon":5,"forced_choices":["rightarrow","rightarrow","leftarrow","leftarrow"],"right_color":"lightblue","left_color":"orange","left_mu":40,"right_mu":10,"left_numbers":[39,45,24,34,35],"right_numbers":[15,14,17,5,12],"points_earned":122,"phase":"task","trial_type":"horizons-task","trial_index":54,"time_elapsed":999127,"internal_node_id":"0.0-50.0","task_version":"0.2"},{"response_times":[856.8400000222027,449.8599998187274,475.1150000374764,639.2800000030547,4292.294999817386],"keys_pressed":["rightarrow","leftarrow","rightarrow","rightarrow","leftarrow"],"horizon":5,"forced_choices":["rightarrow","leftarrow","rightarrow","rightarrow"],"right_color":"lightblue","left_color":"orange","left_mu":60,"right_mu":64,"left_numbers":[53,71,56,51,65],"right_numbers":[66,72,64,56,70],"points_earned":322,"phase":"task","trial_type":"horizons-task","trial_index":55,"time_elapsed":1007343,"internal_node_id":"0.0-51.0","task_version":"0.2"},{"response_times":[686.2350001465529,444.88999992609024,739.7499999497086,526.6950000077486,2624.2050000000745,1079.3299998622388,629.759999923408,629.4799998868257,820.1999999582767,774.5900000445545],"keys_pressed":["rightarrow","rightarrow","leftarrow","rightarrow","rightarrow","leftarrow","rightarrow","leftarrow","rightarrow","rightarrow"],"horizon":10,"forced_choices":["rightarrow","rightarrow","leftarrow","rightarrow"],"right_color":"orange","left_color":"lightblue","left_mu":40,"right_mu":44,"left_numbers":[49,42,43,35,37,32,43,41,30,34],"right_numbers":[26,37,50,38,52,33,53,29,51,48],"points_earned":421,"phase":"task","trial_type":"horizons-task","trial_index":56,"time_elapsed":1017801,"internal_node_id":"0.0-52.0","task_version":"0.2"},{"response_times":[681.6000000108033,435.19000010564923,589.9099998641759,914.4050001632422,1744.0100000239909],"keys_pressed":["rightarrow","rightarrow","leftarrow","leftarrow","leftarrow"],"horizon":5,"forced_choices":["rightarrow","rightarrow","leftarrow","leftarrow"],"right_color":"orange","left_color":"lightblue","left_mu":40,"right_mu":28,"left_numbers":[47,48,36,46,43],"right_numbers":[23,31,35,23,40],"points_earned":179,"phase":"task","trial_type":"horizons-task","trial_index":57,"time_elapsed":1023668,"internal_node_id":"0.0-53.0","task_version":"0.2"},{"response_times":[687.8400000277907,384.8149999976158,424.97000005096197,384.7900000400841,1195.2649999875575,604.4499999843538,648.5849998425692,1415.4000000562519,1304.1000000666827,664.7799999918789],"keys_pressed":["leftarrow","rightarrow","leftarrow","rightarrow","rightarrow","rightarrow","leftarrow","rightarrow","leftarrow","rightarrow"],"horizon":10,"forced_choices":["leftarrow","rightarrow","leftarrow","rightarrow"],"right_color":"lightblue","left_color":"orange","left_mu":60,"right_mu":68,"left_numbers":[61,58,66,46,55,72,61,55,49,54],"right_numbers":[62,70,51,71,72,54,68,64,63,67],"points_earned":635,"phase":"task","trial_type":"horizons-task","trial_index":58,"time_elapsed":1032885,"internal_node_id":"0.0-54.0","task_version":"0.2"},{"response_times":[542.2799999359995,459.9900001194328,525.4399999976158,799.1500000935048,1589.7899998817593,1465.2899999637157,617.22999997437,377.5100000202656,335.0349999964237,369.54499990679324],"keys_pressed":["rightarrow","rightarrow","leftarrow","leftarrow","leftarrow","rightarrow","leftarrow","leftarrow","leftarrow","leftarrow"],"horizon":10,"forced_choices":["rightarrow","rightarrow","leftarrow","leftarrow"],"right_color":"lightblue","left_color":"orange","left_mu":40,"right_mu":10,"left_numbers":[46,49,49,35,30,34,28,35,33,44],"right_numbers":[22,0,15,9,11,4,13,6,15,17],"points_earned":280,"phase":"task","trial_type":"horizons-task","trial_index":59,"time_elapsed":1041469,"internal_node_id":"0.0-55.0","task_version":"0.2"},{"response_times":[885.8950000721961,451.0900001041591,555.445000063628,539.2299999948591,3768.6199999880046,749.8450002167374,945.3799999319017,524.2850000504404,509.580000070855,674.8849998693913],"keys_pressed":["leftarrow","leftarrow","rightarrow","rightarrow","leftarrow","rightarrow","rightarrow","rightarrow","rightarrow","leftarrow"],"horizon":10,"forced_choices":["leftarrow","leftarrow","rightarrow","rightarrow"],"right_color":"orange","left_color":"lightblue","left_mu":40,"right_mu":48,"left_numbers":[41,56,35,53,40,40,38,35,40,45],"right_numbers":[46,41,43,53,49,54,52,50,57,44],"points_earned":491,"phase":"task","trial_type":"horizons-task","trial_index":60,"time_elapsed":1052576,"internal_node_id":"0.0-56.0","task_version":"0.2"},{"response_times":[667.3550000414252,399.815000128001,629.4700000435114,540.2699999976903,1139.045000076294,565.0799998547882,848.604999948293,666.0649999976158,424.62499998509884,194.45499987341464],"keys_pressed":["rightarrow","leftarrow","leftarrow","leftarrow","leftarrow","rightarrow","rightarrow","rightarrow","rightarrow","rightarrow"],"horizon":10,"forced_choices":["rightarrow","leftarrow","leftarrow","leftarrow"],"right_color":"orange","left_color":"lightblue","left_mu":60,"right_mu":80,"left_numbers":[68,65,66,65,43,59,72,53,75,32],"right_numbers":[82,86,73,85,95,85,76,86,85,83],"points_earned":736,"phase":"task","trial_type":"horizons-task","trial_index":61,"time_elapsed":1060154,"internal_node_id":"0.0-57.0","task_version":"0.2"},{"response_times":[546.2749998550862,435.58500008657575,429.98500005342066,469.6749998256564,1283.7099998723716],"keys_pressed":["rightarrow","leftarrow","rightarrow","leftarrow","leftarrow"],"horizon":5,"forced_choices":["rightarrow","leftarrow","rightarrow","leftarrow"],"right_color":"orange","left_color":"lightblue","left_mu":60,"right_mu":40,"left_numbers":[60,60,55,64,62],"right_numbers":[43,45,51,36,28],"points_earned":280,"phase":"task","trial_type":"horizons-task","trial_index":62,"time_elapsed":1064820,"internal_node_id":"0.0-58.0","task_version":"0.2"},{"response_times":[783.2849998958409,380.0800000317395,419.4900000002235,924.509999807924,1514.594999840483,594.8250000365078,569.5150000974536,1114.7600000258535,574.8699998948723,350.63000000081956],"keys_pressed":["leftarrow","rightarrow","leftarrow","leftarrow","leftarrow","rightarrow","leftarrow","rightarrow","leftarrow","leftarrow"],"horizon":10,"forced_choices":["leftarrow","rightarrow","leftarrow","leftarrow"],"right_color":"orange","left_color":"lightblue","left_mu":40,"right_mu":20,"left_numbers":[35,39,48,28,57,30,47,43,41,35],"right_numbers":[26,20,21,23,14,13,21,33,19,14],"points_earned":357,"phase":"task","trial_type":"horizons-task","trial_index":63,"time_elapsed":1073549,"internal_node_id":"0.0-59.0","task_version":"0.2"},{"response_times":[766.6750000789762,564.3899999558926,499.4200000073761,485.36500008776784,1913.6149999685585,849.8599999584258,1045.7649999298155,499.464999884367,424.1600001696497,390.26499981991947],"keys_pressed":["leftarrow","leftarrow","leftarrow","rightarrow","rightarrow","rightarrow","leftarrow","rightarrow","rightarrow","rightarrow"],"horizon":10,"forced_choices":["leftarrow","leftarrow","leftarrow","rightarrow"],"right_color":"orange","left_color":"lightblue","left_mu":40,"right_mu":60,"left_numbers":[41,37,34,42,50,34,41,52,42,21],"right_numbers":[55,42,74,57,51,65,60,60,49,50],"points_earned":485,"phase":"task","trial_type":"horizons-task","trial_index":64,"time_elapsed":1082491,"internal_node_id":"0.0-60.0","task_version":"0.2"},{"response_times":[623.1449998449534,362.58499999530613,591.2200000602752,508.7349999230355,1300.6949999835342],"keys_pressed":["leftarrow","rightarrow","rightarrow","rightarrow","rightarrow"],"horizon":5,"forced_choices":["leftarrow","rightarrow","rightarrow","rightarrow"],"right_color":"lightblue","left_color":"orange","left_mu":60,"right_mu":72,"left_numbers":[63,63,64,59,58],"right_numbers":[73,56,66,76,76],"points_earned":337,"phase":"task","trial_type":"horizons-task","trial_index":65,"time_elapsed":1087379,"internal_node_id":"0.0-61.0","task_version":"0.2"},{"response_times":[702.5699999649078,379.89500002004206,610.2650000248104,849.6900000609457,1094.600000185892,1024.3999999947846,2239.724999992177,1029.0950001217425,250.59500010684133,219.5049999281764],"keys_pressed":["leftarrow","rightarrow","rightarrow","rightarrow","rightarrow","leftarrow","leftarrow","rightarrow","rightarrow","rightarrow"],"horizon":10,"forced_choices":["leftarrow","rightarrow","rightarrow","rightarrow"],"right_color":"lightblue","left_color":"orange","left_mu":60,"right_mu":72,"left_numbers":[53,74,57,52,59,63,53,56,53,57],"right_numbers":[75,88,71,87,73,69,62,78,69,73],"points_earned":708,"phase":"task","trial_type":"horizons-task","trial_index":66,"time_elapsed":1097282,"internal_node_id":"0.0-62.0","task_version":"0.2"},{"response_times":[692.2500000800937,364.4099999219179,384.76500008255243,610.3900000452995,1194.300000090152],"keys_pressed":["rightarrow","leftarrow","rightarrow","rightarrow","rightarrow"],"horizon":5,"forced_choices":["rightarrow","leftarrow","rightarrow","rightarrow"],"right_color":"lightblue","left_color":"orange","left_mu":60,"right_mu":56,"left_numbers":[43,54,59,61,74],"right_numbers":[50,50,47,48,50],"points_earned":249,"phase":"task","trial_type":"horizons-task","trial_index":67,"time_elapsed":1102030,"internal_node_id":"0.0-63.0","task_version":"0.2"},{"response_times":[682.814999949187,534.4500001519918,455.26499999687076,589.2900000326335,879.7549998853356,599.7550000902265,654.7300000675023,299.87500002607703,255.5350000038743,334.50000011362135],"keys_pressed":["leftarrow","leftarrow","rightarrow","leftarrow","leftarrow","rightarrow","leftarrow","leftarrow","leftarrow","leftarrow"],"horizon":10,"forced_choices":["leftarrow","leftarrow","rightarrow","leftarrow"],"right_color":"orange","left_color":"lightblue","left_mu":60,"right_mu":48,"left_numbers":[62,58,65,69,59,69,62,57,63,66],"right_numbers":[41,42,54,61,61,43,47,37,37,35],"points_earned":593,"phase":"task","trial_type":"horizons-task","trial_index":68,"time_elapsed":1108818,"internal_node_id":"0.0-64.0","task_version":"0.2"},{"response_times":[537.5649998895824,509.7050000913441,395.06000000983477,545.4599999357015,1458.7149999570101,469.67500005848706,539.9549999274313,410.8649999834597,293.56000013649464,150.39499988779426],"keys_pressed":["leftarrow","leftarrow","rightarrow","rightarrow","rightarrow","leftarrow","leftarrow","leftarrow","leftarrow","leftarrow"],"horizon":10,"forced_choices":["leftarrow","leftarrow","rightarrow","rightarrow"],"right_color":"orange","left_color":"lightblue","left_mu":60,"right_mu":48,"left_numbers":[56,58,61,54,60,67,66,61,51,78],"right_numbers":[53,41,54,49,43,29,29,45,49,33],"points_earned":583,"phase":"task","trial_type":"horizons-task","trial_index":69,"time_elapsed":1115632,"internal_node_id":"0.0-65.0","task_version":"0.2"},{"response_times":[541.7400000151247,474.50000001117587,430.3150000050664,979.7050000634044,1419.3949999753386],"keys_pressed":["leftarrow","leftarrow","rightarrow","rightarrow","leftarrow"],"horizon":5,"forced_choices":["leftarrow","leftarrow","rightarrow","rightarrow"],"right_color":"lightblue","left_color":"orange","left_mu":40,"right_mu":52,"left_numbers":[48,49,39,42,54],"right_numbers":[43,43,45,38,57],"points_earned":234,"phase":"task","trial_type":"horizons-task","trial_index":70,"time_elapsed":1120980,"internal_node_id":"0.0-66.0","task_version":"0.2"},{"response_times":[662.4099998734891,379.3800000566989,594.8100001551211,729.3949997983873,849.7999999672174,809.8850001115352,705.0550000276417,489.93999999947846,1104.3300000019372,84.70000000670552],"keys_pressed":["rightarrow","rightarrow","leftarrow","leftarrow","leftarrow","rightarrow","rightarrow","leftarrow","leftarrow","leftarrow"],"horizon":10,"forced_choices":["rightarrow","rightarrow","leftarrow","leftarrow"],"right_color":"orange","left_color":"lightblue","left_mu":40,"right_mu":28,"left_numbers":[70,50,25,26,28,44,25,32,40,37],"right_numbers":[27,18,24,16,32,32,30,18,32,20],"points_earned":295,"phase":"task","trial_type":"horizons-task","trial_index":71,"time_elapsed":1128892,"internal_node_id":"0.0-67.0","task_version":"0.2"},{"response_times":[522.6500001735985,490.0950000155717,713.5550000239164,566.0050001461059,1114.449999993667],"keys_pressed":["rightarrow","rightarrow","leftarrow","leftarrow","leftarrow"],"horizon":5,"forced_choices":["rightarrow","rightarrow","leftarrow","leftarrow"],"right_color":"lightblue","left_color":"orange","left_mu":60,"right_mu":52,"left_numbers":[59,61,63,67,55],"right_numbers":[64,51,49,40,49],"points_earned":300,"phase":"task","trial_type":"horizons-task","trial_index":72,"time_elapsed":1133801,"internal_node_id":"0.0-68.0","task_version":"0.2"},{"response_times":[731.0999999754131,330.55999991483986,779.5700000133365,489.56999997608364,2244.990000035614],"keys_pressed":["leftarrow","rightarrow","rightarrow","leftarrow","leftarrow"],"horizon":5,"forced_choices":["leftarrow","rightarrow","rightarrow","leftarrow"],"right_color":"lightblue","left_color":"orange","left_mu":40,"right_mu":32,"left_numbers":[39,28,39,41,41],"right_numbers":[28,30,38,34,33],"points_earned":189,"phase":"task","trial_type":"horizons-task","trial_index":73,"time_elapsed":1139879,"internal_node_id":"0.0-69.0","task_version":"0.2"},{"response_times":[736.7950000334531,421.7599998228252,482.94000001624227,499.4399999268353,1150.164999999106],"keys_pressed":["rightarrow","rightarrow","leftarrow","rightarrow","leftarrow"],"horizon":5,"forced_choices":["rightarrow","rightarrow","leftarrow","rightarrow"],"right_color":"orange","left_color":"lightblue","left_mu":40,"right_mu":28,"left_numbers":[41,45,41,42,35],"right_numbers":[27,33,16,34,18],"points_earned":170,"phase":"task","trial_type":"horizons-task","trial_index":74,"time_elapsed":1144672,"internal_node_id":"0.0-70.0","task_version":"0.2"},{"response_times":[737.554999999702,419.8850002139807,469.539999961853,389.5649998448789,1504.590000025928,570.4949998762459,609.3349999282509,549.9650000128895,310.21000002510846,239.7000000346452],"keys_pressed":["rightarrow","rightarrow","leftarrow","rightarrow","rightarrow","leftarrow","rightarrow","rightarrow","rightarrow","rightarrow"],"horizon":10,"forced_choices":["rightarrow","rightarrow","leftarrow","rightarrow"],"right_color":"orange","left_color":"lightblue","left_mu":40,"right_mu":70,"left_numbers":[45,50,41,43,35,38,19,56,47,48],"right_numbers":[61,66,75,63,66,65,72,67,88,72],"points_earned":634,"phase":"task","trial_type":"horizons-task","trial_index":75,"time_elapsed":1151976,"internal_node_id":"0.0-71.0","task_version":"0.2"},{"response_times":[716.7199999094009,400.4150000400841,589.3850000575185,414.8900001309812,1780.8349998667836],"keys_pressed":["rightarrow","leftarrow","leftarrow","rightarrow","leftarrow"],"horizon":5,"forced_choices":["rightarrow","leftarrow","leftarrow","rightarrow"],"right_color":"lightblue","left_color":"orange","left_mu":60,"right_mu":56,"left_numbers":[50,61,53,66,50],"right_numbers":[56,55,54,53,62],"points_earned":273,"phase":"task","trial_type":"horizons-task","trial_index":76,"time_elapsed":1157380,"internal_node_id":"0.0-72.0","task_version":"0.2"},{"response_times":[711.4599999040365,479.6750000678003,405.2699999883771,439.78999997489154,5448.305000085384,614.4699999131262,539.4500000402331,535.4150000493973,789.8500000592321,509.4800000078976],"keys_pressed":["leftarrow","leftarrow","rightarrow","leftarrow","rightarrow","leftarrow","leftarrow","rightarrow","rightarrow","leftarrow"],"horizon":10,"forced_choices":["leftarrow","leftarrow","rightarrow","leftarrow"],"right_color":"orange","left_color":"lightblue","left_mu":40,"right_mu":36,"left_numbers":[29,43,41,46,48,51,33,32,34,49],"right_numbers":[29,20,42,42,32,29,30,53,30,22],"points_earned":408,"phase":"task","trial_type":"horizons-task","trial_index":77,"time_elapsed":1169356,"internal_node_id":"0.0-73.0","task_version":"0.2"},{"response_times":[516.8500000145286,365.2649999130517,381.2800000887364,433.44499985687435,394.5750000420958,655.0549999810755,364.83000009320676,444.55499993637204,375.16499985940754,619.575000135228],"keys_pressed":["rightarrow","leftarrow","rightarrow","leftarrow","rightarrow","leftarrow","leftarrow","leftarrow","leftarrow","leftarrow"],"horizon":10,"forced_choices":["rightarrow","leftarrow","rightarrow","leftarrow"],"right_color":"orange","left_color":"lightblue","left_mu":40,"right_mu":20,"left_numbers":[40,51,37,53,51,37,29,40,39,35],"right_numbers":[20,10,20,24,19,33,36,20,16,10],"points_earned":343,"phase":"task","trial_type":"horizons-task","trial_index":78,"time_elapsed":1175409,"internal_node_id":"0.0-74.0","task_version":"0.2"},{"response_times":[694.9699998367578,397.1849998924881,482.4399999342859,445.1649999246001,1390.54000005126,553.6599999759346,324.6150000486523,195.07499993778765,170.05500011146069,139.8799999151379],"keys_pressed":["rightarrow","leftarrow","leftarrow","leftarrow","rightarrow","leftarrow","leftarrow","leftarrow","leftarrow","leftarrow"],"horizon":10,"forced_choices":["rightarrow","leftarrow","leftarrow","leftarrow"],"right_color":"lightblue","left_color":"orange","left_mu":60,"right_mu":30,"left_numbers":[30,57,56,57,62,58,57,51,70,57],"right_numbers":[44,44,24,11,21,30,27,11,15,34],"points_earned":528,"phase":"task","trial_type":"horizons-task","trial_index":79,"time_elapsed":1181717,"internal_node_id":"0.0-75.0","task_version":"0.2"},{"response_times":[587.4600000679493,385.11999999172986,445.11999981477857,1273.3649997971952,1803.8649999070913,595.8849999587983,1689.0749998856336,1188.1850000936538,2110.8049999456853,1414.6600000094622],"keys_pressed":["rightarrow","leftarrow","rightarrow","rightarrow","rightarrow","leftarrow","leftarrow","rightarrow","leftarrow","rightarrow"],"horizon":10,"forced_choices":["rightarrow","leftarrow","rightarrow","rightarrow"],"right_color":"lightblue","left_color":"orange","left_mu":60,"right_mu":64,"left_numbers":[55,60,53,57,55,58,76,56,53,61],"right_numbers":[58,59,64,55,66,75,65,69,80,77],"points_earned":636,"phase":"task","trial_type":"horizons-task","trial_index":80,"time_elapsed":1194713,"internal_node_id":"0.0-76.0","task_version":"0.2"},{"response_times":[692.4500002060086,509.57500003278255,415.464999852702,400.5700000561774,1797.770000062883],"keys_pressed":["leftarrow","leftarrow","rightarrow","leftarrow","leftarrow"],"horizon":5,"forced_choices":["leftarrow","leftarrow","rightarrow","leftarrow"],"right_color":"lightblue","left_color":"orange","left_mu":60,"right_mu":52,"left_numbers":[48,50,68,68,65],"right_numbers":[48,41,45,32,51],"points_earned":276,"phase":"task","trial_type":"horizons-task","trial_index":81,"time_elapsed":1200032,"internal_node_id":"0.0-77.0","task_version":"0.2"},{"response_times":[572.1700000576675,559.9950000178069,979.554999852553,548.9300000481308,985.4049999266863],"keys_pressed":["leftarrow","leftarrow","leftarrow","rightarrow","leftarrow"],"horizon":5,"forced_choices":["leftarrow","leftarrow","leftarrow","rightarrow"],"right_color":"lightblue","left_color":"orange","left_mu":40,"right_mu":32,"left_numbers":[54,30,34,51,44],"right_numbers":[43,18,27,29,33],"points_earned":191,"phase":"task","trial_type":"horizons-task","trial_index":82,"time_elapsed":1205181,"internal_node_id":"0.0-78.0","task_version":"0.2"},{"response_times":[771.4750000741333,574.8799999710172,464.60999990813434,794.7050000075251,4388.835000107065],"keys_pressed":["leftarrow","leftarrow","rightarrow","rightarrow","leftarrow"],"horizon":5,"forced_choices":["leftarrow","leftarrow","rightarrow","rightarrow"],"right_color":"orange","left_color":"lightblue","left_mu":60,"right_mu":48,"left_numbers":[52,70,62,50,66],"right_numbers":[47,48,56,40,43],"points_earned":284,"phase":"task","trial_type":"horizons-task","trial_index":83,"time_elapsed":1213678,"internal_node_id":"0.0-79.0","task_version":"0.2"},{"response_times":[641.4199999999255,369.81499986723065,375.535000115633,568.1050000712276,1381.2150000594556],"keys_pressed":["leftarrow","rightarrow","leftarrow","leftarrow","leftarrow"],"horizon":5,"forced_choices":["leftarrow","rightarrow","leftarrow","leftarrow"],"right_color":"lightblue","left_color":"orange","left_mu":40,"right_mu":52,"left_numbers":[31,47,36,47,32],"right_numbers":[37,61,45,45,57],"points_earned":207,"phase":"task","trial_type":"horizons-task","trial_index":84,"time_elapsed":1218516,"internal_node_id":"0.0-80.0","task_version":"0.2"},{"response_times":[817.6200001034886,523.9999999757856,410.4850001167506,435.21000002510846,1704.9950000364333,743.8949998468161,1164.1800000797957,1084.9200000520796,839.7999999579042,474.88499991595745],"keys_pressed":["leftarrow","rightarrow","leftarrow","rightarrow","rightarrow","leftarrow","rightarrow","rightarrow","rightarrow","rightarrow"],"horizon":10,"forced_choices":["leftarrow","rightarrow","leftarrow","rightarrow"],"right_color":"lightblue","left_color":"orange","left_mu":60,"right_mu":72,"left_numbers":[54,48,58,54,63,59,51,64,74,34],"right_numbers":[66,51,75,73,59,76,74,71,69,71],"points_earned":639,"phase":"task","trial_type":"horizons-task","trial_index":85,"time_elapsed":1228230,"internal_node_id":"0.0-81.0","task_version":"0.2"},{"response_times":[591.3750000763685,345.4049997963011,324.20000014826655,430.2499999757856,1464.9300000164658],"keys_pressed":["leftarrow","rightarrow","leftarrow","rightarrow","rightarrow"],"horizon":5,"forced_choices":["leftarrow","rightarrow","leftarrow","rightarrow"],"right_color":"lightblue","left_color":"orange","left_mu":60,"right_mu":68,"left_numbers":[59,53,60,58,75],"right_numbers":[50,74,82,58,68],"points_earned":319,"phase":"task","trial_type":"horizons-task","trial_index":86,"time_elapsed":1232889,"internal_node_id":"0.0-82.0","task_version":"0.2"},{"response_times":[926.8300000112504,564.4549999851733,554.7899999655783,644.5750000420958,1934.2399998567998,614.5150000229478,319.72000002861023,220.4400000628084,225.27000005356967,1093.790000071749],"keys_pressed":["leftarrow","leftarrow","leftarrow","rightarrow","rightarrow","leftarrow","leftarrow","leftarrow","leftarrow","rightarrow"],"horizon":10,"forced_choices":["leftarrow","leftarrow","leftarrow","rightarrow"],"right_color":"lightblue","left_color":"orange","left_mu":40,"right_mu":32,"left_numbers":[33,31,35,51,38,32,54,54,40,32],"right_numbers":[35,32,31,48,48,46,32,39,34,41],"points_earned":416,"phase":"task","trial_type":"horizons-task","trial_index":87,"time_elapsed":1241490,"internal_node_id":"0.0-83.0","task_version":"0.2"},{"response_times":[902.1499999798834,355.26999994181097,709.0499999467283,430.3199998103082,924.4049999397248],"keys_pressed":["rightarrow","leftarrow","leftarrow","rightarrow","rightarrow"],"horizon":5,"forced_choices":["rightarrow","leftarrow","leftarrow","rightarrow"],"right_color":"orange","left_color":"lightblue","left_mu":60,"right_mu":80,"left_numbers":[64,67,64,72,65],"right_numbers":[93,87,82,90,88],"points_earned":402,"phase":"task","trial_type":"horizons-task","trial_index":88,"time_elapsed":1246314,"internal_node_id":"0.0-84.0","task_version":"0.2"},{"response_times":[740.8449999056756,541.1900000181049,440.3450000099838,654.9700000323355,1933.740000007674,648.4749999362975,371.77000008523464,668.8949998933822,2839.845000067726,634.1450000181794],"keys_pressed":["rightarrow","rightarrow","rightarrow","leftarrow","leftarrow","rightarrow","rightarrow","leftarrow","leftarrow","rightarrow"],"horizon":10,"forced_choices":["rightarrow","rightarrow","rightarrow","leftarrow"],"right_color":"lightblue","left_color":"orange","left_mu":60,"right_mu":90,"left_numbers":[51,72,50,38,51,48,70,82,67,48],"right_numbers":[99,99,99,100,96,75,95,74,88,77],"points_earned":782,"phase":"task","trial_type":"horizons-task","trial_index":89,"time_elapsed":1257291,"internal_node_id":"0.0-85.0","task_version":"0.2"},{"response_times":[651.4149999711663,374.66000020504,370.4049999359995,534.6750000026077,4078.9850000292063],"keys_pressed":["rightarrow","leftarrow","rightarrow","leftarrow","leftarrow"],"horizon":5,"forced_choices":["rightarrow","leftarrow","rightarrow","leftarrow"],"right_color":"orange","left_color":"lightblue","left_mu":40,"right_mu":36,"left_numbers":[54,48,46,25,51],"right_numbers":[22,29,29,54,36],"points_earned":175,"phase":"task","trial_type":"horizons-task","trial_index":90,"time_elapsed":1264803,"internal_node_id":"0.0-86.0","task_version":"0.2"},{"response_times":[1012.9550001583993,379.33499994687736,495.09999994188547,444.9700000695884,1654.164999956265,1263.8900000602007,591.5749999694526,468.96500000730157,674.2899999953806,380.6600000243634],"keys_pressed":["leftarrow","rightarrow","rightarrow","leftarrow","leftarrow","rightarrow","rightarrow","rightarrow","rightarrow","rightarrow"],"horizon":10,"forced_choices":["leftarrow","rightarrow","rightarrow","leftarrow"],"right_color":"orange","left_color":"lightblue","left_mu":40,"right_mu":70,"left_numbers":[47,34,25,45,31,38,34,41,43,20],"right_numbers":[57,36,66,60,71,64,67,75,75,58],"points_earned":564,"phase":"task","trial_type":"horizons-task","trial_index":91,"time_elapsed":1273671,"internal_node_id":"0.0-87.0","task_version":"0.2"},{"rt":19741.710000205785,"responses":{"age":"30","gender-categorical":"Female","gender-free-response":"","ethnicity":"Not Hispanic or Latino","race":["Asian"],"language":"Yes","fluency":"Very well"},"survey":"demographics","trial_type":"survey-demo","trial_index":92,"time_elapsed":1293416,"internal_node_id":"0.0-88.0","task_version":"0.2"},{"rt":29405.50999995321,"responses":{"difficulty":"5","fun":"4","clarity":"5","strategy":"Average based on given numbers","feedback":"n/a"},"survey":"debrief","trial_type":"survey-debrief","trial_index":93,"time_elapsed":1322828,"internal_node_id":"0.0-89.0","task_version":"0.2","interactions":"[{\"event\":\"blur\",\"trial\":2,\"time\":122305},{\"event\":\"focus\",\"trial\":2,\"time\":126990},{\"event\":\"blur\",\"trial\":5,\"time\":483360},{\"event\":\"focus\",\"trial\":5,\"time\":492404},{\"event\":\"blur\",\"trial\":12,\"time\":577519},{\"event\":\"focus\",\"trial\":12,\"time\":592102},{\"event\":\"blur\",\"trial\":13,\"time\":607566},{\"event\":\"focus\",\"trial\":13,\"time\":615802},{\"event\":\"blur\",\"trial\":14,\"time\":631448},{\"event\":\"focus\",\"trial\":14,\"time\":640498},{\"event\":\"blur\",\"trial\":15,\"time\":647706},{\"event\":\"focus\",\"trial\":15,\"time\":662280},{\"event\":\"blur\",\"trial\":41,\"time\":873930},{\"event\":\"focus\",\"trial\":41,\"time\":897888},{\"event\":\"blur\",\"trial\":51,\"time\":975855},{\"event\":\"focus\",\"trial\":51,\"time\":979644}]"}]