[{"view_history":"[{\"page_index\":0,\"viewing_time\":2711.0850000026403}]","rt":2711.9450000027427,"trial_type":"instructions","trial_index":0,"time_elapsed":2726,"internal_node_id":"0.0-0.0","task_version":"0.2"},{"item_order":[2,11,0,9,10,8,5,3,14,15,6,4,16,13,12,7,1],"responses":{"Q03":"3","Q12":"2","Q01":"3","Q10":"4","Q11":"3","Q09":"2","Q06":"3","Q04":"2","Q15":"1","Q16":"2","Q07":"1","Q05":"2","Q17":"0","Q14":"1","Q13":"2","Q08":"3","Q02":"1"},"radio_events":[6324.775000000955,8650.290000005043,14209.604999996372,15476.565000004484,17825.209999995423,19552.510000008624,22450.974999999744,25728.22499999893,28540.72499999893,30198.99499999883,31580.925000002026,35714.81499999936,37108.25000000477,39399.46500000951,41518.55000000796,44593.30999999656,47229.97000000032,48899.975000007544,50097.5299999991],"key_events":[],"mouse_events":[1.8350000027567148,4044.625000009546,6324.775000000955,8650.290000005043,14209.604999996372,15476.565000004484,17825.209999995423,19552.510000008624,22450.974999999744,25728.22499999893,28540.72499999893,30198.99499999883,31580.925000002026,35714.81499999936,37108.25000000477,39399.46500000951,41518.55000000796,44593.30999999656,47229.97000000032,48899.975000007544,50097.5299999991,51560.404999996535],"rt":51566.71500000812,"survey":"pswq","trial_type":"survey-template","trial_index":1,"time_elapsed":54303,"internal_node_id":"0.0-1.0","task_version":"0.2"},{"item_order":[10,3,0,8,2,4,12,9,1,6,7,5,11],"responses":{"Q11":"3","Q04":"3","Q01":"1","Q09":"1","Q03":"0","Q05":"1","Q13":"4","Q10":"1","Q02":"3","Q07":"2","Q08":"3","Q06":"1","Q12":"1"},"radio_events":[28320.034999997006,30703.374999997322,33268.954999992275,36780.74000000197,37529.16999999434,40956.68499999738,43133.304999995744,45021.59499999834,58238.87999998988,61001.66999999783,62060.954999993555,63961.074999999255,66125.83999999333,68867.91999998968],"key_events":[],"mouse_events":[15625.464999990072,25176.309999995283,25360.390000001644,26155.199999993783,28320.034999997006,30703.374999997322,33268.954999992275,35030.46499998891,36780.74000000197,37529.16999999434,40956.68499999738,43133.304999995744,45021.59499999834,45874.400000000605,58238.87999998988,59999.63999999454,61001.66999999783,62060.954999993555,63961.074999999255,66125.83999999333,68867.91999998968,70225.48500000266],"rt":70228.6299999978,"survey":"ius12","trial_type":"survey-template","trial_index":2,"time_elapsed":124539,"internal_node_id":"0.0-2.0","task_version":"0.2"},{"item_order":[7,1,11,12,15,10,4,13,3,5,2,9,14,0,8,6],"responses":{"Q08":"4","Q02":"1","Q12":"4","Q13":"4","Q16":"5","Q11":"3","Q05":"3","Q14":"3","Q04":"4","Q06":"5","Q03":"4","Q10":"2","Q15":"3","Q01":"3","Q09":"3","Q07":"4"},"radio_events":[6462.385000006179,11748.1950000074,15408.980000007432,22503.390000012587,25485.100000005332,31134.65000000724,34359.17999999947,38785.01000000688,47245.10000000009,50337.75000000605,52882.21500000509,65126.230000008945,66864.45000000822,68488.44500000996,75078.41500001086,76206.68000000296],"key_events":[],"mouse_events":[6462.385000006179,11748.1950000074,15408.980000007432,21190.240000010817,22503.390000012587,25485.100000005332,31134.65000000724,34359.17999999947,38785.01000000688,45989.92500000168,47245.10000000009,50337.75000000605,52882.21500000509,59263.474999999744,65126.230000008945,66864.45000000822,68488.44500000996,73316.36000001163,75078.41500001086,76206.68000000296,77497.49000000884],"rt":77506.69000000926,"survey":"nfc","trial_type":"survey-template","trial_index":3,"time_elapsed":202057,"internal_node_id":"0.0-3.0","task_version":"0.2"},{"view_history":"[{\"page_index\":0,\"viewing_time\":2728.0599999940023},{\"page_index\":1,\"viewing_time\":3746.5700000029756},{\"page_index\":2,\"viewing_time\":6944.665000002715},{\"page_index\":3,\"viewing_time\":17787.67499999958},{\"page_index\":4,\"viewing_time\":5652.739999990445},{\"page_index\":5,\"viewing_time\":5722.600000008242},{\"page_index\":6,\"viewing_time\":7149.720000001253},{\"page_index\":7,\"viewing_time\":7911.334999997052},{\"page_index\":8,\"viewing_time\":8380.460000000312},{\"page_index\":9,\"viewing_time\":9215.244999999413}]","rt":75239.83500000031,"trial_type":"instructions","trial_index":4,"time_elapsed":277299,"internal_node_id":"0.0-4.0-0.0","task_version":"0.2"},{"response_times":[1525.260000009439,939.9450000055367,643.1449999945471,685.2250000083586,2798.2350000092993],"keys_pressed":["rightarrow","leftarrow","rightarrow","rightarrow","leftarrow"],"horizon":5,"forced_choices":["rightarrow","leftarrow","rightarrow","rightarrow"],"right_color":"lightblue","left_color":"orange","left_mu":40,"right_mu":20,"left_numbers":[22,51,44,36,30],"right_numbers":[27,9,28,29,20],"points_earned":165,"phase":"practice","trial_type":"horizons-task","trial_index":5,"time_elapsed":285423,"internal_node_id":"0.0-4.0-1.0","task_version":"0.2"},{"response_times":[1228.4249999938766,1739.3449999945005,839.814999999362,731.8650000088383,2537.064999996801,1837.599999998929,1224.1050000011455,963.980000000447,943.6750000022585,2397.645000004559],"keys_pressed":["leftarrow","leftarrow","rightarrow","rightarrow","rightarrow","rightarrow","rightarrow","rightarrow","rightarrow","rightarrow"],"horizon":10,"forced_choices":["leftarrow","leftarrow","rightarrow","rightarrow"],"right_color":"orange","left_color":"lightblue","left_mu":60,"right_mu":70,"left_numbers":[63,47,60,67,53,52,60,61,64,70],"right_numbers":[64,53,76,76,65,70,74,64,67,67],"points_earned":669,"phase":"practice","trial_type":"horizons-task","trial_index":6,"time_elapsed":301373,"internal_node_id":"0.0-4.0-2.0","task_version":"0.2"},{"view_history":"[{\"page_index\":0,\"viewing_time\":1401.2800000054995},{\"page_index\":1,\"viewing_time\":2806.764999986626},{\"page_index\":2,\"viewing_time\":4576.500000010128},{\"page_index\":3,\"viewing_time\":3517.4350000015693}]","rt":12302.630000005593,"trial_type":"instructions","trial_index":7,"time_elapsed":313678,"internal_node_id":"0.0-4.0-3.0","task_version":"0.2"},{"responses":["true","false","true"],"num_errors":0,"rt":9678.444999997737,"trial_type":"horizons-comprehension","trial_index":8,"time_elapsed":323363,"internal_node_id":"0.0-4.0-4.0","task_version":"0.2"},{"trial_type":"call-function","trial_index":9,"time_elapsed":323369,"internal_node_id":"0.0-5.0","task_version":"0.2"},{"view_history":"[{\"page_index\":0,\"viewing_time\":1726.795000009588},{\"page_index\":1,\"viewing_time\":2149.4149999925867}]","rt":3876.6800000012154,"trial_type":"instructions","trial_index":10,"time_elapsed":327247,"internal_node_id":"0.0-6.0","task_version":"0.2"},{"response_times":[4558.990000004997,2256.584999995539,2028.2200000074226,1473.744999995688,2081.02999998664,2549.715000001015,930.8949999976903,990.9049999987474,690.9750000049826,1207.4399999983143],"keys_pressed":["leftarrow","leftarrow","rightarrow","rightarrow","rightarrow","rightarrow","rightarrow","rightarrow","rightarrow","rightarrow"],"horizon":10,"forced_choices":["leftarrow","leftarrow","rightarrow","rightarrow"],"right_color":"lightblue","left_color":"orange","left_mu":60,"right_mu":64,"left_numbers":[54,53,61,49,58,52,66,60,69,61],"right_numbers":[65,76,67,68,60,65,50,51,59,63],"points_earned":590,"phase":"task","trial_type":"horizons-task","trial_index":11,"time_elapsed":347528,"internal_node_id":"0.0-7.0","task_version":"0.2"},{"response_times":[1152.5850000034552,688.5800000018207,872.7900000085356,896.1750000016764,1653.3349999954225,666.6649999970105,738.4000000020023,650.9550000046147,559.3099999969127,558.7599999998929],"keys_pressed":["rightarrow","leftarrow","leftarrow","leftarrow","rightarrow","leftarrow","leftarrow","leftarrow","leftarrow","leftarrow"],"horizon":10,"forced_choices":["rightarrow","leftarrow","leftarrow","leftarrow"],"right_color":"orange","left_color":"lightblue","left_mu":60,"right_mu":48,"left_numbers":[50,58,56,64,61,61,66,64,55,66],"right_numbers":[55,48,55,51,52,50,63,51,46,37],"points_earned":597,"phase":"task","trial_type":"horizons-task","trial_index":12,"time_elapsed":357504,"internal_node_id":"0.0-8.0","task_version":"0.2"},{"response_times":[800.1699999877019,623.4600000025239,821.1650000012014,1788.1150000030175,1317.9349999991246],"keys_pressed":["rightarrow","leftarrow","rightarrow","rightarrow","leftarrow"],"horizon":5,"forced_choices":["rightarrow","leftarrow","rightarrow","rightarrow"],"right_color":"lightblue","left_color":"orange","left_mu":60,"right_mu":40,"left_numbers":[63,66,60,52,57],"right_numbers":[33,41,30,43,47],"points_earned":229,"phase":"task","trial_type":"horizons-task","trial_index":13,"time_elapsed":364363,"internal_node_id":"0.0-9.0","task_version":"0.2"},{"response_times":[893.0399999953806,751.765000008163,667.394999996759,663.9399999985471,2129.365000000689],"keys_pressed":["rightarrow","rightarrow","rightarrow","leftarrow","leftarrow"],"horizon":5,"forced_choices":["rightarrow","rightarrow","rightarrow","leftarrow"],"right_color":"orange","left_color":"lightblue","left_mu":40,"right_mu":32,"left_numbers":[38,47,39,33,35],"right_numbers":[37,31,29,30,34],"points_earned":165,"phase":"task","trial_type":"horizons-task","trial_index":14,"time_elapsed":370973,"internal_node_id":"0.0-10.0","task_version":"0.2"},{"response_times":[889.2400000040652,430.0349999975879,542.8249999968102,551.5100000047823,1857.9849999950966,755.3049999987707,1990.4249999963213,524.8549999960233,1165.674999996554,745.0200000021141],"keys_pressed":["leftarrow","rightarrow","leftarrow","rightarrow","rightarrow","leftarrow","leftarrow","rightarrow","rightarrow","leftarrow"],"horizon":10,"forced_choices":["leftarrow","rightarrow","leftarrow","rightarrow"],"right_color":"lightblue","left_color":"orange","left_mu":60,"right_mu":56,"left_numbers":[56,65,50,62,41,64,58,66,68,50],"right_numbers":[60,60,57,51,64,67,59,64,58,52],"points_earned":575,"phase":"task","trial_type":"horizons-task","trial_index":15,"time_elapsed":381931,"internal_node_id":"0.0-11.0","task_version":"0.2"},{"response_times":[852.9500000004191,571.6649999958463,530.3050000075018,718.8600000081351,1428.4699999989243,685.075000001234,700.7049999956507,1609.9550000071758,1028.6550000018906,1388.95500000217],"keys_pressed":["rightarrow","rightarrow","rightarrow","leftarrow","leftarrow","rightarrow","rightarrow","rightarrow","leftarrow","leftarrow"],"horizon":10,"forced_choices":["rightarrow","rightarrow","rightarrow","leftarrow"],"right_color":"orange","left_color":"lightblue","left_mu":40,"right_mu":32,"left_numbers":[32,33,31,39,24,41,42,29,38,20],"right_numbers":[31,35,30,21,25,36,30,29,33,20],"points_earned":312,"phase":"task","trial_type":"horizons-task","trial_index":16,"time_elapsed":392952,"internal_node_id":"0.0-12.0","task_version":"0.2"},{"response_times":[1002.4399999965681,535.4800000059186,441.86000000627246,643.4949999966193,1746.7350000079023],"keys_pressed":["rightarrow","rightarrow","leftarrow","rightarrow","leftarrow"],"horizon":5,"forced_choices":["rightarrow","rightarrow","leftarrow","rightarrow"],"right_color":"orange","left_color":"lightblue","left_mu":40,"right_mu":36,"left_numbers":[47,47,33,38,57],"right_numbers":[23,38,28,26,32],"points_earned":177,"phase":"task","trial_type":"horizons-task","trial_index":17,"time_elapsed":398827,"internal_node_id":"0.0-13.0","task_version":"0.2"},{"response_times":[890.2600000001257,485.1150000031339,537.2050000005402,1291.2900000083027,1328.0499999964377],"keys_pressed":["rightarrow","rightarrow","leftarrow","leftarrow","leftarrow"],"horizon":5,"forced_choices":["rightarrow","rightarrow","leftarrow","leftarrow"],"right_color":"orange","left_color":"lightblue","left_mu":40,"right_mu":10,"left_numbers":[33,31,39,46,35],"right_numbers":[15,10,3,17,8],"points_earned":145,"phase":"task","trial_type":"horizons-task","trial_index":18,"time_elapsed":404864,"internal_node_id":"0.0-14.0","task_version":"0.2"},{"response_times":[820.9050000004936,427.9649999953108,456.4200000022538,621.0450000071432,1518.9299999910872,1191.2050000100862,1518.0399999953806,520.4400000075111,412.1549999981653,620.5550000013318],"keys_pressed":["rightarrow","leftarrow","rightarrow","rightarrow","leftarrow","leftarrow","leftarrow","leftarrow","leftarrow","leftarrow"],"horizon":10,"forced_choices":["rightarrow","leftarrow","rightarrow","rightarrow"],"right_color":"lightblue","left_color":"orange","left_mu":60,"right_mu":40,"left_numbers":[64,52,59,70,76,65,49,63,52,54],"right_numbers":[29,40,35,30,35,34,42,46,53,52],"points_earned":505,"phase":"task","trial_type":"horizons-task","trial_index":19,"time_elapsed":414478,"internal_node_id":"0.0-15.0","task_version":"0.2"},{"response_times":[772.6950000069337,373.7050000054296,561.7499999934807,649.9349999940023,1454.714999999851],"keys_pressed":["leftarrow","rightarrow","rightarrow","rightarrow","rightarrow"],"horizon":5,"forced_choices":["leftarrow","rightarrow","rightarrow","rightarrow"],"right_color":"lightblue","left_color":"orange","left_mu":60,"right_mu":80,"left_numbers":[55,45,66,49,52],"right_numbers":[87,64,72,84,77],"points_earned":352,"phase":"task","trial_type":"horizons-task","trial_index":20,"time_elapsed":419797,"internal_node_id":"0.0-16.0","task_version":"0.2"},{"response_times":[609.7899999876972,397.87000000069384,442.9800000070827,489.5749999996042,1383.0850000085775,556.6199999884702,492.5999999977648,287.45999999227934,239.2849999887403,233.7450000050012],"keys_pressed":["leftarrow","rightarrow","rightarrow","rightarrow","rightarrow","rightarrow","rightarrow","rightarrow","rightarrow","rightarrow"],"horizon":10,"forced_choices":["leftarrow","rightarrow","rightarrow","rightarrow"],"right_color":"lightblue","left_color":"orange","left_mu":60,"right_mu":80,"left_numbers":[52,72,59,57,63,59,61,51,58,54],"right_numbers":[75,89,74,75,73,78,71,86,70,93],"points_earned":761,"phase":"task","trial_type":"horizons-task","trial_index":21,"time_elapsed":426436,"internal_node_id":"0.0-17.0","task_version":"0.2"},{"response_times":[633.4500000084518,426.26999999629334,403.16499999607913,451.0100000043167,1418.4450000029756,1640.3500000014901,653.2849999930477,576.0350000055041,274.11499999288935,210.8849999931408],"keys_pressed":["rightarrow","leftarrow","rightarrow","leftarrow","leftarrow","rightarrow","leftarrow","leftarrow","leftarrow","leftarrow"],"horizon":10,"forced_choices":["rightarrow","leftarrow","rightarrow","leftarrow"],"right_color":"lightblue","left_color":"orange","left_mu":60,"right_mu":40,"left_numbers":[68,53,47,62,52,60,63,57,64,53],"right_numbers":[42,39,46,31,34,44,37,41,47,42],"points_earned":536,"phase":"task","trial_type":"horizons-task","trial_index":22,"time_elapsed":434627,"internal_node_id":"0.0-18.0","task_version":"0.2"},{"response_times":[623.2949999975972,537.9049999901326,588.0150000011781,1151.2499999953434,1383.1000000063796,491.2100000074133,243.13499999698251,179.03499999374617,188.52500000502914,343.6999999976251],"keys_pressed":["rightarrow","rightarrow","leftarrow","leftarrow","leftarrow","leftarrow","leftarrow","leftarrow","leftarrow","leftarrow"],"horizon":10,"forced_choices":["rightarrow","rightarrow","leftarrow","leftarrow"],"right_color":"orange","left_color":"lightblue","left_mu":40,"right_mu":10,"left_numbers":[36,37,42,45,38,51,52,38,33,31],"right_numbers":[6,7,9,0,0,0,0,1,9,17],"points_earned":343,"phase":"task","trial_type":"horizons-task","trial_index":23,"time_elapsed":441863,"internal_node_id":"0.0-19.0","task_version":"0.2"},{"response_times":[788.3100000035483,407.68499999830965,498.65999999747146,480.60500000428874,1751.2799999967683,492.53000000317115,292.08999998809304,213.92999999807216,190.75499998871237,230.50000000512227],"keys_pressed":["leftarrow","rightarrow","rightarrow","rightarrow","rightarrow","rightarrow","rightarrow","rightarrow","rightarrow","rightarrow"],"horizon":10,"forced_choices":["leftarrow","rightarrow","rightarrow","rightarrow"],"right_color":"lightblue","left_color":"orange","left_mu":60,"right_mu":68,"left_numbers":[51,49,52,59,51,59,53,52,66,69],"right_numbers":[63,62,62,76,68,64,68,66,66,64],"points_earned":647,"phase":"task","trial_type":"horizons-task","trial_index":24,"time_elapsed":448717,"internal_node_id":"0.0-20.0","task_version":"0.2"},{"response_times":[633.205000005546,552.495000010822,421.02999999769963,690.310000005411,1426.0399999911897],"keys_pressed":["leftarrow","leftarrow","rightarrow","rightarrow","rightarrow"],"horizon":5,"forced_choices":["leftarrow","leftarrow","rightarrow","rightarrow"],"right_color":"orange","left_color":"lightblue","left_mu":60,"right_mu":90,"left_numbers":[64,53,68,56,57],"right_numbers":[104,86,106,78,83],"points_earned":384,"phase":"task","trial_type":"horizons-task","trial_index":25,"time_elapsed":453945,"internal_node_id":"0.0-21.0","task_version":"0.2"},{"response_times":[798.9850000012666,389.9950000050012,437.5249999866355,595.0449999945704,1250.4750000080094],"keys_pressed":["leftarrow","rightarrow","leftarrow","rightarrow","leftarrow"],"horizon":5,"forced_choices":["leftarrow","rightarrow","leftarrow","rightarrow"],"right_color":"lightblue","left_color":"orange","left_mu":60,"right_mu":56,"left_numbers":[57,44,53,52,66],"right_numbers":[58,45,38,48,63],"points_earned":269,"phase":"task","trial_type":"horizons-task","trial_index":26,"time_elapsed":458921,"internal_node_id":"0.0-22.0","task_version":"0.2"},{"response_times":[742.7599999937229,481.7299999995157,463.17000000271946,505.87999999697786,900.0799999921583],"keys_pressed":["rightarrow","rightarrow","leftarrow","leftarrow","rightarrow"],"horizon":5,"forced_choices":["rightarrow","rightarrow","leftarrow","leftarrow"],"right_color":"orange","left_color":"lightblue","left_mu":40,"right_mu":70,"left_numbers":[50,28,32,44,46],"right_numbers":[64,69,57,73,79],"points_earned":288,"phase":"task","trial_type":"horizons-task","trial_index":27,"time_elapsed":463522,"internal_node_id":"0.0-23.0","task_version":"0.2"},{"response_times":[722.2399999882327,373.7750000000233,514.8350000090431,443.85999999940395,1887.0249999890802,608.5149999998976,269.67499998863786,165.36500000802334,178.36999999417458,168.77000000386033],"keys_pressed":["leftarrow","rightarrow","rightarrow","leftarrow","leftarrow","leftarrow","leftarrow","leftarrow","leftarrow","leftarrow"],"horizon":10,"forced_choices":["leftarrow","rightarrow","rightarrow","leftarrow"],"right_color":"orange","left_color":"lightblue","left_mu":40,"right_mu":28,"left_numbers":[44,37,40,38,53,42,44,33,40,31],"right_numbers":[40,39,20,35,22,15,8,40,15,11],"points_earned":384,"phase":"task","trial_type":"horizons-task","trial_index":28,"time_elapsed":470360,"internal_node_id":"0.0-24.0","task_version":"0.2"},{"response_times":[827.3250000056578,409.9149999965448,389.259999996284,412.19999999157153,3611.1999999993714],"keys_pressed":["rightarrow","leftarrow","rightarrow","leftarrow","rightarrow"],"horizon":5,"forced_choices":["rightarrow","leftarrow","rightarrow","leftarrow"],"right_color":"lightblue","left_color":"orange","left_mu":60,"right_mu":72,"left_numbers":[81,49,62,75,67],"right_numbers":[84,74,59,68,64],"points_earned":331,"phase":"task","trial_type":"horizons-task","trial_index":29,"time_elapsed":477514,"internal_node_id":"0.0-25.0","task_version":"0.2"},{"response_times":[812.1550000068964,566.6400000045542,618.2499999995343,547.8800000128103,1808.0449999979464,777.7599999972153,828.6349999980303,718.4700000070734,513.9599999965867,550.9449999954086],"keys_pressed":["leftarrow","rightarrow","leftarrow","leftarrow","leftarrow","rightarrow","rightarrow","leftarrow","rightarrow","rightarrow"],"horizon":10,"forced_choices":["leftarrow","rightarrow","leftarrow","leftarrow"],"right_color":"lightblue","left_color":"orange","left_mu":40,"right_mu":48,"left_numbers":[47,38,53,23,32,33,48,45,48,37],"right_numbers":[44,43,46,59,47,57,50,35,48,46],"points_earned":444,"phase":"task","trial_type":"horizons-task","trial_index":30,"time_elapsed":486763,"internal_node_id":"0.0-26.0","task_version":"0.2"},{"response_times":[827.8699999937089,436.8550000071991,506.9599999987986,535.264999998617,1133.3849999937229],"keys_pressed":["leftarrow","leftarrow","leftarrow","rightarrow","rightarrow"],"horizon":5,"forced_choices":["leftarrow","leftarrow","leftarrow","rightarrow"],"right_color":"orange","left_color":"lightblue","left_mu":40,"right_mu":70,"left_numbers":[45,32,39,41,43],"right_numbers":[53,75,74,72,72],"points_earned":260,"phase":"task","trial_type":"horizons-task","trial_index":31,"time_elapsed":491710,"internal_node_id":"0.0-27.0","task_version":"0.2"},{"response_times":[802.0499999984168,453.8699999975506,427.73500000475906,581.1150000081398,2196.28499999817],"keys_pressed":["leftarrow","rightarrow","leftarrow","leftarrow","rightarrow"],"horizon":5,"forced_choices":["leftarrow","rightarrow","leftarrow","leftarrow"],"right_color":"lightblue","left_color":"orange","left_mu":40,"right_mu":48,"left_numbers":[43,34,49,34,34],"right_numbers":[49,56,51,57,41],"points_earned":223,"phase":"task","trial_type":"horizons-task","trial_index":32,"time_elapsed":497676,"internal_node_id":"0.0-28.0","task_version":"0.2"},{"response_times":[592.915000001085,443.650000001071,389.63499999954365,513.6399999901187,1098.710000005667],"keys_pressed":["leftarrow","leftarrow","rightarrow","leftarrow","leftarrow"],"horizon":5,"forced_choices":["leftarrow","leftarrow","rightarrow","leftarrow"],"right_color":"orange","left_color":"lightblue","left_mu":40,"right_mu":10,"left_numbers":[35,40,54,36,26],"right_numbers":[12,10,10,24,26],"points_earned":147,"phase":"task","trial_type":"horizons-task","trial_index":33,"time_elapsed":502221,"internal_node_id":"0.0-29.0","task_version":"0.2"},{"response_times":[513.4650000109104,425.4300000029616,471.90499999851454,461.66999998968095,1249.2550000024494],"keys_pressed":["leftarrow","rightarrow","rightarrow","leftarrow","rightarrow"],"horizon":5,"forced_choices":["leftarrow","rightarrow","rightarrow","leftarrow"],"right_color":"orange","left_color":"lightblue","left_mu":40,"right_mu":52,"left_numbers":[28,40,35,43,33],"right_numbers":[38,54,56,62,33],"points_earned":214,"phase":"task","trial_type":"horizons-task","trial_index":34,"time_elapsed":506848,"internal_node_id":"0.0-30.0","task_version":"0.2"},{"response_times":[611.7000000085682,472.6799999916693,449.2199999949662,460.7149999937974,917.8949999914039],"keys_pressed":["rightarrow","rightarrow","leftarrow","rightarrow","rightarrow"],"horizon":5,"forced_choices":["rightarrow","rightarrow","leftarrow","rightarrow"],"right_color":"orange","left_color":"lightblue","left_mu":40,"right_mu":60,"left_numbers":[46,42,34,33,41],"right_numbers":[53,59,71,67,47],"points_earned":260,"phase":"task","trial_type":"horizons-task","trial_index":35,"time_elapsed":511263,"internal_node_id":"0.0-31.0","task_version":"0.2"},{"response_times":[585.8149999985471,399.7749999980442,406.44000000611413,517.6050000009127,3138.760000001639],"keys_pressed":["rightarrow","leftarrow","leftarrow","leftarrow","rightarrow"],"horizon":5,"forced_choices":["rightarrow","leftarrow","leftarrow","leftarrow"],"right_color":"orange","left_color":"lightblue","left_mu":40,"right_mu":52,"left_numbers":[30,39,33,51,44],"right_numbers":[49,57,46,55,34],"points_earned":206,"phase":"task","trial_type":"horizons-task","trial_index":36,"time_elapsed":517815,"internal_node_id":"0.0-32.0","task_version":"0.2"},{"response_times":[769.1000000049826,852.6649999985239,370.295000000624,459.61000000534113,1164.8950000089826],"keys_pressed":["rightarrow","rightarrow","leftarrow","leftarrow","leftarrow"],"horizon":5,"forced_choices":["rightarrow","rightarrow","leftarrow","leftarrow"],"right_color":"lightblue","left_color":"orange","left_mu":60,"right_mu":30,"left_numbers":[45,72,54,58,69],"right_numbers":[34,40,45,27,26],"points_earned":255,"phase":"task","trial_type":"horizons-task","trial_index":37,"time_elapsed":522940,"internal_node_id":"0.0-33.0","task_version":"0.2"},{"response_times":[562.8999999898952,397.144999995362,411.1049999919487,405.98499999032356,1642.5799999997253,882.2550000040792,931.2099999951897,620.4149999975925,1740.9449999977369,741.2849999964237],"keys_pressed":["rightarrow","leftarrow","leftarrow","rightarrow","leftarrow","rightarrow","rightarrow","leftarrow","rightarrow","leftarrow"],"horizon":10,"forced_choices":["rightarrow","leftarrow","leftarrow","rightarrow"],"right_color":"orange","left_color":"lightblue","left_mu":40,"right_mu":36,"left_numbers":[38,53,32,60,41,46,47,42,35,31],"right_numbers":[28,43,36,47,38,47,35,42,39,26],"points_earned":395,"phase":"task","trial_type":"horizons-task","trial_index":38,"time_elapsed":532781,"internal_node_id":"0.0-34.0","task_version":"0.2"},{"response_times":[747.5749999866821,441.36499999149237,594.5449999999255,679.919999995036,885.3050000034273],"keys_pressed":["leftarrow","rightarrow","rightarrow","leftarrow","leftarrow"],"horizon":5,"forced_choices":["leftarrow","rightarrow","rightarrow","leftarrow"],"right_color":"orange","left_color":"lightblue","left_mu":40,"right_mu":28,"left_numbers":[34,42,46,38,40],"right_numbers":[33,24,17,27,22],"points_earned":153,"phase":"task","trial_type":"horizons-task","trial_index":39,"time_elapsed":537636,"internal_node_id":"0.0-35.0","task_version":"0.2"},{"response_times":[687.1450000035111,405.6350000028033,653.9400000037858,526.9249999983003,1455.7449999992969,836.1350000050152,629.5899999968242,471.4550000062445,404.35500000603497,162.1900000027381],"keys_pressed":["rightarrow","leftarrow","rightarrow","rightarrow","leftarrow","leftarrow","rightarrow","leftarrow","leftarrow","leftarrow"],"horizon":10,"forced_choices":["rightarrow","leftarrow","rightarrow","rightarrow"],"right_color":"lightblue","left_color":"orange","left_mu":40,"right_mu":20,"left_numbers":[49,23,43,37,32,49,35,50,52,49],"right_numbers":[19,33,21,23,20,15,19,18,13,24],"points_earned":337,"phase":"task","trial_type":"horizons-task","trial_index":40,"time_elapsed":545374,"internal_node_id":"0.0-36.0","task_version":"0.2"},{"response_times":[604.1950000071665,383.2949999923585,376.83999999717344,485.0849999929778,1754.449999993085,644.3800000124611,374.1250000020955,184.38000000605825,166.3750000006985,231.51500000676606],"keys_pressed":["leftarrow","rightarrow","leftarrow","rightarrow","leftarrow","leftarrow","leftarrow","leftarrow","leftarrow","leftarrow"],"horizon":10,"forced_choices":["leftarrow","rightarrow","leftarrow","rightarrow"],"right_color":"orange","left_color":"lightblue","left_mu":60,"right_mu":48,"left_numbers":[47,62,52,64,65,54,54,48,60,60],"right_numbers":[59,39,60,44,51,61,47,61,56,39],"points_earned":523,"phase":"task","trial_type":"horizons-task","trial_index":41,"time_elapsed":552085,"internal_node_id":"0.0-37.0","task_version":"0.2"},{"response_times":[775.6349999981467,379.4199999974808,726.5599999955157,612.3499999957858,822.1049999992829],"keys_pressed":["rightarrow","leftarrow","leftarrow","rightarrow","rightarrow"],"horizon":5,"forced_choices":["rightarrow","leftarrow","leftarrow","rightarrow"],"right_color":"lightblue","left_color":"orange","left_mu":60,"right_mu":80,"left_numbers":[45,48,69,66,63],"right_numbers":[77,78,89,71,74],"points_earned":339,"phase":"task","trial_type":"horizons-task","trial_index":42,"time_elapsed":556907,"internal_node_id":"0.0-38.0","task_version":"0.2"},{"response_times":[655.719999995199,371.8150000058813,426.4300000068033,443.4650000039255,2392.779999994673,709.3800000002375,422.1350000007078,242.5399999920046,199.84000000113156,284.509999997681],"keys_pressed":["rightarrow","leftarrow","rightarrow","leftarrow","rightarrow","rightarrow","rightarrow","rightarrow","rightarrow","rightarrow"],"horizon":10,"forced_choices":["rightarrow","leftarrow","rightarrow","leftarrow"],"right_color":"lightblue","left_color":"orange","left_mu":60,"right_mu":72,"left_numbers":[56,54,67,62,59,65,60,52,56,59],"right_numbers":[75,65,65,70,79,66,73,71,77,57],"points_earned":679,"phase":"task","trial_type":"horizons-task","trial_index":43,"time_elapsed":564563,"internal_node_id":"0.0-39.0","task_version":"0.2"},{"response_times":[613.0499999999302,379.5000000100117,622.4800000054529,687.8399999986868,1602.2649999940768],"keys_pressed":["rightarrow","leftarrow","rightarrow","leftarrow","leftarrow"],"horizon":5,"forced_choices":["rightarrow","leftarrow","rightarrow","leftarrow"],"right_color":"lightblue","left_color":"orange","left_mu":60,"right_mu":68,"left_numbers":[60,60,71,60,56],"right_numbers":[57,79,57,61,70],"points_earned":290,"phase":"task","trial_type":"horizons-task","trial_index":44,"time_elapsed":569973,"internal_node_id":"0.0-40.0","task_version":"0.2"},{"response_times":[594.5449999999255,439.7400000016205,504.86000000091735,590.5749999947147,988.9899999980116],"keys_pressed":["leftarrow","leftarrow","leftarrow","rightarrow","rightarrow"],"horizon":5,"forced_choices":["leftarrow","leftarrow","leftarrow","rightarrow"],"right_color":"lightblue","left_color":"orange","left_mu":60,"right_mu":72,"left_numbers":[68,63,59,52,71],"right_numbers":[76,86,75,81,67],"points_earned":338,"phase":"task","trial_type":"horizons-task","trial_index":45,"time_elapsed":574596,"internal_node_id":"0.0-41.0","task_version":"0.2"},{"response_times":[788.70000000461,470.4749999946216,376.5399999974761,663.379999998142,1644.8099999979604,505.8350000035716,305.15500000910833,203.35999999952037,176.4100000000326,189.9050000065472],"keys_pressed":["leftarrow","leftarrow","rightarrow","leftarrow","leftarrow","leftarrow","leftarrow","leftarrow","leftarrow","leftarrow"],"horizon":10,"forced_choices":["leftarrow","leftarrow","rightarrow","leftarrow"],"right_color":"orange","left_color":"lightblue","left_mu":40,"right_mu":10,"left_numbers":[26,51,37,41,25,43,50,30,54,43],"right_numbers":[3,15,12,31,13,13,0,14,10,27],"points_earned":375,"phase":"task","trial_type":"horizons-task","trial_index":46,"time_elapsed":581428,"internal_node_id":"0.0-42.0","task_version":"0.2"},{"response_times":[613.4449999954086,437.2799999982817,475.8399999991525,1131.8800000008196,913.9600000053179,358.3700000017416,204.2350000119768,188.50999999267515,207.6999999990221,285.23999999742955],"keys_pressed":["leftarrow","leftarrow","rightarrow","rightarrow","rightarrow","rightarrow","rightarrow","rightarrow","rightarrow","rightarrow"],"horizon":10,"forced_choices":["leftarrow","leftarrow","rightarrow","rightarrow"],"right_color":"orange","left_color":"lightblue","left_mu":60,"right_mu":90,"left_numbers":[57,57,61,57,49,48,55,65,51,58],"right_numbers":[82,83,95,91,94,86,87,96,84,96],"points_earned":843,"phase":"task","trial_type":"horizons-task","trial_index":47,"time_elapsed":587750,"internal_node_id":"0.0-43.0","task_version":"0.2"},{"response_times":[757.8250000078697,394.0149999980349,424.75000000558794,513.7399999948684,969.7049999958836],"keys_pressed":["rightarrow","leftarrow","leftarrow","leftarrow","leftarrow"],"horizon":5,"forced_choices":["rightarrow","leftarrow","leftarrow","leftarrow"],"right_color":"orange","left_color":"lightblue","left_mu":60,"right_mu":48,"left_numbers":[56,75,57,59,55],"right_numbers":[46,55,22,41,60],"points_earned":292,"phase":"task","trial_type":"horizons-task","trial_index":48,"time_elapsed":592316,"internal_node_id":"0.0-44.0","task_version":"0.2"},{"response_times":[790.7750000013039,539.6400000026915,488.0949999933364,1033.2800000032876,1918.2850000070175,813.2599999953527,411.6349999967497,168.55999999097548,165.92500000842847,166.30500000610482],"keys_pressed":["rightarrow","leftarrow","leftarrow","rightarrow","leftarrow","rightarrow","leftarrow","leftarrow","leftarrow","leftarrow"],"horizon":10,"forced_choices":["rightarrow","leftarrow","leftarrow","rightarrow"],"right_color":"orange","left_color":"lightblue","left_mu":40,"right_mu":32,"left_numbers":[30,44,42,50,49,51,34,35,40,33],"right_numbers":[41,27,38,34,34,22,38,29,26,41],"points_earned":374,"phase":"task","trial_type":"horizons-task","trial_index":49,"time_elapsed":600318,"internal_node_id":"0.0-45.0","task_version":"0.2"},{"response_times":[15670.429999998305,474.5600000023842,484.86499999125954,670.4849999950966,927.1699999953853,620.5250000057276,618.800000011106,632.225000008475,344.9350000009872,572.2450000030221],"keys_pressed":["leftarrow","leftarrow","rightarrow","leftarrow","rightarrow","rightarrow","leftarrow","rightarrow","leftarrow","rightarrow"],"horizon":10,"forced_choices":["leftarrow","leftarrow","rightarrow","leftarrow"],"right_color":"lightblue","left_color":"orange","left_mu":60,"right_mu":56,"left_numbers":[60,60,57,46,50,61,49,65,50,71],"right_numbers":[74,48,52,47,56,51,50,65,61,57],"points_earned":546,"phase":"task","trial_type":"horizons-task","trial_index":50,"time_elapsed":622841,"internal_node_id":"0.0-46.0","task_version":"0.2"},{"view_history":"[{\"page_index\":0,\"viewing_time\":1784.540000007837},{\"page_index\":1,\"viewing_time\":1791.3949999929173}]","rt":3577.095000000554,"trial_type":"instructions","trial_index":51,"time_elapsed":626421,"internal_node_id":"0.0-47.0","task_version":"0.2"},{"response_times":[970.9149999980582,455.5549999931827,421.95999999239575,400.7350000028964,1242.9249999986496],"keys_pressed":["leftarrow","leftarrow","rightarrow","rightarrow","rightarrow"],"horizon":5,"forced_choices":["leftarrow","leftarrow","rightarrow","rightarrow"],"right_color":"orange","left_color":"lightblue","left_mu":40,"right_mu":44,"left_numbers":[30,41,38,31,41],"right_numbers":[46,43,45,43,50],"points_earned":209,"phase":"task","trial_type":"horizons-task","trial_index":52,"time_elapsed":631435,"internal_node_id":"0.0-48.0","task_version":"0.2"},{"response_times":[683.6449999973411,364.8200000025099,403.64999999292195,459.8499999992782,1443.0600000050617,724.8749999998836,915.8150000002934,421.28999999840744,481.75500000070315,245.45499999658205],"keys_pressed":["rightarrow","leftarrow","leftarrow","leftarrow","rightarrow","rightarrow","leftarrow","rightarrow","rightarrow","rightarrow"],"horizon":10,"forced_choices":["rightarrow","leftarrow","leftarrow","leftarrow"],"right_color":"orange","left_color":"lightblue","left_mu":40,"right_mu":52,"left_numbers":[36,41,39,47,35,48,38,46,38,25],"right_numbers":[46,53,47,58,55,40,53,44,50,45],"points_earned":445,"phase":"task","trial_type":"horizons-task","trial_index":53,"time_elapsed":639085,"internal_node_id":"0.0-49.0","task_version":"0.2"},{"response_times":[582.5350000086473,397.369999991497,441.0349999961909,412.6049999904353,801.194999992731,746.644999991986,527.1300000022165,197.86000000021886,149.65000000665896,255.95500000054017],"keys_pressed":["leftarrow","leftarrow","leftarrow","rightarrow","rightarrow","rightarrow","rightarrow","rightarrow","rightarrow","rightarrow"],"horizon":10,"forced_choices":["leftarrow","leftarrow","leftarrow","rightarrow"],"right_color":"lightblue","left_color":"orange","left_mu":60,"right_mu":72,"left_numbers":[65,42,54,58,65,46,51,70,55,63],"right_numbers":[80,70,63,75,74,79,79,71,68,71],"points_earned":678,"phase":"task","trial_type":"horizons-task","trial_index":54,"time_elapsed":645104,"internal_node_id":"0.0-50.0","task_version":"0.2"},{"response_times":[617.9899999988265,359.86500000581145,417.4550000025192,602.8150000056485,1020.4550000053132],"keys_pressed":["rightarrow","leftarrow","leftarrow","leftarrow","leftarrow"],"horizon":5,"forced_choices":["rightarrow","leftarrow","leftarrow","leftarrow"],"right_color":"lightblue","left_color":"orange","left_mu":60,"right_mu":52,"left_numbers":[64,79,57,64,60],"right_numbers":[52,59,62,47,43],"points_earned":312,"phase":"task","trial_type":"horizons-task","trial_index":55,"time_elapsed":649627,"internal_node_id":"0.0-51.0","task_version":"0.2"},{"response_times":[608.5250000032829,401.63000000757165,388.39500000176486,523.9699999947334,1083.1750000070315,667.5199999881443,429.23000000882894,586.3899999967543,471.12999999080785,3080.694999996922],"keys_pressed":["leftarrow","leftarrow","rightarrow","leftarrow","rightarrow","rightarrow","leftarrow","leftarrow","rightarrow","leftarrow"],"horizon":10,"forced_choices":["leftarrow","leftarrow","rightarrow","leftarrow"],"right_color":"orange","left_color":"lightblue","left_mu":40,"right_mu":44,"left_numbers":[41,23,49,38,45,42,44,32,40,41],"right_numbers":[51,38,40,53,42,31,41,44,40,41],"points_earned":372,"phase":"task","trial_type":"horizons-task","trial_index":56,"time_elapsed":659374,"internal_node_id":"0.0-52.0","task_version":"0.2"},{"response_times":[699.3899999943096,389.08000000810716,415.3049999877112,1463.465000008,1018.7449999939417],"keys_pressed":["rightarrow","leftarrow","rightarrow","rightarrow","leftarrow"],"horizon":5,"forced_choices":["rightarrow","leftarrow","rightarrow","rightarrow"],"right_color":"lightblue","left_color":"orange","left_mu":40,"right_mu":20,"left_numbers":[49,40,50,41,40],"right_numbers":[32,14,2,16,30],"points_earned":130,"phase":"task","trial_type":"horizons-task","trial_index":57,"time_elapsed":664866,"internal_node_id":"0.0-53.0","task_version":"0.2"},{"response_times":[742.8349999972852,403.214999998454,421.8350000010105,696.7399999994086,936.5950000064913],"keys_pressed":["leftarrow","rightarrow","leftarrow","rightarrow","leftarrow"],"horizon":5,"forced_choices":["leftarrow","rightarrow","leftarrow","rightarrow"],"right_color":"orange","left_color":"lightblue","left_mu":60,"right_mu":48,"left_numbers":[44,61,50,55,53],"right_numbers":[47,31,50,48,57],"points_earned":226,"phase":"task","trial_type":"horizons-task","trial_index":58,"time_elapsed":669573,"internal_node_id":"0.0-54.0","task_version":"0.2"},{"response_times":[465.92500001133885,424.80999999679625,480.88499999721535,404.8999999940861,1223.4499999904074],"keys_pressed":["leftarrow","rightarrow","rightarrow","leftarrow","leftarrow"],"horizon":5,"forced_choices":["leftarrow","rightarrow","rightarrow","leftarrow"],"right_color":"lightblue","left_color":"orange","left_mu":40,"right_mu":20,"left_numbers":[57,49,42,44,37],"right_numbers":[19,24,7,20,13],"points_earned":169,"phase":"task","trial_type":"horizons-task","trial_index":59,"time_elapsed":674078,"internal_node_id":"0.0-55.0","task_version":"0.2"},{"response_times":[633.6300000111805,382.5000000069849,421.97999999916647,442.4599999911152,1762.075000006007,654.4600000052014,389.7200000064913,284.75000000617,414.90499999781605,364.5050000050105],"keys_pressed":["rightarrow","leftarrow","leftarrow","rightarrow","rightarrow","rightarrow","rightarrow","rightarrow","rightarrow","rightarrow"],"horizon":10,"forced_choices":["rightarrow","leftarrow","leftarrow","rightarrow"],"right_color":"lightblue","left_color":"orange","left_mu":60,"right_mu":80,"left_numbers":[51,57,69,58,62,55,52,54,58,68],"right_numbers":[91,85,80,77,80,78,67,88,78,75],"points_earned":760,"phase":"task","trial_type":"horizons-task","trial_index":60,"time_elapsed":681336,"internal_node_id":"0.0-56.0","task_version":"0.2"},{"response_times":[701.4699999999721,482.319999995525,498.4950000070967,453.9400000066962,1105.6799999932991,357.8399999969406,231.70499999832828,203.63000000361353,179.39499999920372,147.63000000675675],"keys_pressed":["leftarrow","rightarrow","leftarrow","rightarrow","rightarrow","rightarrow","rightarrow","rightarrow","rightarrow","rightarrow"],"horizon":10,"forced_choices":["leftarrow","rightarrow","leftarrow","rightarrow"],"right_color":"orange","left_color":"lightblue","left_mu":40,"right_mu":60,"left_numbers":[39,42,29,40,44,41,51,53,44,40],"right_numbers":[53,66,59,61,49,52,66,59,58,62],"points_earned":541,"phase":"task","trial_type":"horizons-task","trial_index":61,"time_elapsed":687203,"internal_node_id":"0.0-57.0","task_version":"0.2"},{"response_times":[723.3799999958137,566.290000002482,434.69500000355765,516.7300000030082,2375.500000009197],"keys_pressed":["rightarrow","rightarrow","rightarrow","leftarrow","rightarrow"],"horizon":5,"forced_choices":["rightarrow","rightarrow","rightarrow","leftarrow"],"right_color":"lightblue","left_color":"orange","left_mu":60,"right_mu":64,"left_numbers":[64,50,66,61,54],"right_numbers":[54,57,62,76,61],"points_earned":295,"phase":"task","trial_type":"horizons-task","trial_index":62,"time_elapsed":693326,"internal_node_id":"0.0-58.0","task_version":"0.2"},{"response_times":[571.8100000085542,505.69499999983236,537.2499999939464,590.8400000043912,1462.0649999997113],"keys_pressed":["leftarrow","leftarrow","rightarrow","leftarrow","rightarrow"],"horizon":5,"forced_choices":["leftarrow","leftarrow","rightarrow","leftarrow"],"right_color":"lightblue","left_color":"orange","left_mu":60,"right_mu":56,"left_numbers":[45,48,60,70,63],"right_numbers":[55,66,65,61,63],"points_earned":291,"phase":"task","trial_type":"horizons-task","trial_index":63,"time_elapsed":698501,"internal_node_id":"0.0-59.0","task_version":"0.2"},{"response_times":[605.4100000037579,403.2500000030268,441.2350000056904,483.5399999865331,1213.0699999979697,349.9350000056438,257.41000000562053,214.8250000027474,182.53000000549946,421.90499999560416],"keys_pressed":["rightarrow","rightarrow","leftarrow","rightarrow","rightarrow","rightarrow","rightarrow","rightarrow","rightarrow","rightarrow"],"horizon":10,"forced_choices":["rightarrow","rightarrow","leftarrow","rightarrow"],"right_color":"orange","left_color":"lightblue","left_mu":60,"right_mu":90,"left_numbers":[66,47,53,57,71,60,63,62,66,65],"right_numbers":[94,75,80,92,93,88,95,101,73,81],"points_earned":845,"phase":"task","trial_type":"horizons-task","trial_index":64,"time_elapsed":704581,"internal_node_id":"0.0-60.0","task_version":"0.2"},{"response_times":[592.0199999964098,395.83500000298955,436.30999999004416,402.26000000257045,1525.4999999888241,464.124999998603,471.76000000035856,182.54999999771826,182.20999999903142,141.18500000040513],"keys_pressed":["leftarrow","leftarrow","leftarrow","rightarrow","rightarrow","rightarrow","rightarrow","rightarrow","rightarrow","rightarrow"],"horizon":10,"forced_choices":["leftarrow","leftarrow","leftarrow","rightarrow"],"right_color":"orange","left_color":"lightblue","left_mu":40,"right_mu":70,"left_numbers":[39,46,31,31,43,50,35,39,29,50],"right_numbers":[73,77,77,74,56,57,72,78,64,56],"points_earned":573,"phase":"task","trial_type":"horizons-task","trial_index":65,"time_elapsed":710882,"internal_node_id":"0.0-61.0","task_version":"0.2"},{"response_times":[554.6099999919534,461.63000000524335,379.5300000056159,445.9050000004936,1178.9649999991525,2422.774999999092,1133.2099999999627,523.0299999966519,619.474999999511,654.6700000035344],"keys_pressed":["leftarrow","leftarrow","rightarrow","rightarrow","leftarrow","rightarrow","leftarrow","rightarrow","leftarrow","rightarrow"],"horizon":10,"forced_choices":["leftarrow","leftarrow","rightarrow","rightarrow"],"right_color":"orange","left_color":"lightblue","left_mu":40,"right_mu":44,"left_numbers":[41,45,43,65,37,33,40,34,34,39],"right_numbers":[57,56,34,37,32,41,30,40,52,34],"points_earned":383,"phase":"task","trial_type":"horizons-task","trial_index":66,"time_elapsed":720762,"internal_node_id":"0.0-62.0","task_version":"0.2"},{"response_times":[712.5300000043353,372.38000000070315,601.4549999963492,695.5149999994319,3048.6800000071526],"keys_pressed":["rightarrow","leftarrow","rightarrow","leftarrow","leftarrow"],"horizon":5,"forced_choices":["rightarrow","leftarrow","rightarrow","leftarrow"],"right_color":"lightblue","left_color":"orange","left_mu":60,"right_mu":40,"left_numbers":[57,53,51,49,52],"right_numbers":[32,33,59,37,46],"points_earned":245,"phase":"task","trial_type":"horizons-task","trial_index":67,"time_elapsed":727698,"internal_node_id":"0.0-63.0","task_version":"0.2"},{"response_times":[620.5400000035297,386.35499999509193,450.5900000076508,414.00000000430737,1559.704999992391,401.400000002468,651.4400000014575,453.09500000439584,546.0000000020955,202.03000000037719],"keys_pressed":["leftarrow","rightarrow","rightarrow","leftarrow","leftarrow","rightarrow","rightarrow","rightarrow","rightarrow","rightarrow"],"horizon":10,"forced_choices":["leftarrow","rightarrow","rightarrow","leftarrow"],"right_color":"orange","left_color":"lightblue","left_mu":40,"right_mu":52,"left_numbers":[51,51,43,43,33,58,53,40,34,41],"right_numbers":[50,47,49,55,49,67,33,49,48,52],"points_earned":472,"phase":"task","trial_type":"horizons-task","trial_index":68,"time_elapsed":734887,"internal_node_id":"0.0-64.0","task_version":"0.2"},{"response_times":[523.1649999914225,358.14500000560656,466.87000000383705,418.8549999962561,1064.5599999988917,2248.4800000092946,756.0349999985192,400.6449999869801,152.34000000054948,163.42000001168344],"keys_pressed":["rightarrow","leftarrow","leftarrow","rightarrow","leftarrow","leftarrow","rightarrow","leftarrow","leftarrow","leftarrow"],"horizon":10,"forced_choices":["rightarrow","leftarrow","leftarrow","rightarrow"],"right_color":"lightblue","left_color":"orange","left_mu":60,"right_mu":52,"left_numbers":[48,57,73,55,58,59,70,63,61,73],"right_numbers":[42,42,47,72,56,46,47,54,54,49],"points_earned":605,"phase":"task","trial_type":"horizons-task","trial_index":69,"time_elapsed":742946,"internal_node_id":"0.0-65.0","task_version":"0.2"},{"response_times":[613.4749999910127,372.02999999863096,664.1300000046613,537.6149999938207,1779.4649999996182,486.62000001058914,566.7899999971269,520.715000006021,507.88000000466127,208.9750000013737],"keys_pressed":["leftarrow","rightarrow","leftarrow","rightarrow","leftarrow","rightarrow","leftarrow","rightarrow","leftarrow","leftarrow"],"horizon":10,"forced_choices":["leftarrow","rightarrow","leftarrow","rightarrow"],"right_color":"lightblue","left_color":"orange","left_mu":40,"right_mu":48,"left_numbers":[46,33,43,38,41,38,39,44,40,42],"right_numbers":[38,49,34,39,45,40,34,29,40,52],"points_earned":408,"phase":"task","trial_type":"horizons-task","trial_index":70,"time_elapsed":750708,"internal_node_id":"0.0-66.0","task_version":"0.2"},{"response_times":[547.9950000008103,415.5100000061793,398.1000000057975,435.2250000083586,1346.6950000001816],"keys_pressed":["leftarrow","rightarrow","leftarrow","rightarrow","rightarrow"],"horizon":5,"forced_choices":["leftarrow","rightarrow","leftarrow","rightarrow"],"right_color":"orange","left_color":"lightblue","left_mu":40,"right_mu":60,"left_numbers":[37,31,30,52,47],"right_numbers":[53,38,59,58,67],"points_earned":230,"phase":"task","trial_type":"horizons-task","trial_index":71,"time_elapsed":755359,"internal_node_id":"0.0-67.0","task_version":"0.2"},{"response_times":[591.9250000006286,439.4400000019232,410.85000000020955,474.1500000091037,1281.489999993937,489.6349999908125,564.2649999936111,442.960000000312,300.81000000063796,162.72000000753906],"keys_pressed":["rightarrow","rightarrow","leftarrow","rightarrow","leftarrow","leftarrow","rightarrow","leftarrow","leftarrow","leftarrow"],"horizon":10,"forced_choices":["rightarrow","rightarrow","leftarrow","rightarrow"],"right_color":"orange","left_color":"lightblue","left_mu":40,"right_mu":36,"left_numbers":[27,57,45,43,33,37,39,33,36,36],"right_numbers":[39,34,48,28,26,30,33,25,39,34],"points_earned":354,"phase":"task","trial_type":"horizons-task","trial_index":72,"time_elapsed":762022,"internal_node_id":"0.0-68.0","task_version":"0.2"},{"response_times":[690.0099999911617,347.03499999886844,468.3950000035111,490.1949999912176,1238.3049999916693,1028.3349999954225,699.9700000014855,514.6999999997206,753.1549999985145,509.06499999109656],"keys_pressed":["rightarrow","leftarrow","leftarrow","leftarrow","rightarrow","leftarrow","leftarrow","rightarrow","leftarrow","leftarrow"],"horizon":10,"forced_choices":["rightarrow","leftarrow","leftarrow","leftarrow"],"right_color":"lightblue","left_color":"orange","left_mu":60,"right_mu":52,"left_numbers":[73,68,58,52,48,61,54,59,62,55],"right_numbers":[56,56,59,53,61,55,39,58,44,53],"points_earned":585,"phase":"task","trial_type":"horizons-task","trial_index":73,"time_elapsed":770269,"internal_node_id":"0.0-69.0","task_version":"0.2"},{"response_times":[732.7399999921909,512.5549999938812,557.8899999964051,430.5900000035763,843.7549999944167,188.65999999979977,192.349999997532,200.82500000717118,168.21999999228865,157.73999999510124],"keys_pressed":["rightarrow","rightarrow","leftarrow","leftarrow","rightarrow","rightarrow","rightarrow","rightarrow","rightarrow","rightarrow"],"horizon":10,"forced_choices":["rightarrow","rightarrow","leftarrow","leftarrow"],"right_color":"orange","left_color":"lightblue","left_mu":40,"right_mu":70,"left_numbers":[38,41,30,36,35,49,29,57,36,43],"right_numbers":[79,69,66,69,89,80,68,72,76,79],"points_earned":678,"phase":"task","trial_type":"horizons-task","trial_index":74,"time_elapsed":775760,"internal_node_id":"0.0-70.0","task_version":"0.2"},{"response_times":[637.7300000021933,429.61999999533873,431.71999999322,1180.9199999988778,1020.9500000055414],"keys_pressed":["leftarrow","rightarrow","rightarrow","rightarrow","rightarrow"],"horizon":5,"forced_choices":["leftarrow","rightarrow","rightarrow","rightarrow"],"right_color":"lightblue","left_color":"orange","left_mu":60,"right_mu":68,"left_numbers":[62,62,65,69,71],"right_numbers":[48,80,72,65,67],"points_earned":346,"phase":"task","trial_type":"horizons-task","trial_index":75,"time_elapsed":780967,"internal_node_id":"0.0-71.0","task_version":"0.2"},{"response_times":[605.970000004163,482.5949999940349,498.9300000015646,652.7400000049965,905.2899999951478],"keys_pressed":["leftarrow","rightarrow","rightarrow","rightarrow","leftarrow"],"horizon":5,"forced_choices":["leftarrow","rightarrow","rightarrow","rightarrow"],"right_color":"lightblue","left_color":"orange","left_mu":60,"right_mu":30,"left_numbers":[51,52,77,56,49],"right_numbers":[35,33,39,38,22],"points_earned":210,"phase":"task","trial_type":"horizons-task","trial_index":76,"time_elapsed":785617,"internal_node_id":"0.0-72.0","task_version":"0.2"},{"response_times":[2058.0300000001444,491.86500000359956,541.2899999937508,476.85000000637956,1331.335000009858,1132.629999992787,381.0000000084983,514.629999990575,470.6399999995483,262.4400000058813],"keys_pressed":["rightarrow","rightarrow","rightarrow","leftarrow","leftarrow","leftarrow","rightarrow","leftarrow","leftarrow","leftarrow"],"horizon":10,"forced_choices":["rightarrow","rightarrow","rightarrow","leftarrow"],"right_color":"lightblue","left_color":"orange","left_mu":60,"right_mu":64,"left_numbers":[56,48,57,59,56,57,55,70,66,52],"right_numbers":[62,59,59,66,64,69,47,54,53,67],"points_earned":587,"phase":"task","trial_type":"horizons-task","trial_index":77,"time_elapsed":794782,"internal_node_id":"0.0-73.0","task_version":"0.2"},{"response_times":[656.4700000017183,405.4199999955017,472.0600000000559,617.8400000062538,567.0350000000326,382.660000002943,241.55500000051688,166.27499999594875,182.30499999481253,158.16500000073574],"keys_pressed":["leftarrow","rightarrow","leftarrow","leftarrow","rightarrow","leftarrow","leftarrow","leftarrow","leftarrow","leftarrow"],"horizon":10,"forced_choices":["leftarrow","rightarrow","leftarrow","leftarrow"],"right_color":"orange","left_color":"lightblue","left_mu":40,"right_mu":28,"left_numbers":[53,37,35,47,36,38,42,31,28,41],"right_numbers":[38,24,34,33,15,18,24,42,28,32],"points_earned":354,"phase":"task","trial_type":"horizons-task","trial_index":78,"time_elapsed":800166,"internal_node_id":"0.0-74.0","task_version":"0.2"},{"response_times":[540.6650000077207,514.3150000076275,557.7499999926658,549.7100000065984,1249.9799999932293],"keys_pressed":["leftarrow","leftarrow","rightarrow","leftarrow","rightarrow"],"horizon":5,"forced_choices":["leftarrow","leftarrow","rightarrow","leftarrow"],"right_color":"orange","left_color":"lightblue","left_mu":40,"right_mu":44,"left_numbers":[34,42,37,33,26],"right_numbers":[50,44,57,34,45],"points_earned":211,"phase":"task","trial_type":"horizons-task","trial_index":79,"time_elapsed":805083,"internal_node_id":"0.0-75.0","task_version":"0.2"},{"response_times":[757.7099999907659,505.50500000827014,490.3950000007171,714.4049999915296,753.7549999979092,470.9550000115996,215.06000000226777,187.49499999103136,161.95500000321772,157.7850000030594],"keys_pressed":["rightarrow","rightarrow","leftarrow","leftarrow","leftarrow","leftarrow","leftarrow","leftarrow","leftarrow","leftarrow"],"horizon":10,"forced_choices":["rightarrow","rightarrow","leftarrow","leftarrow"],"right_color":"lightblue","left_color":"orange","left_mu":60,"right_mu":30,"left_numbers":[56,65,63,71,58,57,53,58,58,65],"right_numbers":[23,22,30,40,22,35,27,32,27,19],"points_earned":528,"phase":"task","trial_type":"horizons-task","trial_index":80,"time_elapsed":811004,"internal_node_id":"0.0-76.0","task_version":"0.2"},{"response_times":[611.3099999929545,391.44999999552965,439.16999999783,410.9100000059698,1162.7949999965494],"keys_pressed":["rightarrow","leftarrow","leftarrow","rightarrow","leftarrow"],"horizon":5,"forced_choices":["rightarrow","leftarrow","leftarrow","rightarrow"],"right_color":"orange","left_color":"lightblue","left_mu":40,"right_mu":32,"left_numbers":[33,45,46,40,44],"right_numbers":[22,12,40,45,24],"points_earned":202,"phase":"task","trial_type":"horizons-task","trial_index":81,"time_elapsed":815525,"internal_node_id":"0.0-77.0","task_version":"0.2"},{"response_times":[677.030000006198,442.204999999376,462.92499999981374,565.759999997681,2664.615000001504,636.9100000010803,698.8299999939045,466.3450000080047,213.94999999029096,249.68999999691732],"keys_pressed":["leftarrow","rightarrow","rightarrow","leftarrow","leftarrow","leftarrow","leftarrow","leftarrow","leftarrow","leftarrow"],"horizon":10,"forced_choices":["leftarrow","rightarrow","rightarrow","leftarrow"],"right_color":"lightblue","left_color":"orange","left_mu":40,"right_mu":20,"left_numbers":[35,42,42,40,45,42,32,43,40,36],"right_numbers":[17,15,17,20,25,18,16,12,14,33],"points_earned":345,"phase":"task","trial_type":"horizons-task","trial_index":82,"time_elapsed":824109,"internal_node_id":"0.0-78.0","task_version":"0.2"},{"response_times":[688.4399999980815,372.1499999955995,447.4000000045635,467.10999999777414,991.6300000040792],"keys_pressed":["rightarrow","leftarrow","leftarrow","rightarrow","leftarrow"],"horizon":5,"forced_choices":["rightarrow","leftarrow","leftarrow","rightarrow"],"right_color":"lightblue","left_color":"orange","left_mu":60,"right_mu":52,"left_numbers":[48,63,69,61,57],"right_numbers":[54,50,49,50,51],"points_earned":293,"phase":"task","trial_type":"horizons-task","trial_index":83,"time_elapsed":828582,"internal_node_id":"0.0-79.0","task_version":"0.2"},{"response_times":[633.0949999974109,496.4449999970384,436.3149999990128,512.4150000046939,1576.6850000072736,1554.9750000063796,440.26499999745283,340.02000000327826,157.97500000917353,337.46000000974163],"keys_pressed":["rightarrow","rightarrow","leftarrow","rightarrow","rightarrow","leftarrow","rightarrow","rightarrow","rightarrow","rightarrow"],"horizon":10,"forced_choices":["rightarrow","rightarrow","leftarrow","rightarrow"],"right_color":"orange","left_color":"lightblue","left_mu":40,"right_mu":60,"left_numbers":[29,36,52,37,47,44,50,44,40,38],"right_numbers":[64,55,48,58,64,64,52,48,67,54],"points_earned":558,"phase":"task","trial_type":"horizons-task","trial_index":84,"time_elapsed":836573,"internal_node_id":"0.0-80.0","task_version":"0.2"},{"response_times":[782.839999999851,434.5399999874644,626.8750000017462,442.69500000518747,1287.7949999965494,588.6150000005728,233.10999998648185,201.52499999676365,200.1250000030268,154.7300000092946],"keys_pressed":["rightarrow","leftarrow","rightarrow","leftarrow","rightarrow","rightarrow","rightarrow","rightarrow","rightarrow","rightarrow"],"horizon":10,"forced_choices":["rightarrow","leftarrow","rightarrow","leftarrow"],"right_color":"lightblue","left_color":"orange","left_mu":60,"right_mu":68,"left_numbers":[52,45,62,57,68,57,79,63,53,58],"right_numbers":[79,62,67,69,83,74,71,71,68,78],"points_earned":693,"phase":"task","trial_type":"horizons-task","trial_index":85,"time_elapsed":843032,"internal_node_id":"0.0-81.0","task_version":"0.2"},{"response_times":[499.5950000011362,420.4700000118464,425.75500000384636,705.7849999982864,1296.6549999982817],"keys_pressed":["leftarrow","leftarrow","rightarrow","rightarrow","rightarrow"],"horizon":5,"forced_choices":["leftarrow","leftarrow","rightarrow","rightarrow"],"right_color":"lightblue","left_color":"orange","left_mu":60,"right_mu":64,"left_numbers":[57,49,43,59,56],"right_numbers":[64,63,80,77,52],"points_earned":315,"phase":"task","trial_type":"horizons-task","trial_index":86,"time_elapsed":847884,"internal_node_id":"0.0-82.0","task_version":"0.2"},{"response_times":[778.680000003078,480.10499999509193,449.34000000648666,569.1399999923306,925.3299999982119],"keys_pressed":["rightarrow","rightarrow","leftarrow","rightarrow","rightarrow"],"horizon":5,"forced_choices":["rightarrow","rightarrow","leftarrow","rightarrow"],"right_color":"orange","left_color":"lightblue","left_mu":60,"right_mu":90,"left_numbers":[73,56,61,69,67],"right_numbers":[82,82,81,82,81],"points_earned":388,"phase":"task","trial_type":"horizons-task","trial_index":87,"time_elapsed":852593,"internal_node_id":"0.0-83.0","task_version":"0.2"},{"response_times":[781.715000004624,434.979999990901,397.6800000091316,469.5249999931548,1125.0049999944167,784.444999997504,750.7100000075297,223.72500000346918,165.75999998894986,160.9500000049593],"keys_pressed":["leftarrow","rightarrow","rightarrow","rightarrow","leftarrow","leftarrow","leftarrow","leftarrow","leftarrow","leftarrow"],"horizon":10,"forced_choices":["leftarrow","rightarrow","rightarrow","rightarrow"],"right_color":"lightblue","left_color":"orange","left_mu":60,"right_mu":30,"left_numbers":[59,60,54,71,53,59,68,51,62,50],"right_numbers":[25,42,25,11,27,31,24,36,32,27],"points_earned":480,"phase":"task","trial_type":"horizons-task","trial_index":88,"time_elapsed":859394,"internal_node_id":"0.0-84.0","task_version":"0.2"},{"response_times":[679.1099999973085,365.03000000084285,426.40499999106396,785.5049999925541,1138.1700000056298],"keys_pressed":["leftarrow","rightarrow","leftarrow","leftarrow","leftarrow"],"horizon":5,"forced_choices":["leftarrow","rightarrow","leftarrow","leftarrow"],"right_color":"orange","left_color":"lightblue","left_mu":40,"right_mu":28,"left_numbers":[31,41,39,33,47],"right_numbers":[30,21,41,41,32],"points_earned":171,"phase":"task","trial_type":"horizons-task","trial_index":89,"time_elapsed":864294,"internal_node_id":"0.0-85.0","task_version":"0.2"},{"response_times":[572.134999994887,378.3299999922747,403.135000000475,610.8249999961117,1265.770000012708],"keys_pressed":["leftarrow","rightarrow","leftarrow","rightarrow","rightarrow"],"horizon":5,"forced_choices":["leftarrow","rightarrow","leftarrow","rightarrow"],"right_color":"lightblue","left_color":"orange","left_mu":40,"right_mu":48,"left_numbers":[39,39,39,44,43],"right_numbers":[57,54,43,49,56],"points_earned":237,"phase":"task","trial_type":"horizons-task","trial_index":90,"time_elapsed":869028,"internal_node_id":"0.0-86.0","task_version":"0.2"},{"response_times":[643.6099999991711,407.11000000010245,447.48499999695923,463.6749999917811,802.0700000051875],"keys_pressed":["rightarrow","leftarrow","leftarrow","rightarrow","leftarrow"],"horizon":5,"forced_choices":["rightarrow","leftarrow","leftarrow","rightarrow"],"right_color":"orange","left_color":"lightblue","left_mu":40,"right_mu":36,"left_numbers":[41,47,47,33,46],"right_numbers":[34,31,28,34,33],"points_earned":208,"phase":"task","trial_type":"horizons-task","trial_index":91,"time_elapsed":873299,"internal_node_id":"0.0-87.0","task_version":"0.2"},{"rt":16123.244999995222,"responses":{"age":"29","gender-categorical":"Male","gender-free-response":"","ethnicity":"Not Hispanic or Latino","race":["White"],"language":"Yes","fluency":"Very well"},"survey":"demographics","trial_type":"survey-demo","trial_index":92,"time_elapsed":889431,"internal_node_id":"0.0-88.0","task_version":"0.2"},{"rt":86471.78500000155,"responses":{"difficulty":"4","fun":"4","clarity":"5","strategy":"I just went with whichever seemed to have a higher average, and if they were close I would do 1 or 2 experimental rounds in a 10-play game for extra confirmation","feedback":""},"survey":"debrief","trial_type":"survey-debrief","trial_index":93,"time_elapsed":975910,"internal_node_id":"0.0-89.0","task_version":"0.2","interactions":"[{\"event\":\"blur\",\"trial\":2,\"time\":59252},{\"event\":\"focus\",\"trial\":2,\"time\":67818},{\"event\":\"blur\",\"trial\":2,\"time\":76525},{\"event\":\"focus\",\"trial\":2,\"time\":78254},{\"event\":\"blur\",\"trial\":3,\"time\":179497},{\"event\":\"focus\",\"trial\":3,\"time\":182781}]"}]