[{"view_history":"[{\"page_index\":0,\"viewing_time\":984.1799999999239}]","rt":984.3850000002021,"trial_type":"instructions","trial_index":0,"time_elapsed":989,"internal_node_id":"0.0-0.0","task_version":"0.2"},{"item_order":[12,10,4,2,6,5,8,0,15,3,1,13,9,14,11,7],"responses":{"Q13":"3","Q11":"3","Q05":"4","Q03":"5","Q07":"4","Q06":"3","Q09":"1","Q01":"5","Q16":"5","Q04":"4","Q02":"3","Q14":"2","Q10":"5","Q15":"4","Q12":"4","Q08":"3"},"radio_events":[28479.67000000017,36953.64999999993,38638.37000000012,40058.155000000166,41378.30500000018,41976.400000000016,44448.40999999997,45333.965000000266,46312.879999999954,46580.555,47521.50500000016,47761.61000000002,83508.35000000006,90403.02999999994,93673.37500000032,94674.39999999988,96340.61500000008,96716.99500000023,97016.57999999999,127809.50000000032,132756.9550000003,135626.27999999997,136426.29500000022,143748.2250000003,143975.21499999994,147430.8799999999,157759.85500000024,158528.9600000001,162749.71000000005,163366.39500000002,163680.5800000002,165397.04500000016,205017.22000000018,206547.8350000003,215563.68500000008,286949.5300000003,287797.3200000001,291433.8050000001,292745.89999999985,294304.00000000006,295556.2850000001,298283.6150000003],"key_events":[],"mouse_events":[0.33000000030369847,28479.67000000017,33312.284999999974,33711.44499999991,34205.510000000235,34943.38500000003,36953.64999999993,38141.970000000125,38502.68499999993,38638.37000000012,39187.69500000007,39720.06000000011,40058.155000000166,41378.30500000018,41976.400000000016,44229.29999999997,44448.40999999997,45333.965000000266,45950.67999999992,46312.879999999954,46580.555,47251.500000000306,47521.50500000016,47761.61000000002,79829.27999999994,81212.82500000007,81867.98499999987,82906.3000000001,83174.41000000009,83508.35000000006,89569.03499999997,89942.93999999992,90403.02999999994,93673.37500000032,94447.56499999994,94674.39999999988,95818.74500000002,95989.41000000015,96169.53000000012,96340.61500000008,96716.99500000023,97016.57999999999,127809.50000000032,131830.15999999997,132087.87500000017,132412.98499999996,132756.9550000003,135255.43500000003,135626.27999999997,136426.29500000022,141314.12000000002,141896.22499999998,142690.18499999994,143275.0500000002,143441.17499999993,143748.2250000003,143975.21499999994,146653.50500000024,147096.6550000003,147430.8799999999,157759.85500000024,158528.9600000001,161562.70500000028,162065.38,162355.415,162749.71000000005,163366.39500000002,163680.5800000002,165110.31499999992,165397.04500000016,204526.3100000002,205017.22000000018,206155.78499999995,206547.8350000003,213544.67000000025,215563.68500000008,281455.40000000026,281731.57500000024,282643.595,282869.6050000003,283095.73500000034,286949.5300000003,287489.3649999999,287797.3200000001,291433.8050000001,292745.89999999985,293172.6000000003,294304.00000000006,295556.2850000001,298283.6150000003,298773.20499999996],"rt":298775.9000000001,"survey":"nfc","trial_type":"survey-template","trial_index":1,"time_elapsed":299770,"internal_node_id":"0.0-1.0","task_version":"0.2"},{"item_order":[2,4,5,10,12,1,9,8,0,7,11,6,3],"responses":{"Q03":"2","Q05":"3","Q06":"2","Q11":"3","Q13":"4","Q02":"1","Q10":"2","Q09":"1","Q01":"1","Q08":"2","Q12":"0","Q07":"1","Q04":"2"},"radio_events":[6974.4599999999045,9762.754999999772,10860.594999999623,17255.764999999898,17821.58499999967,18073.62999999989,20518.234999999986,22926.219999999856,28748.02000000002,31058.02499999979,38069.18999999971,41490.514999999956,45018.96999999962,50140.044999999634,53496.14499999961,57299.17499999964],"key_events":[],"mouse_events":[6974.4599999999045,9762.754999999772,10860.594999999623,16957.67499999964,17255.764999999898,17821.58499999967,18073.62999999989,20518.234999999986,21536.23499999958,22926.219999999856,26953.014999999607,27532.9899999997,27736.64999999985,28355.959999999846,28748.02000000002,31058.02499999979,37652.26999999961,38069.18999999971,40751.71000000002,41490.514999999956,45018.96999999962,49597.43499999971,50140.044999999634,52380.67000000004,52665.8299999999,53066.974999999744,53496.14499999961,54778.929999999935,55945.26499999984,56825.55499999988,57040.58499999973,57299.17499999964,57812.5699999996],"rt":57814.019999999786,"survey":"ius12","trial_type":"survey-template","trial_index":2,"time_elapsed":357588,"internal_node_id":"0.0-2.0","task_version":"0.2"},{"item_order":[15,10,9,11,6,5,4,8,3,0,12,16,2,7,14,1,13],"responses":{"Q16":"3","Q11":"3","Q10":"4","Q12":"2","Q07":"2","Q06":"3","Q05":"2","Q09":"3","Q04":"1","Q01":"3","Q13":"3","Q17":"0","Q03":"3","Q08":"3","Q15":"2","Q02":"3","Q14":"2"},"radio_events":[2719.569999999716,9549.719999999972,10209.499999999942,13199.849999999977,15637.03999999963,17572.484999999695,19396.369999999937,27401.48499999987,33946.229999999574,40486.869999999704,135756.3699999996,427820.13999999984,466543.5999999999,469634.9649999997,471900.18999999977,483241.63499999983,483812.7099999997,484663.79499999987,562745.1099999999,565539.1749999998,569672.9749999999,575979.5449999997,578500.9049999998,580525.095,582492.2999999998,585333.4849999996],"key_events":[],"mouse_events":[2719.569999999716,9133.644999999844,9549.719999999972,9919.609999999928,10209.499999999942,12838.034999999742,13199.849999999977,15149.109999999811,15637.03999999963,17291.604999999865,17572.484999999695,19396.369999999937,19615.024999999616,27401.48499999987,27971.814999999886,28252.969999999565,28853.88999999984,32317.254999999946,32941.16499999969,33327.23499999975,33637.39499999973,33946.229999999574,40116.20499999978,40486.869999999704,42709.42999999988,45158.78999999992,135756.3699999996,289967.93499999965,312061.8649999997,374457.54499999975,427820.13999999984,466062.9349999999,466543.5999999999,469634.9649999997,471616.29499999975,471900.18999999977,480270.4749999998,480776.1299999997,482328.61000000004,483241.63499999983,483812.7099999997,484663.79499999987,562031.0499999996,562745.1099999999,563717.1799999997,564044.1799999999,564323.1599999999,564736.175,565082.1599999999,565539.1749999998,567302.5549999997,569004.9999999995,569672.9749999999,570329.0999999999,570621.885,571794.0049999997,575979.5449999997,578167.2199999997,578500.9049999998,580172.2149999996,580525.095,582072.4049999998,582492.2999999998,584682.6449999998,585333.4849999996,585683.9649999996,585870.8599999999,586720.605],"rt":586723.0949999997,"survey":"pswq","trial_type":"survey-template","trial_index":3,"time_elapsed":944315,"internal_node_id":"0.0-3.0","task_version":"0.2"},{"view_history":"[{\"page_index\":0,\"viewing_time\":2378.4899999999907},{\"page_index\":1,\"viewing_time\":3665.7450000003446},{\"page_index\":2,\"viewing_time\":9280.82499999972},{\"page_index\":3,\"viewing_time\":4943.804999999935},{\"page_index\":4,\"viewing_time\":5888.60000000021},{\"page_index\":5,\"viewing_time\":3902.4799999997485},{\"page_index\":6,\"viewing_time\":9140.130000000237},{\"page_index\":7,\"viewing_time\":13096.454999999842},{\"page_index\":8,\"viewing_time\":4756.435000000289},{\"page_index\":9,\"viewing_time\":5001.649999999674}]","rt":62055.220000000205,"trial_type":"instructions","trial_index":4,"time_elapsed":1006373,"internal_node_id":"0.0-4.0-0.0","task_version":"0.2"},{"response_times":[1276.8049999999348,1031.3499999997439,772.2800000001444,571.2100000000792,5126.229999999865],"keys_pressed":["rightarrow","leftarrow","rightarrow","rightarrow","rightarrow"],"horizon":5,"forced_choices":["rightarrow","leftarrow","rightarrow","rightarrow"],"right_color":"lightblue","left_color":"orange","left_mu":40,"right_mu":20,"left_numbers":[51,37,44,23,43],"right_numbers":[20,14,4,22,25],"points_earned":108,"phase":"practice","trial_type":"horizons-task","trial_index":5,"time_elapsed":1016660,"internal_node_id":"0.0-4.0-1.0","task_version":"0.2"},{"response_times":[1001.4249999999302,666.7000000001863,1739.1900000002934,751.1350000000093,4135.374999999767,2290.294999999809,2290.3399999999674,1497.9600000001956,842.0949999999721,596.2399999998743],"keys_pressed":["leftarrow","leftarrow","rightarrow","rightarrow","rightarrow","rightarrow","rightarrow","leftarrow","rightarrow","rightarrow"],"horizon":10,"forced_choices":["leftarrow","leftarrow","rightarrow","rightarrow"],"right_color":"orange","left_color":"lightblue","left_mu":60,"right_mu":70,"left_numbers":[57,57,59,69,69,50,64,49,59,52],"right_numbers":[66,80,59,76,64,73,57,69,64,78],"points_earned":634,"phase":"practice","trial_type":"horizons-task","trial_index":6,"time_elapsed":1033973,"internal_node_id":"0.0-4.0-2.0","task_version":"0.2"},{"view_history":"[{\"page_index\":0,\"viewing_time\":1579.8349999999627},{\"page_index\":1,\"viewing_time\":3194.594999999972},{\"page_index\":2,\"viewing_time\":2949.945000000298},{\"page_index\":3,\"viewing_time\":1247.3599999997532}]","rt":8971.945000000182,"trial_type":"instructions","trial_index":7,"time_elapsed":1042946,"internal_node_id":"0.0-4.0-3.0","task_version":"0.2"},{"responses":["true","false","true"],"num_errors":0,"rt":17803.100000000093,"trial_type":"horizons-comprehension","trial_index":8,"time_elapsed":1060750,"internal_node_id":"0.0-4.0-4.0","task_version":"0.2"},{"trial_type":"call-function","trial_index":9,"time_elapsed":1060753,"internal_node_id":"0.0-5.0","task_version":"0.2"},{"view_history":"[{\"page_index\":0,\"viewing_time\":1039.9549999996088},{\"page_index\":1,\"viewing_time\":2825.125000000233}]","rt":3865.249999999767,"trial_type":"instructions","trial_index":10,"time_elapsed":1064618,"internal_node_id":"0.0-6.0","task_version":"0.2"},{"response_times":[1254.880000000354,1498.184999999823,501.1149999999907,662.2799999997951,2295.1349999997765],"keys_pressed":["leftarrow","rightarrow","rightarrow","rightarrow","rightarrow"],"horizon":5,"forced_choices":["leftarrow","rightarrow","rightarrow","rightarrow"],"right_color":"orange","left_color":"lightblue","left_mu":40,"right_mu":36,"left_numbers":[29,42,33,47,32],"right_numbers":[47,41,38,32,35],"points_earned":175,"phase":"task","trial_type":"horizons-task","trial_index":11,"time_elapsed":1072335,"internal_node_id":"0.0-7.0","task_version":"0.2"},{"response_times":[546.7349999998696,582.0100000000093,400.9699999995064,476.04000000003725,2084.454999999609],"keys_pressed":["leftarrow","rightarrow","rightarrow","rightarrow","rightarrow"],"horizon":5,"forced_choices":["leftarrow","rightarrow","rightarrow","rightarrow"],"right_color":"orange","left_color":"lightblue","left_mu":60,"right_mu":90,"left_numbers":[60,62,58,62,60],"right_numbers":[90,102,91,92,102],"points_earned":447,"phase":"task","trial_type":"horizons-task","trial_index":12,"time_elapsed":1077928,"internal_node_id":"0.0-8.0","task_version":"0.2"},{"response_times":[557.8950000000186,386.06500000017695,441.36499999975786,440.60000000009313,2791.189999999944,2195.339999999618,1042.0349999999162,1404.3999999999069,520.8700000003446,485.9149999998044],"keys_pressed":["leftarrow","leftarrow","rightarrow","rightarrow","leftarrow","leftarrow","leftarrow","rightarrow","leftarrow","leftarrow"],"horizon":10,"forced_choices":["leftarrow","leftarrow","rightarrow","rightarrow"],"right_color":"lightblue","left_color":"orange","left_mu":60,"right_mu":30,"left_numbers":[71,52,72,58,69,61,58,46,55,49],"right_numbers":[28,35,34,28,30,46,24,34,30,30],"points_earned":511,"phase":"task","trial_type":"horizons-task","trial_index":13,"time_elapsed":1089695,"internal_node_id":"0.0-9.0","task_version":"0.2"},{"response_times":[1384.994999999879,410.8400000000838,822.1350000000093,747.0150000001304,2014.4750000000931],"keys_pressed":["leftarrow","rightarrow","rightarrow","leftarrow","leftarrow"],"horizon":5,"forced_choices":["leftarrow","rightarrow","rightarrow","leftarrow"],"right_color":"orange","left_color":"lightblue","left_mu":60,"right_mu":40,"left_numbers":[64,69,53,68,56],"right_numbers":[39,32,48,38,56],"points_earned":268,"phase":"task","trial_type":"horizons-task","trial_index":14,"time_elapsed":1096577,"internal_node_id":"0.0-10.0","task_version":"0.2"},{"response_times":[567.9100000003818,375.8649999999907,401.06999999983236,766.0449999999255,3368.660000000149],"keys_pressed":["rightarrow","leftarrow","rightarrow","leftarrow","rightarrow"],"horizon":5,"forced_choices":["rightarrow","leftarrow","rightarrow","leftarrow"],"right_color":"orange","left_color":"lightblue","left_mu":60,"right_mu":64,"left_numbers":[66,68,55,63,62],"right_numbers":[62,60,77,67,76],"points_earned":346,"phase":"task","trial_type":"horizons-task","trial_index":15,"time_elapsed":1103559,"internal_node_id":"0.0-11.0","task_version":"0.2"},{"response_times":[637.5500000000466,715.9250000000466,751.9650000000838,516.0900000000838,1900.2300000002142],"keys_pressed":["rightarrow","leftarrow","rightarrow","leftarrow","rightarrow"],"horizon":5,"forced_choices":["rightarrow","leftarrow","rightarrow","leftarrow"],"right_color":"orange","left_color":"lightblue","left_mu":40,"right_mu":52,"left_numbers":[28,41,42,36,36],"right_numbers":[62,59,62,47,68],"points_earned":269,"phase":"task","trial_type":"horizons-task","trial_index":16,"time_elapsed":1109584,"internal_node_id":"0.0-12.0","task_version":"0.2"},{"response_times":[421.8499999998603,822.0949999999721,21350.379999999655,1303.1799999999348,1628.4550000000745],"keys_pressed":["leftarrow","leftarrow","rightarrow","rightarrow","leftarrow"],"horizon":5,"forced_choices":["leftarrow","leftarrow","rightarrow","rightarrow"],"right_color":"orange","left_color":"lightblue","left_mu":40,"right_mu":28,"left_numbers":[41,32,52,34,41],"right_numbers":[26,26,22,33,26],"points_earned":169,"phase":"task","trial_type":"horizons-task","trial_index":17,"time_elapsed":1136611,"internal_node_id":"0.0-13.0","task_version":"0.2"},{"response_times":[533.5000000002328,306.45500000030734,274.63500000024214,521.0249999999069,2847.880000000354,2494.9250000000466,1974.9999999997672,1378.0799999998417,782.1250000002328,907.1050000002142],"keys_pressed":["leftarrow","rightarrow","leftarrow","leftarrow","rightarrow","leftarrow","leftarrow","leftarrow","leftarrow","leftarrow"],"horizon":10,"forced_choices":["leftarrow","rightarrow","leftarrow","leftarrow"],"right_color":"orange","left_color":"lightblue","left_mu":60,"right_mu":64,"left_numbers":[51,53,53,55,60,74,58,60,58,59],"right_numbers":[62,67,62,68,65,70,54,65,60,71],"points_earned":600,"phase":"task","trial_type":"horizons-task","trial_index":18,"time_elapsed":1150134,"internal_node_id":"0.0-14.0","task_version":"0.2"},{"response_times":[703.1150000002235,571.2449999996461,842.0499999995809,1438.0749999999534,331.1349999997765,1969.2150000000838,586.9000000001397,575.9799999999814,431.11000000010245,291.195000000298],"keys_pressed":["rightarrow","rightarrow","leftarrow","leftarrow","rightarrow","rightarrow","rightarrow","rightarrow","rightarrow","rightarrow"],"horizon":10,"forced_choices":["rightarrow","rightarrow","leftarrow","leftarrow"],"right_color":"lightblue","left_color":"orange","left_mu":60,"right_mu":80,"left_numbers":[51,54,55,64,66,77,68,46,50,53],"right_numbers":[82,89,89,78,73,84,79,89,85,88],"points_earned":788,"phase":"task","trial_type":"horizons-task","trial_index":19,"time_elapsed":1159384,"internal_node_id":"0.0-15.0","task_version":"0.2"},{"response_times":[634.0700000000652,491.0050000003539,842.6700000001583,696.6699999999255,1567.9499999999534],"keys_pressed":["rightarrow","rightarrow","leftarrow","leftarrow","leftarrow"],"horizon":5,"forced_choices":["rightarrow","rightarrow","leftarrow","leftarrow"],"right_color":"orange","left_color":"lightblue","left_mu":40,"right_mu":20,"left_numbers":[38,43,48,41,45],"right_numbers":[4,14,9,28,18],"points_earned":152,"phase":"task","trial_type":"horizons-task","trial_index":20,"time_elapsed":1165119,"internal_node_id":"0.0-16.0","task_version":"0.2"},{"response_times":[518.4400000004098,605.8800000001211,442.2100000001956,680.8550000002142,1393.3850000002421],"keys_pressed":["rightarrow","rightarrow","leftarrow","leftarrow","rightarrow"],"horizon":5,"forced_choices":["rightarrow","rightarrow","leftarrow","leftarrow"],"right_color":"lightblue","left_color":"orange","left_mu":60,"right_mu":80,"left_numbers":[61,41,68,67,56],"right_numbers":[85,80,75,80,78],"points_earned":378,"phase":"task","trial_type":"horizons-task","trial_index":21,"time_elapsed":1170261,"internal_node_id":"0.0-17.0","task_version":"0.2"},{"response_times":[578.3600000001024,586.0049999998882,797.1399999996647,1137.1700000001583,948.0249999999069],"keys_pressed":["rightarrow","rightarrow","leftarrow","rightarrow","rightarrow"],"horizon":5,"forced_choices":["rightarrow","rightarrow","leftarrow","rightarrow"],"right_color":"lightblue","left_color":"orange","left_mu":60,"right_mu":72,"left_numbers":[52,57,48,60,45],"right_numbers":[69,76,84,88,69],"points_earned":350,"phase":"task","trial_type":"horizons-task","trial_index":22,"time_elapsed":1175810,"internal_node_id":"0.0-18.0","task_version":"0.2"},{"response_times":[446.79000000003725,361.43499999982305,650.8699999998789,580.8900000001304,2200.109999999637,2040.6299999998882,460.6050000002142,711.9549999998417,466.1099999996368,410.9899999999907],"keys_pressed":["rightarrow","leftarrow","leftarrow","leftarrow","leftarrow","leftarrow","leftarrow","leftarrow","leftarrow","leftarrow"],"horizon":10,"forced_choices":["rightarrow","leftarrow","leftarrow","leftarrow"],"right_color":"lightblue","left_color":"orange","left_mu":60,"right_mu":30,"left_numbers":[59,57,60,67,46,68,58,58,64,72],"right_numbers":[22,23,32,18,38,28,39,57,35,14],"points_earned":572,"phase":"task","trial_type":"horizons-task","trial_index":23,"time_elapsed":1185643,"internal_node_id":"0.0-19.0","task_version":"0.2"},{"response_times":[647.3249999997206,391.1149999999907,390.90999999968335,702.1449999997858,3107.3600000001024],"keys_pressed":["leftarrow","rightarrow","leftarrow","rightarrow","rightarrow"],"horizon":5,"forced_choices":["leftarrow","rightarrow","leftarrow","rightarrow"],"right_color":"lightblue","left_color":"orange","left_mu":40,"right_mu":60,"left_numbers":[46,30,26,46,42],"right_numbers":[57,61,56,46,46],"points_earned":225,"phase":"task","trial_type":"horizons-task","trial_index":24,"time_elapsed":1192384,"internal_node_id":"0.0-20.0","task_version":"0.2"},{"response_times":[551.8200000000652,395.8400000000838,817.0799999996088,586.0050000001211,1950.7650000001304,24452.570000000065,1156.9850000001024,1739.1200000001118,907.2449999998789,365.9900000002235],"keys_pressed":["rightarrow","leftarrow","rightarrow","rightarrow","rightarrow","leftarrow","rightarrow","rightarrow","rightarrow","rightarrow"],"horizon":10,"forced_choices":["rightarrow","leftarrow","rightarrow","rightarrow"],"right_color":"lightblue","left_color":"orange","left_mu":40,"right_mu":60,"left_numbers":[38,40,32,34,29,41,50,29,46,39],"right_numbers":[55,77,57,60,62,56,50,49,53,48],"points_earned":515,"phase":"task","trial_type":"horizons-task","trial_index":25,"time_elapsed":1226810,"internal_node_id":"0.0-21.0","task_version":"0.2"},{"response_times":[537.839999999851,661.125,410.9600000001956,461.3249999997206,1789.3500000000931],"keys_pressed":["leftarrow","leftarrow","rightarrow","leftarrow","leftarrow"],"horizon":5,"forced_choices":["leftarrow","leftarrow","rightarrow","leftarrow"],"right_color":"orange","left_color":"lightblue","left_mu":40,"right_mu":28,"left_numbers":[42,56,53,30,37],"right_numbers":[34,18,36,29,18],"points_earned":201,"phase":"task","trial_type":"horizons-task","trial_index":26,"time_elapsed":1232174,"internal_node_id":"0.0-22.0","task_version":"0.2"},{"response_times":[567.1299999998882,365.9900000002235,801.7900000000373,711.3250000001863,3037.6099999998696],"keys_pressed":["rightarrow","leftarrow","leftarrow","leftarrow","leftarrow"],"horizon":5,"forced_choices":["rightarrow","leftarrow","leftarrow","leftarrow"],"right_color":"orange","left_color":"lightblue","left_mu":40,"right_mu":70,"left_numbers":[43,44,40,30,27],"right_numbers":[63,70,72,66,44],"points_earned":204,"phase":"task","trial_type":"horizons-task","trial_index":27,"time_elapsed":1239161,"internal_node_id":"0.0-23.0","task_version":"0.2"},{"response_times":[547.309999999823,294.77499999990687,707.0849999999627,481.3149999999441,3282.1550000002608,2260.2899999998044,1584.1350000002421,3147.230000000214,652.1350000000093,335.1450000000186],"keys_pressed":["rightarrow","leftarrow","leftarrow","rightarrow","rightarrow","leftarrow","rightarrow","rightarrow","rightarrow","rightarrow"],"horizon":10,"forced_choices":["rightarrow","leftarrow","leftarrow","rightarrow"],"right_color":"lightblue","left_color":"orange","left_mu":60,"right_mu":72,"left_numbers":[58,65,63,58,54,78,54,59,55,71],"right_numbers":[72,71,68,60,72,68,69,70,58,67],"points_earned":674,"phase":"task","trial_type":"horizons-task","trial_index":28,"time_elapsed":1253954,"internal_node_id":"0.0-24.0","task_version":"0.2"},{"response_times":[718.7900000000373,1012.714999999851,1643.154999999795,1664.1800000001676,3348.5799999998417],"keys_pressed":["leftarrow","rightarrow","leftarrow","rightarrow","leftarrow"],"horizon":5,"forced_choices":["leftarrow","rightarrow","leftarrow","rightarrow"],"right_color":"lightblue","left_color":"orange","left_mu":60,"right_mu":56,"left_numbers":[54,51,57,72,53],"right_numbers":[45,62,53,46,58],"points_earned":272,"phase":"task","trial_type":"horizons-task","trial_index":29,"time_elapsed":1263844,"internal_node_id":"0.0-25.0","task_version":"0.2"},{"response_times":[571.7999999995809,642.179999999702,410.7700000000186,766.1699999996927,3593.3400000003166,1804.2049999998417,366.1400000001304,301.5200000000186,234.63500000024214,130.7949999999255],"keys_pressed":["leftarrow","leftarrow","rightarrow","leftarrow","rightarrow","leftarrow","leftarrow","leftarrow","leftarrow","leftarrow"],"horizon":10,"forced_choices":["leftarrow","leftarrow","rightarrow","leftarrow"],"right_color":"orange","left_color":"lightblue","left_mu":40,"right_mu":28,"left_numbers":[45,37,35,31,38,36,46,47,60,35],"right_numbers":[21,19,28,50,25,22,36,29,24,24],"points_earned":390,"phase":"task","trial_type":"horizons-task","trial_index":30,"time_elapsed":1274168,"internal_node_id":"0.0-26.0","task_version":"0.2"},{"response_times":[487.71500000031665,535.8899999996647,1052.9399999994785,741.0049999998882,1714.2200000004377],"keys_pressed":["leftarrow","rightarrow","leftarrow","leftarrow","leftarrow"],"horizon":5,"forced_choices":["leftarrow","rightarrow","leftarrow","leftarrow"],"right_color":"orange","left_color":"lightblue","left_mu":60,"right_mu":48,"left_numbers":[69,56,60,64,47],"right_numbers":[30,51,40,48,39],"points_earned":291,"phase":"task","trial_type":"horizons-task","trial_index":31,"time_elapsed":1280201,"internal_node_id":"0.0-27.0","task_version":"0.2"},{"response_times":[563.7100000004284,541.6149999999907,395.3699999996461,235.99499999987893,1518.1550000002608],"keys_pressed":["leftarrow","leftarrow","rightarrow","leftarrow","leftarrow"],"horizon":5,"forced_choices":["leftarrow","leftarrow","rightarrow","leftarrow"],"right_color":"lightblue","left_color":"orange","left_mu":40,"right_mu":44,"left_numbers":[35,39,38,39,47],"right_numbers":[43,41,37,51,40],"points_earned":197,"phase":"task","trial_type":"horizons-task","trial_index":32,"time_elapsed":1284958,"internal_node_id":"0.0-28.0","task_version":"0.2"},{"response_times":[487.3149999999441,245.82999999984168,631.1750000000466,512.0150000003632,370.03000000002794,1549.2350000001024,1774.4199999999255,375.6850000000559,194.89500000025146,156.0049999996554],"keys_pressed":["leftarrow","rightarrow","rightarrow","rightarrow","leftarrow","rightarrow","rightarrow","rightarrow","rightarrow","rightarrow"],"horizon":10,"forced_choices":["leftarrow","rightarrow","rightarrow","rightarrow"],"right_color":"orange","left_color":"lightblue","left_mu":40,"right_mu":36,"left_numbers":[34,39,34,44,36,38,54,42,39,47],"right_numbers":[39,32,34,46,50,36,30,28,40,25],"points_earned":341,"phase":"task","trial_type":"horizons-task","trial_index":33,"time_elapsed":1292760,"internal_node_id":"0.0-29.0","task_version":"0.2"},{"response_times":[563.7900000000373,491.24500000011176,425.9550000000745,470.9900000002235,3007.524999999907,972.0100000000093,732.2399999999907,325.9450000000652,264.7550000001211,165.96999999997206],"keys_pressed":["rightarrow","rightarrow","leftarrow","rightarrow","leftarrow","rightarrow","rightarrow","rightarrow","rightarrow","rightarrow"],"horizon":10,"forced_choices":["rightarrow","rightarrow","leftarrow","rightarrow"],"right_color":"lightblue","left_color":"orange","left_mu":60,"right_mu":56,"left_numbers":[56,46,46,58,57,49,65,69,50,48],"right_numbers":[45,53,53,60,49,71,52,59,70,63],"points_earned":576,"phase":"task","trial_type":"horizons-task","trial_index":34,"time_elapsed":1301683,"internal_node_id":"0.0-30.0","task_version":"0.2"},{"response_times":[632.2949999999255,482.1450000004843,835.875,692.1650000000373,5893.814999999944],"keys_pressed":["rightarrow","leftarrow","leftarrow","leftarrow","leftarrow"],"horizon":5,"forced_choices":["rightarrow","leftarrow","leftarrow","leftarrow"],"right_color":"lightblue","left_color":"orange","left_mu":60,"right_mu":68,"left_numbers":[58,61,55,56,50],"right_numbers":[60,58,70,79,62],"points_earned":282,"phase":"task","trial_type":"horizons-task","trial_index":35,"time_elapsed":1311721,"internal_node_id":"0.0-31.0","task_version":"0.2"},{"response_times":[637.7549999996554,565.9850000001024,506.2200000002049,502.02499999967404,1814.2849999999162],"keys_pressed":["leftarrow","leftarrow","leftarrow","rightarrow","leftarrow"],"horizon":5,"forced_choices":["leftarrow","leftarrow","leftarrow","rightarrow"],"right_color":"orange","left_color":"lightblue","left_mu":40,"right_mu":10,"left_numbers":[52,39,49,47,29],"right_numbers":[4,7,23,4,7],"points_earned":173,"phase":"task","trial_type":"horizons-task","trial_index":36,"time_elapsed":1317250,"internal_node_id":"0.0-32.0","task_version":"0.2"},{"response_times":[442.5549999999348,475.82499999995343,466.2299999999814,707.0100000000093,445.8949999997858,2621.685000000056,505.7950000001583,405.90500000026077,621.3250000001863,451.12500000023283],"keys_pressed":["rightarrow","rightarrow","leftarrow","leftarrow","rightarrow","leftarrow","leftarrow","leftarrow","leftarrow","leftarrow"],"horizon":10,"forced_choices":["rightarrow","rightarrow","leftarrow","leftarrow"],"right_color":"orange","left_color":"lightblue","left_mu":40,"right_mu":20,"left_numbers":[32,27,32,36,40,32,33,48,47,49],"right_numbers":[6,14,36,13,14,17,28,25,22,25],"points_earned":311,"phase":"task","trial_type":"horizons-task","trial_index":37,"time_elapsed":1325895,"internal_node_id":"0.0-33.0","task_version":"0.2"},{"response_times":[568.0600000000559,495.94000000017695,570.940000000177,476.1899999999441,390.9299999999348,2085.309999999823,481.5100000000093,445.5449999999255,179.9250000002794,150.9550000000745],"keys_pressed":["rightarrow","rightarrow","leftarrow","rightarrow","leftarrow","rightarrow","rightarrow","rightarrow","rightarrow","rightarrow"],"horizon":10,"forced_choices":["rightarrow","rightarrow","leftarrow","rightarrow"],"right_color":"lightblue","left_color":"orange","left_mu":60,"right_mu":72,"left_numbers":[54,53,58,56,63,59,55,61,56,57],"right_numbers":[63,74,64,75,80,68,69,75,91,64],"points_earned":700,"phase":"task","trial_type":"horizons-task","trial_index":38,"time_elapsed":1333243,"internal_node_id":"0.0-34.0","task_version":"0.2"},{"response_times":[567.0799999998417,360.6750000005122,787.0499999998137,375.95999999996275,2225.3000000000466,716.6549999995623,500.625,471.86000000010245,215.13000000012107,59.90500000026077],"keys_pressed":["leftarrow","rightarrow","leftarrow","rightarrow","rightarrow","rightarrow","leftarrow","rightarrow","rightarrow","rightarrow"],"horizon":10,"forced_choices":["leftarrow","rightarrow","leftarrow","rightarrow"],"right_color":"lightblue","left_color":"orange","left_mu":40,"right_mu":60,"left_numbers":[34,32,43,29,53,42,32,41,44,35],"right_numbers":[72,61,48,46,59,67,61,51,67,48],"points_earned":508,"phase":"task","trial_type":"horizons-task","trial_index":39,"time_elapsed":1341025,"internal_node_id":"0.0-35.0","task_version":"0.2"},{"response_times":[463.4899999999907,421.0100000000093,1528.1150000002235,366.0950000002049,626.4999999997672,1493.7749999999069,541.3850000000093,415.8550000002142,150.00499999988824,129.8049999999348],"keys_pressed":["rightarrow","rightarrow","rightarrow","leftarrow","rightarrow","leftarrow","leftarrow","leftarrow","leftarrow","leftarrow"],"horizon":10,"forced_choices":["rightarrow","rightarrow","rightarrow","leftarrow"],"right_color":"lightblue","left_color":"orange","left_mu":60,"right_mu":52,"left_numbers":[54,51,63,66,62,64,60,65,65,59],"right_numbers":[66,41,46,65,50,53,60,53,52,50],"points_earned":582,"phase":"task","trial_type":"horizons-task","trial_index":40,"time_elapsed":1348663,"internal_node_id":"0.0-36.0","task_version":"0.2"},{"response_times":[935.1200000001118,355.695000000298,561.0049999998882,591.25,1774.04000000027,1288.1650000000373,391.1050000002142,365.875,165.27000000001863,129.77000000001863],"keys_pressed":["rightarrow","leftarrow","rightarrow","leftarrow","rightarrow","rightarrow","leftarrow","rightarrow","rightarrow","rightarrow"],"horizon":10,"forced_choices":["rightarrow","leftarrow","rightarrow","leftarrow"],"right_color":"orange","left_color":"lightblue","left_mu":40,"right_mu":52,"left_numbers":[41,45,50,43,46,23,47,35,25,30],"right_numbers":[55,49,62,58,57,52,44,56,54,52],"points_earned":523,"phase":"task","trial_type":"horizons-task","trial_index":41,"time_elapsed":1356722,"internal_node_id":"0.0-37.0","task_version":"0.2"},{"response_times":[558.4150000000373,276.02499999967404,351.0999999998603,429.97500000009313,385.9700000002049,4430.534999999916,597.1350000000093,510.90500000002794,401.2050000000745,406.01000000024214],"keys_pressed":["leftarrow","rightarrow","leftarrow","rightarrow","leftarrow","rightarrow","rightarrow","leftarrow","rightarrow","leftarrow"],"horizon":10,"forced_choices":["leftarrow","rightarrow","leftarrow","rightarrow"],"right_color":"lightblue","left_color":"orange","left_mu":40,"right_mu":44,"left_numbers":[48,37,43,42,23,41,45,51,39,47],"right_numbers":[47,48,29,46,49,41,52,32,41,28],"points_earned":440,"phase":"task","trial_type":"horizons-task","trial_index":42,"time_elapsed":1366572,"internal_node_id":"0.0-38.0","task_version":"0.2"},{"response_times":[632.2249999998603,662.0299999997951,1032.1450000002515,1013.1999999999534,1473.244999999646,1027.029999999795,716.8349999997299,245.35000000032596,160.86000000010245,139.96999999973923],"keys_pressed":["rightarrow","leftarrow","leftarrow","rightarrow","rightarrow","leftarrow","rightarrow","rightarrow","rightarrow","rightarrow"],"horizon":10,"forced_choices":["rightarrow","leftarrow","leftarrow","rightarrow"],"right_color":"lightblue","left_color":"orange","left_mu":60,"right_mu":52,"left_numbers":[62,50,68,54,52,46,64,48,64,62],"right_numbers":[53,65,48,64,58,51,51,55,53,62],"points_earned":560,"phase":"task","trial_type":"horizons-task","trial_index":43,"time_elapsed":1375176,"internal_node_id":"0.0-39.0","task_version":"0.2"},{"response_times":[603.2750000003725,631.3449999997392,445.71500000031665,857.5200000000186,2942.2349999998696],"keys_pressed":["rightarrow","rightarrow","leftarrow","rightarrow","leftarrow"],"horizon":5,"forced_choices":["rightarrow","rightarrow","leftarrow","rightarrow"],"right_color":"orange","left_color":"lightblue","left_mu":60,"right_mu":40,"left_numbers":[45,54,67,57,51],"right_numbers":[36,38,56,37,42],"points_earned":229,"phase":"task","trial_type":"horizons-task","trial_index":44,"time_elapsed":1382159,"internal_node_id":"0.0-40.0","task_version":"0.2"},{"response_times":[531.309999999823,305.9900000002235,722.0649999999441,374.9499999997206,256.03500000038184,1589.4950000001118,440.7649999996647,174.9800000002142,114.95999999996275,129.9800000002142],"keys_pressed":["leftarrow","rightarrow","rightarrow","leftarrow","rightarrow","leftarrow","leftarrow","leftarrow","leftarrow","leftarrow"],"horizon":10,"forced_choices":["leftarrow","rightarrow","rightarrow","leftarrow"],"right_color":"orange","left_color":"lightblue","left_mu":60,"right_mu":40,"left_numbers":[56,67,56,44,66,60,57,68,64,51],"right_numbers":[39,34,43,18,33,38,41,40,32,46],"points_earned":510,"phase":"task","trial_type":"horizons-task","trial_index":45,"time_elapsed":1388303,"internal_node_id":"0.0-41.0","task_version":"0.2"},{"response_times":[642.1949999998324,571.8449999999721,270.570000000298,560.5100000000093,1589.2050000003073],"keys_pressed":["leftarrow","rightarrow","leftarrow","rightarrow","rightarrow"],"horizon":5,"forced_choices":["leftarrow","rightarrow","leftarrow","rightarrow"],"right_color":"lightblue","left_color":"orange","left_mu":40,"right_mu":32,"left_numbers":[27,46,48,41,39],"right_numbers":[35,37,35,30,40],"points_earned":182,"phase":"task","trial_type":"horizons-task","trial_index":46,"time_elapsed":1393439,"internal_node_id":"0.0-42.0","task_version":"0.2"},{"response_times":[713.8149999999441,320.9399999999441,650.9700000002049,391.04000000003725,1794.5449999996927,631.9199999996927,715.9599999999627,331.00499999988824,185.2200000002049,145.75000000023283],"keys_pressed":["rightarrow","leftarrow","leftarrow","rightarrow","rightarrow","rightarrow","rightarrow","rightarrow","rightarrow","rightarrow"],"horizon":10,"forced_choices":["rightarrow","leftarrow","leftarrow","rightarrow"],"right_color":"lightblue","left_color":"orange","left_mu":40,"right_mu":48,"left_numbers":[25,29,37,32,29,41,49,26,53,43],"right_numbers":[46,65,45,42,50,44,48,50,49,34],"points_earned":429,"phase":"task","trial_type":"horizons-task","trial_index":47,"time_elapsed":1400823,"internal_node_id":"0.0-43.0","task_version":"0.2"},{"response_times":[652.1999999999534,571.0349999999162,701.4050000002608,561.8650000002235,635.9049999995623,1248.9150000000373,214.24000000022352,156.21999999973923,145.10000000009313,120.18999999994412],"keys_pressed":["leftarrow","rightarrow","rightarrow","leftarrow","rightarrow","rightarrow","rightarrow","rightarrow","rightarrow","rightarrow"],"horizon":10,"forced_choices":["leftarrow","rightarrow","rightarrow","leftarrow"],"right_color":"orange","left_color":"lightblue","left_mu":60,"right_mu":90,"left_numbers":[78,55,63,59,57,52,54,61,60,59],"right_numbers":[82,87,93,76,96,97,87,98,76,93],"points_earned":864,"phase":"task","trial_type":"horizons-task","trial_index":48,"time_elapsed":1407333,"internal_node_id":"0.0-44.0","task_version":"0.2"},{"response_times":[698.059999999823,602.2800000000279,525.980000000447,416.1350000000093,1708.9000000001397,551.0399999998044,621.0649999999441,310.9550000000745,219.98000000044703,141.10999999986961],"keys_pressed":["leftarrow","leftarrow","leftarrow","rightarrow","leftarrow","leftarrow","leftarrow","leftarrow","leftarrow","leftarrow"],"horizon":10,"forced_choices":["leftarrow","leftarrow","leftarrow","rightarrow"],"right_color":"orange","left_color":"lightblue","left_mu":40,"right_mu":10,"left_numbers":[53,39,41,41,47,60,29,60,35,43],"right_numbers":[6,7,13,11,0,5,5,8,8,6],"points_earned":418,"phase":"task","trial_type":"horizons-task","trial_index":49,"time_elapsed":1414631,"internal_node_id":"0.0-45.0","task_version":"0.2"},{"response_times":[492.2799999997951,315.910000000149,811.9550000000745,626.4100000003818,1859.0399999998044],"keys_pressed":["leftarrow","rightarrow","rightarrow","leftarrow","leftarrow"],"horizon":5,"forced_choices":["leftarrow","rightarrow","rightarrow","leftarrow"],"right_color":"orange","left_color":"lightblue","left_mu":60,"right_mu":90,"left_numbers":[59,55,54,57,64],"right_numbers":[92,92,84,96,81],"points_earned":356,"phase":"task","trial_type":"horizons-task","trial_index":50,"time_elapsed":1420238,"internal_node_id":"0.0-46.0","task_version":"0.2"},{"view_history":"[{\"page_index\":0,\"viewing_time\":79710.16999999993},{\"page_index\":1,\"viewing_time\":1381.1149999999907}]","rt":81091.72999999975,"trial_type":"instructions","trial_index":51,"time_elapsed":1501331,"internal_node_id":"0.0-47.0","task_version":"0.2"},{"response_times":[1426.494999999646,562.1849999995902,755.9250000005122,1278.530000000028,1467.6450000002515],"keys_pressed":["rightarrow","leftarrow","leftarrow","rightarrow","rightarrow"],"horizon":5,"forced_choices":["rightarrow","leftarrow","leftarrow","rightarrow"],"right_color":"lightblue","left_color":"orange","left_mu":40,"right_mu":48,"left_numbers":[35,41,57,43,36],"right_numbers":[56,44,60,56,37],"points_earned":247,"phase":"task","trial_type":"horizons-task","trial_index":52,"time_elapsed":1508326,"internal_node_id":"0.0-48.0","task_version":"0.2"},{"response_times":[558.7800000002608,455.93499999982305,717.0049999998882,446.089999999851,1342.9599999999627],"keys_pressed":["rightarrow","rightarrow","rightarrow","leftarrow","rightarrow"],"horizon":5,"forced_choices":["rightarrow","rightarrow","rightarrow","leftarrow"],"right_color":"lightblue","left_color":"orange","left_mu":40,"right_mu":48,"left_numbers":[61,46,31,39,30],"right_numbers":[69,44,42,57,60],"points_earned":254,"phase":"task","trial_type":"horizons-task","trial_index":53,"time_elapsed":1513350,"internal_node_id":"0.0-49.0","task_version":"0.2"},{"response_times":[616.934999999823,546.1650000002701,465.63999999989755,1613.9099999999162,1613.505000000121],"keys_pressed":["rightarrow","rightarrow","leftarrow","leftarrow","leftarrow"],"horizon":5,"forced_choices":["rightarrow","rightarrow","leftarrow","leftarrow"],"right_color":"orange","left_color":"lightblue","left_mu":60,"right_mu":48,"left_numbers":[64,46,60,59,58],"right_numbers":[51,40,44,47,57],"points_earned":268,"phase":"task","trial_type":"horizons-task","trial_index":54,"time_elapsed":1519709,"internal_node_id":"0.0-50.0","task_version":"0.2"},{"response_times":[472.96500000031665,451.1850000002887,735.9150000002701,607.2749999999069,992.0449999999255,665.8950000000186,1128.4249999998137,2731.2900000000373,516.0400000000373,361.08499999996275],"keys_pressed":["leftarrow","rightarrow","rightarrow","rightarrow","rightarrow","rightarrow","rightarrow","rightarrow","rightarrow","rightarrow"],"horizon":10,"forced_choices":["leftarrow","rightarrow","rightarrow","rightarrow"],"right_color":"orange","left_color":"lightblue","left_mu":60,"right_mu":90,"left_numbers":[64,74,41,67,66,58,59,65,57,74],"right_numbers":[81,88,87,92,92,81,84,89,92,93],"points_earned":862,"phase":"task","trial_type":"horizons-task","trial_index":55,"time_elapsed":1529873,"internal_node_id":"0.0-51.0","task_version":"0.2"},{"response_times":[533.0349999999162,299.8700000003446,712.0500000002794,1283.3599999998696,1688.1750000002794],"keys_pressed":["rightarrow","leftarrow","leftarrow","rightarrow","leftarrow"],"horizon":5,"forced_choices":["rightarrow","leftarrow","leftarrow","rightarrow"],"right_color":"lightblue","left_color":"orange","left_mu":60,"right_mu":52,"left_numbers":[60,59,62,46,65],"right_numbers":[50,45,52,49,54],"points_earned":285,"phase":"task","trial_type":"horizons-task","trial_index":56,"time_elapsed":1535892,"internal_node_id":"0.0-52.0","task_version":"0.2"},{"response_times":[784.1899999999441,575.9450000000652,631.0450000001583,581.964999999851,3087.8050000001676,861.8300000003073,364.9949999998789,726.8799999996554,331.07499999995343,575.9899999997579],"keys_pressed":["leftarrow","leftarrow","rightarrow","rightarrow","leftarrow","rightarrow","leftarrow","rightarrow","rightarrow","rightarrow"],"horizon":10,"forced_choices":["leftarrow","leftarrow","rightarrow","rightarrow"],"right_color":"orange","left_color":"lightblue","left_mu":40,"right_mu":36,"left_numbers":[37,39,23,36,41,29,32,17,33,29],"right_numbers":[24,23,24,40,36,41,34,31,35,42],"points_earned":362,"phase":"task","trial_type":"horizons-task","trial_index":57,"time_elapsed":1545915,"internal_node_id":"0.0-53.0","task_version":"0.2"},{"response_times":[673.6550000000279,401.05000000004657,310.92500000004657,1272.2399999997579,320.79999999981374,827.0600000000559,401.1449999997858,140.23499999986961,129.660000000149,131.11999999987893],"keys_pressed":["leftarrow","leftarrow","rightarrow","leftarrow","rightarrow","leftarrow","leftarrow","leftarrow","leftarrow","leftarrow"],"horizon":10,"forced_choices":["leftarrow","leftarrow","rightarrow","leftarrow"],"right_color":"lightblue","left_color":"orange","left_mu":40,"right_mu":44,"left_numbers":[46,44,39,56,39,52,28,31,37,43],"right_numbers":[50,25,60,43,37,37,39,41,50,49],"points_earned":434,"phase":"task","trial_type":"horizons-task","trial_index":58,"time_elapsed":1552026,"internal_node_id":"0.0-54.0","task_version":"0.2"},{"response_times":[401.79000000003725,366.1750000002794,801.9449999998324,420.9200000001583,1343.3400000000838],"keys_pressed":["leftarrow","rightarrow","rightarrow","rightarrow","rightarrow"],"horizon":5,"forced_choices":["leftarrow","rightarrow","rightarrow","rightarrow"],"right_color":"lightblue","left_color":"orange","left_mu":60,"right_mu":80,"left_numbers":[57,53,61,63,71],"right_numbers":[80,71,88,80,80],"points_earned":376,"phase":"task","trial_type":"horizons-task","trial_index":59,"time_elapsed":1556863,"internal_node_id":"0.0-55.0","task_version":"0.2"},{"response_times":[692.7900000000373,500.84499999997206,735.9200000001583,1038.2300000002142,1775.0249999999069],"keys_pressed":["leftarrow","rightarrow","leftarrow","leftarrow","leftarrow"],"horizon":5,"forced_choices":["leftarrow","rightarrow","leftarrow","leftarrow"],"right_color":"orange","left_color":"lightblue","left_mu":60,"right_mu":64,"left_numbers":[57,51,62,59,71],"right_numbers":[67,58,60,81,64],"points_earned":307,"phase":"task","trial_type":"horizons-task","trial_index":60,"time_elapsed":1563107,"internal_node_id":"0.0-56.0","task_version":"0.2"},{"response_times":[586.9299999999348,361.08499999996275,587.125,745.9549999998417,1423.279999999795],"keys_pressed":["rightarrow","leftarrow","rightarrow","rightarrow","rightarrow"],"horizon":5,"forced_choices":["rightarrow","leftarrow","rightarrow","rightarrow"],"right_color":"lightblue","left_color":"orange","left_mu":40,"right_mu":60,"left_numbers":[33,23,43,38,26],"right_numbers":[67,54,61,70,70],"points_earned":291,"phase":"task","trial_type":"horizons-task","trial_index":61,"time_elapsed":1568313,"internal_node_id":"0.0-57.0","task_version":"0.2"},{"response_times":[139582.84000000008,370.8950000000186,416.5200000000186,389.30500000016764,1409.4899999999907,369.9199999999255,171.07500000018626,124.92000000015832,119.99499999987893,130.90500000002794],"keys_pressed":["rightarrow","leftarrow","leftarrow","rightarrow","leftarrow","leftarrow","leftarrow","leftarrow","leftarrow","leftarrow"],"horizon":10,"forced_choices":["rightarrow","leftarrow","leftarrow","rightarrow"],"right_color":"orange","left_color":"lightblue","left_mu":40,"right_mu":10,"left_numbers":[41,44,40,26,24,47,37,46,33,47],"right_numbers":[0,8,20,0,13,3,0,9,0,10],"points_earned":318,"phase":"task","trial_type":"horizons-task","trial_index":62,"time_elapsed":1712915,"internal_node_id":"0.0-58.0","task_version":"0.2"},{"response_times":[419.2849999999162,305.8250000004191,255.09499999997206,796.8850000002421,391.3499999998603,390.74500000011176,139.9700000002049,129.99499999987893,131.0600000002887,124.98500000010245],"keys_pressed":["rightarrow","leftarrow","rightarrow","leftarrow","rightarrow","rightarrow","rightarrow","rightarrow","rightarrow","rightarrow"],"horizon":10,"forced_choices":["rightarrow","leftarrow","rightarrow","leftarrow"],"right_color":"lightblue","left_color":"orange","left_mu":60,"right_mu":68,"left_numbers":[45,53,53,56,61,42,52,63,67,53],"right_numbers":[65,85,77,74,85,56,67,66,67,82],"points_earned":674,"phase":"task","trial_type":"horizons-task","trial_index":63,"time_elapsed":1717503,"internal_node_id":"0.0-59.0","task_version":"0.2"},{"response_times":[396.7200000002049,385.7899999998044,285.9849999998696,366.0750000004191,1623.469999999972,285.86499999975786,566.1999999997206,811.8500000000931,381.0700000000652,149.92999999970198],"keys_pressed":["leftarrow","rightarrow","leftarrow","rightarrow","leftarrow","rightarrow","rightarrow","leftarrow","leftarrow","leftarrow"],"horizon":10,"forced_choices":["leftarrow","rightarrow","leftarrow","rightarrow"],"right_color":"lightblue","left_color":"orange","left_mu":40,"right_mu":32,"left_numbers":[45,53,28,40,41,41,45,28,41,50],"right_numbers":[29,23,28,48,26,41,34,39,43,32],"points_earned":379,"phase":"task","trial_type":"horizons-task","trial_index":64,"time_elapsed":1724258,"internal_node_id":"0.0-60.0","task_version":"0.2"},{"response_times":[607.3799999998882,645.6699999999255,241.15999999991618,625.9649999996182,2902.5799999998417,605.8800000001211,872.2400000002235,425.9299999999348,170.74499999987893,105.09499999997206],"keys_pressed":["rightarrow","rightarrow","leftarrow","rightarrow","leftarrow","leftarrow","rightarrow","leftarrow","leftarrow","leftarrow"],"horizon":10,"forced_choices":["rightarrow","rightarrow","leftarrow","rightarrow"],"right_color":"orange","left_color":"lightblue","left_mu":60,"right_mu":40,"left_numbers":[59,52,50,54,63,50,80,51,49,47],"right_numbers":[36,51,37,40,52,41,39,43,41,38],"points_earned":476,"phase":"task","trial_type":"horizons-task","trial_index":65,"time_elapsed":1732963,"internal_node_id":"0.0-61.0","task_version":"0.2"},{"response_times":[432.41500000003725,605.9300000001676,617.0600000000559,366.46999999997206,1759,531.0149999998976,1552.9750000000931,476.2049999998417,426.0450000001583,171.04000000027008],"keys_pressed":["leftarrow","leftarrow","leftarrow","rightarrow","leftarrow","leftarrow","rightarrow","leftarrow","leftarrow","leftarrow"],"horizon":10,"forced_choices":["leftarrow","leftarrow","leftarrow","rightarrow"],"right_color":"lightblue","left_color":"orange","left_mu":40,"right_mu":32,"left_numbers":[35,34,36,28,39,39,27,49,54,46],"right_numbers":[26,37,28,14,38,36,20,29,44,36],"points_earned":366,"phase":"task","trial_type":"horizons-task","trial_index":66,"time_elapsed":1741404,"internal_node_id":"0.0-62.0","task_version":"0.2"},{"response_times":[456.9299999999348,592.4600000001956,319.7449999996461,917.1049999999814,1343.2400000002235],"keys_pressed":["leftarrow","leftarrow","rightarrow","rightarrow","leftarrow"],"horizon":5,"forced_choices":["leftarrow","leftarrow","rightarrow","rightarrow"],"right_color":"lightblue","left_color":"orange","left_mu":60,"right_mu":30,"left_numbers":[59,68,58,71,62],"right_numbers":[23,35,26,33,38],"points_earned":248,"phase":"task","trial_type":"horizons-task","trial_index":67,"time_elapsed":1746535,"internal_node_id":"0.0-63.0","task_version":"0.2"},{"response_times":[613.6149999997579,410.83000000030734,626.0050000001211,536.9799999997485,1458.1450000000186],"keys_pressed":["leftarrow","rightarrow","rightarrow","leftarrow","rightarrow"],"horizon":5,"forced_choices":["leftarrow","rightarrow","rightarrow","leftarrow"],"right_color":"orange","left_color":"lightblue","left_mu":40,"right_mu":70,"left_numbers":[37,39,25,51,42],"right_numbers":[53,55,52,71,67],"points_earned":262,"phase":"task","trial_type":"horizons-task","trial_index":68,"time_elapsed":1751683,"internal_node_id":"0.0-64.0","task_version":"0.2"},{"response_times":[532.5400000000373,582.0399999998044,401.1350000000093,745.9699999997392,1278.280000000028,756.75,446.2150000000838,139.7600000000093,121.84000000031665,129.15999999991618],"keys_pressed":["leftarrow","leftarrow","rightarrow","rightarrow","leftarrow","rightarrow","leftarrow","leftarrow","leftarrow","leftarrow"],"horizon":10,"forced_choices":["leftarrow","leftarrow","rightarrow","rightarrow"],"right_color":"orange","left_color":"lightblue","left_mu":40,"right_mu":28,"left_numbers":[53,28,28,37,36,50,44,44,41,36],"right_numbers":[24,32,23,37,27,18,27,23,31,38],"points_earned":360,"phase":"task","trial_type":"horizons-task","trial_index":69,"time_elapsed":1758318,"internal_node_id":"0.0-65.0","task_version":"0.2"},{"response_times":[584.690000000177,359.89999999990687,390.5549999999348,907.8950000004843,405.27499999967404,2135.3950000002515,194.95499999984168,145.83500000019558,135.2100000004284,130.02000000025146],"keys_pressed":["rightarrow","leftarrow","rightarrow","leftarrow","rightarrow","rightarrow","rightarrow","rightarrow","rightarrow","rightarrow"],"horizon":10,"forced_choices":["rightarrow","leftarrow","rightarrow","leftarrow"],"right_color":"orange","left_color":"lightblue","left_mu":60,"right_mu":64,"left_numbers":[69,55,66,59,43,65,59,61,49,59],"right_numbers":[60,61,57,66,74,65,70,63,48,69],"points_earned":620,"phase":"task","trial_type":"horizons-task","trial_index":70,"time_elapsed":1765209,"internal_node_id":"0.0-66.0","task_version":"0.2"},{"response_times":[468.94999999995343,550.6650000002701,3713.499999999767,597.0650000004098,1363.2099999999627],"keys_pressed":["rightarrow","leftarrow","leftarrow","rightarrow","leftarrow"],"horizon":5,"forced_choices":["rightarrow","leftarrow","leftarrow","rightarrow"],"right_color":"orange","left_color":"lightblue","left_mu":40,"right_mu":10,"left_numbers":[35,40,27,40,44],"right_numbers":[11,12,20,16,10],"points_earned":138,"phase":"task","trial_type":"horizons-task","trial_index":71,"time_elapsed":1773405,"internal_node_id":"0.0-67.0","task_version":"0.2"},{"response_times":[652.475000000326,355.2300000002142,577.6650000002701,1162.0599999995902,2179.840000000084],"keys_pressed":["rightarrow","leftarrow","rightarrow","leftarrow","rightarrow"],"horizon":5,"forced_choices":["rightarrow","leftarrow","rightarrow","leftarrow"],"right_color":"lightblue","left_color":"orange","left_mu":60,"right_mu":68,"left_numbers":[55,61,71,56,57],"right_numbers":[71,81,60,76,65],"points_earned":313,"phase":"task","trial_type":"horizons-task","trial_index":72,"time_elapsed":1779835,"internal_node_id":"0.0-68.0","task_version":"0.2"},{"response_times":[783.0000000004657,746.859999999404,561.4099999994505,455.8150000004098,2611.1800000006333,1749.5099999995437,1412.9899999997579,310.929999999702,134.9950000003446,126.01499999989755],"keys_pressed":["leftarrow","leftarrow","rightarrow","leftarrow","leftarrow","rightarrow","leftarrow","leftarrow","leftarrow","leftarrow"],"horizon":10,"forced_choices":["leftarrow","leftarrow","rightarrow","leftarrow"],"right_color":"orange","left_color":"lightblue","left_mu":40,"right_mu":20,"left_numbers":[44,42,25,31,30,28,30,34,42,35],"right_numbers":[27,20,15,22,6,31,24,12,12,14],"points_earned":334,"phase":"task","trial_type":"horizons-task","trial_index":73,"time_elapsed":1790230,"internal_node_id":"0.0-69.0","task_version":"0.2"},{"response_times":[477.26999999932013,270.80999999982305,941.8800000003539,676.1500000001397,852.2949999994598,676.8249999994878,456.1149999999907,546.1099999991711,235.9550000000745,139.8899999994319],"keys_pressed":["rightarrow","leftarrow","leftarrow","leftarrow","rightarrow","leftarrow","rightarrow","rightarrow","rightarrow","rightarrow"],"horizon":10,"forced_choices":["rightarrow","leftarrow","leftarrow","leftarrow"],"right_color":"lightblue","left_color":"orange","left_mu":60,"right_mu":68,"left_numbers":[67,61,53,68,53,66,60,58,59,66],"right_numbers":[60,62,69,62,69,73,63,64,52,70],"points_earned":626,"phase":"task","trial_type":"horizons-task","trial_index":74,"time_elapsed":1797005,"internal_node_id":"0.0-70.0","task_version":"0.2"},{"response_times":[427.70999999996275,556.0299999997951,631.7449999996461,470.9249999995809,1353.0649999992456,531.2299999995157,371.285000000149,540.7999999995809,236.0049999996554,360.9049999995623],"keys_pressed":["rightarrow","rightarrow","rightarrow","leftarrow","leftarrow","rightarrow","leftarrow","leftarrow","leftarrow","leftarrow"],"horizon":10,"forced_choices":["rightarrow","rightarrow","rightarrow","leftarrow"],"right_color":"lightblue","left_color":"orange","left_mu":40,"right_mu":48,"left_numbers":[48,40,26,37,49,46,41,65,41,49],"right_numbers":[39,48,45,56,58,44,50,43,37,37],"points_earned":458,"phase":"task","trial_type":"horizons-task","trial_index":75,"time_elapsed":1803988,"internal_node_id":"0.0-71.0","task_version":"0.2"},{"response_times":[417.1049999995157,230.08000000030734,405.95999999996275,396.02499999990687,1168.394999999553],"keys_pressed":["rightarrow","leftarrow","leftarrow","rightarrow","rightarrow"],"horizon":5,"forced_choices":["rightarrow","leftarrow","leftarrow","rightarrow"],"right_color":"lightblue","left_color":"orange","left_mu":60,"right_mu":72,"left_numbers":[56,59,44,45,65],"right_numbers":[66,79,66,60,60],"points_earned":289,"phase":"task","trial_type":"horizons-task","trial_index":76,"time_elapsed":1808107,"internal_node_id":"0.0-72.0","task_version":"0.2"},{"response_times":[546.2999999998137,370.8799999994226,772.0649999999441,356.0500000002794,1283.5700000005309,450.50500000058673,491.31500000017695,375.8550000002142,184.97000000043772,149.93999999947846],"keys_pressed":["rightarrow","leftarrow","leftarrow","leftarrow","rightarrow","leftarrow","rightarrow","rightarrow","rightarrow","rightarrow"],"horizon":10,"forced_choices":["rightarrow","leftarrow","leftarrow","leftarrow"],"right_color":"orange","left_color":"lightblue","left_mu":40,"right_mu":70,"left_numbers":[35,37,48,33,29,44,22,42,39,44],"right_numbers":[63,69,75,68,79,79,65,68,63,78],"points_earned":578,"phase":"task","trial_type":"horizons-task","trial_index":77,"time_elapsed":1814591,"internal_node_id":"0.0-73.0","task_version":"0.2"},{"response_times":[583.4800000002142,211.23999999975786,521.1049999999814,590.8149999997113,210.82500000018626,410.2899999998044,160.75500000081956,140.13000000058673,145.05999999982305,131.0100000000093],"keys_pressed":["leftarrow","rightarrow","rightarrow","leftarrow","rightarrow","rightarrow","rightarrow","rightarrow","rightarrow","rightarrow"],"horizon":10,"forced_choices":["leftarrow","rightarrow","rightarrow","leftarrow"],"right_color":"orange","left_color":"lightblue","left_mu":40,"right_mu":70,"left_numbers":[41,34,36,34,40,34,50,43,53,34],"right_numbers":[57,80,70,78,70,69,69,66,75,68],"points_earned":642,"phase":"task","trial_type":"horizons-task","trial_index":78,"time_elapsed":1819198,"internal_node_id":"0.0-74.0","task_version":"0.2"},{"response_times":[533.339999999851,537.1649999995716,219.40999999968335,636.394999999553,322.9149999998044,355.17499999981374,300.04999999981374,425.7450000005774,415.93000000016764,225.32499999948777],"keys_pressed":["rightarrow","leftarrow","rightarrow","rightarrow","leftarrow","rightarrow","rightarrow","leftarrow","rightarrow","rightarrow"],"horizon":10,"forced_choices":["rightarrow","leftarrow","rightarrow","rightarrow"],"right_color":"orange","left_color":"lightblue","left_mu":40,"right_mu":52,"left_numbers":[33,36,36,44,43,40,31,49,52,19],"right_numbers":[56,45,51,66,52,44,50,53,42,38],"points_earned":475,"phase":"task","trial_type":"horizons-task","trial_index":79,"time_elapsed":1824671,"internal_node_id":"0.0-75.0","task_version":"0.2"},{"response_times":[431.40000000037253,285.84499999927357,240.92000000015832,365.29500000039116,596.7850000006147],"keys_pressed":["rightarrow","leftarrow","rightarrow","rightarrow","leftarrow"],"horizon":5,"forced_choices":["rightarrow","leftarrow","rightarrow","rightarrow"],"right_color":"orange","left_color":"lightblue","left_mu":40,"right_mu":52,"left_numbers":[53,38,47,35,52],"right_numbers":[55,71,60,49,55],"points_earned":254,"phase":"task","trial_type":"horizons-task","trial_index":80,"time_elapsed":1828094,"internal_node_id":"0.0-76.0","task_version":"0.2"},{"response_times":[552.5249999999069,547.0400000002701,756.0900000007823,521.8199999998324,585.9849999996368],"keys_pressed":["rightarrow","rightarrow","leftarrow","rightarrow","rightarrow"],"horizon":5,"forced_choices":["rightarrow","rightarrow","leftarrow","rightarrow"],"right_color":"lightblue","left_color":"orange","left_mu":60,"right_mu":56,"left_numbers":[49,58,57,66,58],"right_numbers":[53,69,60,50,52],"points_earned":281,"phase":"task","trial_type":"horizons-task","trial_index":81,"time_elapsed":1832560,"internal_node_id":"0.0-77.0","task_version":"0.2"},{"response_times":[633.7050000000745,575.2549999996554,737.0500000005122,495.88500000024214,1192.3900000001304],"keys_pressed":["leftarrow","leftarrow","leftarrow","rightarrow","leftarrow"],"horizon":5,"forced_choices":["leftarrow","leftarrow","leftarrow","rightarrow"],"right_color":"lightblue","left_color":"orange","left_mu":40,"right_mu":32,"left_numbers":[35,54,44,36,49],"right_numbers":[31,27,38,34,39],"points_earned":216,"phase":"task","trial_type":"horizons-task","trial_index":82,"time_elapsed":1837696,"internal_node_id":"0.0-78.0","task_version":"0.2"},{"response_times":[557.9900000002235,260.875,826.1349999995437,857.065000000177,236.3450000002049],"keys_pressed":["rightarrow","leftarrow","leftarrow","leftarrow","rightarrow"],"horizon":5,"forced_choices":["rightarrow","leftarrow","leftarrow","leftarrow"],"right_color":"lightblue","left_color":"orange","left_mu":60,"right_mu":30,"left_numbers":[58,73,70,57,48],"right_numbers":[6,26,43,34,40],"points_earned":246,"phase":"task","trial_type":"horizons-task","trial_index":83,"time_elapsed":1841937,"internal_node_id":"0.0-79.0","task_version":"0.2"},{"response_times":[8597.895000000019,400.160000000149,730.9850000001024,962.329999999376,777.4199999994598],"keys_pressed":["leftarrow","leftarrow","rightarrow","leftarrow","leftarrow"],"horizon":5,"forced_choices":["leftarrow","leftarrow","rightarrow","leftarrow"],"right_color":"orange","left_color":"lightblue","left_mu":40,"right_mu":20,"left_numbers":[55,34,44,29,31],"right_numbers":[14,31,25,15,10],"points_earned":174,"phase":"task","trial_type":"horizons-task","trial_index":84,"time_elapsed":1854909,"internal_node_id":"0.0-80.0","task_version":"0.2"},{"response_times":[405.62500000023283,361.18499999982305,200.75999999977648,365.1200000003446,260.875,912.0149999996647,952.1500000001397,456.47500000009313,150.38999999989755,119.82499999995343],"keys_pressed":["leftarrow","rightarrow","leftarrow","rightarrow","leftarrow","leftarrow","leftarrow","leftarrow","leftarrow","leftarrow"],"horizon":10,"forced_choices":["leftarrow","rightarrow","leftarrow","rightarrow"],"right_color":"lightblue","left_color":"orange","left_mu":60,"right_mu":56,"left_numbers":[53,57,52,64,62,62,72,57,46,58],"right_numbers":[56,51,69,57,62,55,59,60,58,52],"points_earned":570,"phase":"task","trial_type":"horizons-task","trial_index":85,"time_elapsed":1860596,"internal_node_id":"0.0-81.0","task_version":"0.2"},{"response_times":[737.8899999994319,580.7450000001118,287.7950000001583,629.1949999995995,336.37999999988824,555.9049999993294,557.0649999999441,254.89500000001863,727.4250000000466,139.9000000001397],"keys_pressed":["rightarrow","rightarrow","leftarrow","leftarrow","rightarrow","leftarrow","rightarrow","leftarrow","rightarrow","rightarrow"],"horizon":10,"forced_choices":["rightarrow","rightarrow","leftarrow","leftarrow"],"right_color":"orange","left_color":"lightblue","left_mu":60,"right_mu":48,"left_numbers":[67,57,77,47,57,57,46,62,66,58],"right_numbers":[37,40,61,50,46,61,56,48,51,44],"points_earned":517,"phase":"task","trial_type":"horizons-task","trial_index":86,"time_elapsed":1866906,"internal_node_id":"0.0-82.0","task_version":"0.2"},{"response_times":[477.9950000003446,620.8799999994226,296.1500000001397,516.2450000005774,1071.880000000354],"keys_pressed":["leftarrow","rightarrow","leftarrow","rightarrow","leftarrow"],"horizon":5,"forced_choices":["leftarrow","rightarrow","leftarrow","rightarrow"],"right_color":"lightblue","left_color":"orange","left_mu":40,"right_mu":44,"left_numbers":[52,51,31,41,41],"right_numbers":[59,42,40,39,46],"points_earned":205,"phase":"task","trial_type":"horizons-task","trial_index":87,"time_elapsed":1871391,"internal_node_id":"0.0-83.0","task_version":"0.2"},{"response_times":[493.7449999998789,364.75999999954365,186.0649999997113,665.8699999998789,376.0299999995623,582.1399999996647,521.1700000001583,129.86999999987893,125.0249999994412,126.54999999981374],"keys_pressed":["leftarrow","rightarrow","leftarrow","leftarrow","rightarrow","leftarrow","leftarrow","leftarrow","leftarrow","leftarrow"],"horizon":10,"forced_choices":["leftarrow","rightarrow","leftarrow","leftarrow"],"right_color":"orange","left_color":"lightblue","left_mu":60,"right_mu":48,"left_numbers":[61,44,64,58,46,59,58,73,63,55],"right_numbers":[46,59,42,43,35,49,24,50,41,47],"points_earned":585,"phase":"task","trial_type":"horizons-task","trial_index":88,"time_elapsed":1876464,"internal_node_id":"0.0-84.0","task_version":"0.2"},{"response_times":[9687.345000000205,440.8800000001211,496.15999999968335,341.4500000006519,1276.6350000000093,913.6550000002608,755.4250000002794,416.04000000003725,141.08000000030734,134.9700000002049],"keys_pressed":["leftarrow","rightarrow","rightarrow","rightarrow","rightarrow","rightarrow","leftarrow","rightarrow","rightarrow","rightarrow"],"horizon":10,"forced_choices":["leftarrow","rightarrow","rightarrow","rightarrow"],"right_color":"lightblue","left_color":"orange","left_mu":60,"right_mu":80,"left_numbers":[56,60,48,69,65,52,59,63,65,47],"right_numbers":[79,82,90,80,72,84,92,96,81,86],"points_earned":786,"phase":"task","trial_type":"horizons-task","trial_index":89,"time_elapsed":1892572,"internal_node_id":"0.0-85.0","task_version":"0.2"},{"response_times":[582.8399999991525,360.21000000089407,405.97499999962747,566.0150000003632,857.1799999999348],"keys_pressed":["leftarrow","leftarrow","rightarrow","rightarrow","rightarrow"],"horizon":5,"forced_choices":["leftarrow","leftarrow","rightarrow","rightarrow"],"right_color":"orange","left_color":"lightblue","left_mu":40,"right_mu":36,"left_numbers":[33,40,42,28,34],"right_numbers":[28,35,54,45,30],"points_earned":202,"phase":"task","trial_type":"horizons-task","trial_index":90,"time_elapsed":1896846,"internal_node_id":"0.0-86.0","task_version":"0.2"},{"response_times":[458.2399999999907,481.2200000004377,365.88500000024214,947.1450000002515,1553.1499999999069],"keys_pressed":["rightarrow","rightarrow","rightarrow","leftarrow","leftarrow"],"horizon":5,"forced_choices":["rightarrow","rightarrow","rightarrow","leftarrow"],"right_color":"lightblue","left_color":"orange","left_mu":60,"right_mu":52,"left_numbers":[67,52,68,56,51],"right_numbers":[51,49,46,41,42],"points_earned":253,"phase":"task","trial_type":"horizons-task","trial_index":91,"time_elapsed":1902154,"internal_node_id":"0.0-87.0","task_version":"0.2"},{"rt":19083.590000000317,"responses":{"age":"24","gender-categorical":"Male","gender-free-response":"","ethnicity":"Not Hispanic or Latino","race":["American Indian/Alaska Native","White"],"language":"Yes","fluency":"Very well"},"survey":"demographics","trial_type":"survey-demo","trial_index":92,"time_elapsed":1921239,"internal_node_id":"0.0-88.0","task_version":"0.2"},{"rt":42970.080000000075,"responses":{"difficulty":"4","fun":"4","clarity":"5","strategy":"I tried to use estimation guess work in my head to figure out which average slot machine had the most points/","feedback":"No comments, thanks"},"survey":"debrief","trial_type":"survey-debrief","trial_index":93,"time_elapsed":1964211,"internal_node_id":"0.0-89.0","task_version":"0.2","interactions":"[{\"event\":\"blur\",\"trial\":1,\"time\":2902},{\"event\":\"focus\",\"trial\":1,\"time\":3739},{\"event\":\"blur\",\"trial\":1,\"time\":7877},{\"event\":\"focus\",\"trial\":1,\"time\":24742},{\"event\":\"blur\",\"trial\":1,\"time\":55034},{\"event\":\"focus\",\"trial\":1,\"time\":60312},{\"event\":\"blur\",\"trial\":1,\"time\":61768},{\"event\":\"focus\",\"trial\":1,\"time\":74666},{\"event\":\"blur\",\"trial\":1,\"time\":104648},{\"event\":\"focus\",\"trial\":1,\"time\":122022},{\"event\":\"blur\",\"trial\":1,\"time\":173214},{\"event\":\"focus\",\"trial\":1,\"time\":198251},{\"event\":\"blur\",\"trial\":1,\"time\":217825},{\"event\":\"focus\",\"trial\":1,\"time\":280333},{\"event\":\"blur\",\"trial\":3,\"time\":403553},{\"event\":\"focus\",\"trial\":3,\"time\":489352},{\"event\":\"blur\",\"trial\":3,\"time\":510780},{\"event\":\"focus\",\"trial\":3,\"time\":538887},{\"event\":\"blur\",\"trial\":3,\"time\":540194},{\"event\":\"focus\",\"trial\":3,\"time\":567961},{\"event\":\"blur\",\"trial\":3,\"time\":568028},{\"event\":\"focus\",\"trial\":3,\"time\":573753},{\"event\":\"blur\",\"trial\":3,\"time\":575088},{\"event\":\"focus\",\"trial\":3,\"time\":647499},{\"event\":\"blur\",\"trial\":3,\"time\":649271},{\"event\":\"focus\",\"trial\":3,\"time\":651907},{\"event\":\"blur\",\"trial\":3,\"time\":653062},{\"event\":\"focus\",\"trial\":3,\"time\":669593},{\"event\":\"blur\",\"trial\":3,\"time\":671077},{\"event\":\"focus\",\"trial\":3,\"time\":681451},{\"event\":\"blur\",\"trial\":3,\"time\":682065},{\"event\":\"focus\",\"trial\":3,\"time\":683778},{\"event\":\"blur\",\"trial\":3,\"time\":685025},{\"event\":\"focus\",\"trial\":3,\"time\":693125},{\"event\":\"blur\",\"trial\":3,\"time\":693686},{\"event\":\"focus\",\"trial\":3,\"time\":695497},{\"event\":\"blur\",\"trial\":3,\"time\":696335},{\"event\":\"focus\",\"trial\":3,\"time\":731997},{\"event\":\"blur\",\"trial\":3,\"time\":733386},{\"event\":\"focus\",\"trial\":3,\"time\":767104},{\"event\":\"blur\",\"trial\":3,\"time\":768125},{\"event\":\"focus\",\"trial\":3,\"time\":770152},{\"event\":\"blur\",\"trial\":3,\"time\":774644},{\"event\":\"focus\",\"trial\":3,\"time\":775430},{\"event\":\"blur\",\"trial\":3,\"time\":775853},{\"event\":\"focus\",\"trial\":3,\"time\":780516},{\"event\":\"blur\",\"trial\":3,\"time\":795743},{\"event\":\"focus\",\"trial\":3,\"time\":804463},{\"event\":\"blur\",\"trial\":3,\"time\":831459},{\"event\":\"focus\",\"trial\":3,\"time\":835463},{\"event\":\"blur\",\"trial\":3,\"time\":851614},{\"event\":\"focus\",\"trial\":3,\"time\":858472},{\"event\":\"blur\",\"trial\":3,\"time\":860403},{\"event\":\"focus\",\"trial\":3,\"time\":912747},{\"event\":\"blur\",\"trial\":17,\"time\":1113426},{\"event\":\"focus\",\"trial\":17,\"time\":1129950},{\"event\":\"blur\",\"trial\":25,\"time\":1197175},{\"event\":\"focus\",\"trial\":25,\"time\":1219552},{\"event\":\"blur\",\"trial\":51,\"time\":1422702},{\"event\":\"focus\",\"trial\":51,\"time\":1498424},{\"event\":\"blur\",\"trial\":62,\"time\":1569219},{\"event\":\"focus\",\"trial\":62,\"time\":1651769},{\"event\":\"blur\",\"trial\":62,\"time\":1653407},{\"event\":\"focus\",\"trial\":62,\"time\":1706439},{\"event\":\"blur\",\"trial\":84,\"time\":1843270},{\"event\":\"focus\",\"trial\":84,\"time\":1849043},{\"event\":\"blur\",\"trial\":88,\"time\":1876329},{\"event\":\"focus\",\"trial\":89,\"time\":1884593}]"}]