[{"view_history":"[{\"page_index\":0,\"viewing_time\":3225.689999992028}]","rt":3226.9949999754317,"trial_type":"instructions","trial_index":0,"time_elapsed":3237,"internal_node_id":"0.0-0.0","task_version":"0.2"},{"item_order":[7,3,6,9,15,4,10,14,8,5,2,12,11,1,13,0],"responses":{"Q08":"3","Q04":"2","Q07":"3","Q10":"3","Q16":"5","Q05":"2","Q11":"2","Q15":"3","Q09":"2","Q06":"3","Q03":"4","Q13":"4","Q12":"4","Q02":"4","Q14":"2","Q01":"3"},"radio_events":[3815.5750000150874,9568.25499999104,11065.279999980703,12616.87999998685,17456.925000005867,18505.575000017416,19897.45499996934,25865.500000014435,29002.99999996787,35435.980000009295,37355.739999969956,43419.664999993984,47164.97500002151,50348.61500002444,52805.9549999889,55741.984999971464,59518.210000009276,63343.995000002906,65135.315000021365],"key_events":[],"mouse_events":[0.7249999907799065,3815.5750000150874,8375.784999981988,9568.25499999104,11065.279999980703,12064.880000019912,12616.87999998685,17456.925000005867,18505.575000017416,19329.634999972768,19897.45499996934,22258.299999986775,25865.500000014435,29002.99999996787,31714.53499997733,35435.980000009295,37355.739999969956,43419.664999993984,47164.97500002151,50348.61500002444,52805.9549999889,55165.365000022575,55741.984999971464,59518.210000009276,63343.995000002906,65135.315000021365,66310.92999997782],"rt":66316.24499999452,"survey":"nfc","trial_type":"survey-template","trial_index":1,"time_elapsed":69563,"internal_node_id":"0.0-1.0","task_version":"0.2"},{"item_order":[11,9,8,14,2,5,10,12,0,16,1,13,7,6,3,4,15],"responses":{"Q12":"3","Q10":"3","Q09":"2","Q15":"3","Q03":"3","Q06":"3","Q11":"2","Q13":"3","Q01":"2","Q17":"0","Q02":"2","Q14":"2","Q08":"3","Q07":"2","Q04":"2","Q05":"3","Q16":"2"},"radio_events":[4885.5700000422075,5837.920000019949,9580.980000027921,14111.375000036787,15856.465000018943,18086.84500004165,21383.73500003945,24239.93999999948,27303.539999993518,30753.035000001546,98984.54000003403,99832.78500003507,101544.76000001887,103089.1399999964,104114.10000000615,106250.48500002595,107754.13000001572],"key_events":[],"mouse_events":[2717.160000000149,4461.940000008326,4885.5700000422075,5837.920000019949,8621.55999999959,9580.980000027921,14111.375000036787,15856.465000018943,18086.84500004165,21383.73500003945,24239.93999999948,27303.539999993518,30753.035000001546,97905.94000002602,98984.54000003403,99832.78500003507,101544.76000001887,103089.1399999964,104114.10000000615,106250.48500002595,107754.13000001572,108715.22000001278],"rt":108719.65500002261,"survey":"pswq","trial_type":"survey-template","trial_index":2,"time_elapsed":178290,"internal_node_id":"0.0-2.0","task_version":"0.2"},{"item_order":[1,3,7,0,9,11,8,6,2,5,12,10,4],"responses":{"Q02":"3","Q04":"2","Q08":"3","Q01":"2","Q10":"3","Q12":"2","Q09":"2","Q07":"2","Q03":"3","Q06":"1","Q13":"4","Q11":"3","Q05":"2"},"radio_events":[3979.7400000388734,5588.4400000213645,9892.404999991413,10725.04500002833,13804.375000006985,15548.79000002984,16245.839999988675,24733.97500003921,28358.57500002021,30207.144999993034,31831.945000041742,32911.53000004124,34903.930000029504,37240.18000002252,41200.730000040494],"key_events":[],"mouse_events":[3979.7400000388734,5588.4400000213645,8220.725000021048,9892.404999991413,10725.04500002833,11980.350000027101,13180.025000008754,13804.375000006985,15548.79000002984,16245.839999988675,24733.97500003921,28358.57500002021,30207.144999993034,31831.945000041742,32911.53000004124,34903.930000029504,37240.18000002252,40384.64500004193,41200.730000040494,42249.33500000043],"rt":42252.58999998914,"survey":"ius12","trial_type":"survey-template","trial_index":3,"time_elapsed":220549,"internal_node_id":"0.0-3.0","task_version":"0.2"},{"view_history":"[{\"page_index\":0,\"viewing_time\":3312.1150000370108},{\"page_index\":1,\"viewing_time\":6016.814999980852},{\"page_index\":2,\"viewing_time\":7247.900000016671},{\"page_index\":3,\"viewing_time\":18819.17999999132},{\"page_index\":4,\"viewing_time\":7313.099999970291},{\"page_index\":5,\"viewing_time\":6897.415000014007},{\"page_index\":6,\"viewing_time\":5952.114999992773},{\"page_index\":7,\"viewing_time\":7849.165000021458},{\"page_index\":8,\"viewing_time\":6201.539999980014},{\"page_index\":9,\"viewing_time\":11562.069999985397}]","rt":81173.08999999659,"trial_type":"instructions","trial_index":4,"time_elapsed":301725,"internal_node_id":"0.0-4.0-0.0","task_version":"0.2"},{"response_times":[1262.9099999903701,1397.705000010319,616.8699999689125,1504.190000006929,2751.570000022184],"keys_pressed":["rightarrow","leftarrow","rightarrow","rightarrow","leftarrow"],"horizon":5,"forced_choices":["rightarrow","leftarrow","rightarrow","rightarrow"],"right_color":"lightblue","left_color":"orange","left_mu":40,"right_mu":20,"left_numbers":[36,38,34,52,31],"right_numbers":[17,9,4,17,23],"points_earned":107,"phase":"practice","trial_type":"horizons-task","trial_index":5,"time_elapsed":310772,"internal_node_id":"0.0-4.0-1.0","task_version":"0.2"},{"response_times":[1029.0099999983795,680.8949999976903,851.7700000084005,675.7249999791384,1961.1100000329316,1678.5950000048615,1256.3300000037998,703.4050000365824,530.1199999521486,534.189999976661],"keys_pressed":["leftarrow","leftarrow","rightarrow","rightarrow","rightarrow","rightarrow","rightarrow","rightarrow","rightarrow","rightarrow"],"horizon":10,"forced_choices":["leftarrow","leftarrow","rightarrow","rightarrow"],"right_color":"orange","left_color":"lightblue","left_mu":60,"right_mu":70,"left_numbers":[54,58,67,61,61,61,73,59,48,54],"right_numbers":[73,64,76,67,79,57,77,69,67,64],"points_earned":668,"phase":"practice","trial_type":"horizons-task","trial_index":6,"time_elapsed":322179,"internal_node_id":"0.0-4.0-2.0","task_version":"0.2"},{"view_history":"[{\"page_index\":0,\"viewing_time\":2231.374999973923},{\"page_index\":1,\"viewing_time\":2624.405000009574},{\"page_index\":2,\"viewing_time\":2776.0850000195205},{\"page_index\":3,\"viewing_time\":2976.3549999915995}]","rt":10609.014999994542,"trial_type":"instructions","trial_index":7,"time_elapsed":332790,"internal_node_id":"0.0-4.0-3.0","task_version":"0.2"},{"responses":["true","false","true"],"num_errors":0,"rt":19359.32500002673,"trial_type":"horizons-comprehension","trial_index":8,"time_elapsed":352156,"internal_node_id":"0.0-4.0-4.0","task_version":"0.2"},{"trial_type":"call-function","trial_index":9,"time_elapsed":352161,"internal_node_id":"0.0-5.0","task_version":"0.2"},{"view_history":"[{\"page_index\":0,\"viewing_time\":2206.069999956526},{\"page_index\":1,\"viewing_time\":4616.050000011455}]","rt":6822.760000010021,"trial_type":"instructions","trial_index":10,"time_elapsed":358985,"internal_node_id":"0.0-6.0","task_version":"0.2"},{"response_times":[1460.495000006631,985.3900000452995,775.130000023637,1383.719999983441,4583.519999985583],"keys_pressed":["leftarrow","rightarrow","leftarrow","rightarrow","leftarrow"],"horizon":5,"forced_choices":["leftarrow","rightarrow","leftarrow","rightarrow"],"right_color":"orange","left_color":"lightblue","left_mu":40,"right_mu":48,"left_numbers":[46,44,35,30,45],"right_numbers":[52,42,49,36,42],"points_earned":204,"phase":"task","trial_type":"horizons-task","trial_index":11,"time_elapsed":369684,"internal_node_id":"0.0-7.0","task_version":"0.2"},{"response_times":[751.0199999669567,639.4750000326894,704.314999980852,728.5350000020117,1367.4750000354834],"keys_pressed":["rightarrow","leftarrow","leftarrow","leftarrow","leftarrow"],"horizon":5,"forced_choices":["rightarrow","leftarrow","leftarrow","leftarrow"],"right_color":"orange","left_color":"lightblue","left_mu":40,"right_mu":10,"left_numbers":[42,42,44,58,33],"right_numbers":[15,20,18,0,8],"points_earned":192,"phase":"task","trial_type":"horizons-task","trial_index":12,"time_elapsed":375380,"internal_node_id":"0.0-8.0","task_version":"0.2"},{"response_times":[950.8349999669008,976.4299999806099,1719.5749999955297,880.0850000116043,2616.020000015851,712.5649999943562,1055.5549999698997,1046.535000030417,584.6099999616854,520.5349999596365],"keys_pressed":["leftarrow","leftarrow","leftarrow","rightarrow","rightarrow","rightarrow","rightarrow","rightarrow","rightarrow","rightarrow"],"horizon":10,"forced_choices":["leftarrow","leftarrow","leftarrow","rightarrow"],"right_color":"orange","left_color":"lightblue","left_mu":60,"right_mu":72,"left_numbers":[67,57,61,54,61,65,57,40,64,67],"right_numbers":[83,65,75,73,71,71,62,70,74,83],"points_earned":689,"phase":"task","trial_type":"horizons-task","trial_index":13,"time_elapsed":387948,"internal_node_id":"0.0-9.0","task_version":"0.2"},{"response_times":[648.4949999721721,928.0349999899045,687.7100000274368,712.2749999980442,2615.6649999902584],"keys_pressed":["rightarrow","leftarrow","leftarrow","rightarrow","leftarrow"],"horizon":5,"forced_choices":["rightarrow","leftarrow","leftarrow","rightarrow"],"right_color":"lightblue","left_color":"orange","left_mu":40,"right_mu":20,"left_numbers":[44,24,33,42,34],"right_numbers":[23,13,32,24,19],"points_earned":138,"phase":"task","trial_type":"horizons-task","trial_index":14,"time_elapsed":395059,"internal_node_id":"0.0-10.0","task_version":"0.2"},{"response_times":[607.5800000107847,439.57499996759,551.9300000160001,473.1700000120327,1838.7750000110827,599.3400000152178,536.4849999896251,496.3899999856949,455.8299999916926,448.2200000202283],"keys_pressed":["leftarrow","rightarrow","rightarrow","leftarrow","rightarrow","rightarrow","rightarrow","rightarrow","rightarrow","rightarrow"],"horizon":10,"forced_choices":["leftarrow","rightarrow","rightarrow","leftarrow"],"right_color":"lightblue","left_color":"orange","left_mu":60,"right_mu":80,"left_numbers":[59,71,52,57,54,90,62,58,64,59],"right_numbers":[77,75,69,71,78,83,92,94,74,86],"points_earned":767,"phase":"task","trial_type":"horizons-task","trial_index":15,"time_elapsed":403054,"internal_node_id":"0.0-11.0","task_version":"0.2"},{"response_times":[589.68500001356,591.7000000481494,855.7150000124238,615.9700000425801,1807.555000006687,479.87499996088445,448.54999997187406,447.649999987334,463.4899999946356,727.4749999633059],"keys_pressed":["rightarrow","rightarrow","rightarrow","leftarrow","leftarrow","leftarrow","leftarrow","leftarrow","leftarrow","leftarrow"],"horizon":10,"forced_choices":["rightarrow","rightarrow","rightarrow","leftarrow"],"right_color":"orange","left_color":"lightblue","left_mu":60,"right_mu":30,"left_numbers":[58,53,70,62,55,54,51,60,65,43],"right_numbers":[51,30,38,22,26,31,21,44,36,30],"points_earned":509,"phase":"task","trial_type":"horizons-task","trial_index":16,"time_elapsed":411587,"internal_node_id":"0.0-12.0","task_version":"0.2"},{"response_times":[607.6299999840558,433.0750000081025,519.7550000157207,727.6149999815971,1631.5499999909662,784.5000000088476,1944.2399999825284,607.3650000034831,488.1949999835342,456.51500002713874],"keys_pressed":["leftarrow","rightarrow","rightarrow","rightarrow","leftarrow","leftarrow","leftarrow","rightarrow","rightarrow","rightarrow"],"horizon":10,"forced_choices":["leftarrow","rightarrow","rightarrow","rightarrow"],"right_color":"lightblue","left_color":"orange","left_mu":60,"right_mu":56,"left_numbers":[69,67,66,62,55,53,41,79,62,57],"right_numbers":[49,58,53,53,62,56,58,51,69,47],"points_earned":549,"phase":"task","trial_type":"horizons-task","trial_index":17,"time_elapsed":421293,"internal_node_id":"0.0-13.0","task_version":"0.2"},{"response_times":[686.7499999934807,432.19000002136454,544.1400000127032,711.7250000010245,1742.4800000153482],"keys_pressed":["leftarrow","rightarrow","rightarrow","leftarrow","rightarrow"],"horizon":5,"forced_choices":["leftarrow","rightarrow","rightarrow","leftarrow"],"right_color":"lightblue","left_color":"orange","left_mu":60,"right_mu":80,"left_numbers":[61,71,44,66,53],"right_numbers":[72,76,82,76,75],"points_earned":360,"phase":"task","trial_type":"horizons-task","trial_index":18,"time_elapsed":426915,"internal_node_id":"0.0-14.0","task_version":"0.2"},{"response_times":[760.3399999788962,447.8049999452196,464.1900000278838,736.3449999829754,2151.56000002753],"keys_pressed":["leftarrow","rightarrow","leftarrow","leftarrow","rightarrow"],"horizon":5,"forced_choices":["leftarrow","rightarrow","leftarrow","leftarrow"],"right_color":"lightblue","left_color":"orange","left_mu":60,"right_mu":64,"left_numbers":[60,62,46,57,58],"right_numbers":[69,64,62,44,63],"points_earned":290,"phase":"task","trial_type":"horizons-task","trial_index":19,"time_elapsed":432981,"internal_node_id":"0.0-15.0","task_version":"0.2"},{"response_times":[662.9699999466538,592.5699999788776,544.0149999922141,1191.7900000116788,1001.8000000272878],"keys_pressed":["leftarrow","rightarrow","rightarrow","rightarrow","rightarrow"],"horizon":5,"forced_choices":["leftarrow","rightarrow","rightarrow","rightarrow"],"right_color":"lightblue","left_color":"orange","left_mu":60,"right_mu":56,"left_numbers":[53,58,65,55,51],"right_numbers":[55,49,59,62,41],"points_earned":264,"phase":"task","trial_type":"horizons-task","trial_index":20,"time_elapsed":438479,"internal_node_id":"0.0-16.0","task_version":"0.2"},{"response_times":[532.390000007581,408.59000000637025,511.19499997003004,496.27999996300787,1079.0900000138208,480.53999996045604,495.95499999122694,456.0549999587238,400.0549999764189,407.4049999471754],"keys_pressed":["leftarrow","rightarrow","rightarrow","rightarrow","rightarrow","rightarrow","rightarrow","rightarrow","rightarrow","rightarrow"],"horizon":10,"forced_choices":["leftarrow","rightarrow","rightarrow","rightarrow"],"right_color":"orange","left_color":"lightblue","left_mu":40,"right_mu":60,"left_numbers":[36,39,45,38,44,40,31,25,52,37],"right_numbers":[53,59,44,59,58,67,65,62,64,51],"points_earned":565,"phase":"task","trial_type":"horizons-task","trial_index":21,"time_elapsed":445251,"internal_node_id":"0.0-17.0","task_version":"0.2"},{"response_times":[582.494999980554,681.2250000075437,654.5399999595247,744.9349999660626,1086.6249999962747,847.8950000135228,808.0349999945611,504.11999999778345,1680.7950000511482,422.614999988582],"keys_pressed":["leftarrow","leftarrow","rightarrow","rightarrow","leftarrow","leftarrow","leftarrow","leftarrow","leftarrow","leftarrow"],"horizon":10,"forced_choices":["leftarrow","leftarrow","rightarrow","rightarrow"],"right_color":"lightblue","left_color":"orange","left_mu":60,"right_mu":56,"left_numbers":[62,65,66,63,50,60,57,45,43,60],"right_numbers":[62,48,56,49,75,57,56,60,59,55],"points_earned":547,"phase":"task","trial_type":"horizons-task","trial_index":22,"time_elapsed":454772,"internal_node_id":"0.0-18.0","task_version":"0.2"},{"response_times":[567.3949999618344,487.2800000011921,544.3150000064634,591.9250000151806,1231.5749999834225,519.9199999915436,431.1849999940023,400.5849999957718,383.4999999962747,361.3749999785796],"keys_pressed":["rightarrow","leftarrow","leftarrow","rightarrow","leftarrow","leftarrow","leftarrow","leftarrow","leftarrow","leftarrow"],"horizon":10,"forced_choices":["rightarrow","leftarrow","leftarrow","rightarrow"],"right_color":"lightblue","left_color":"orange","left_mu":40,"right_mu":20,"left_numbers":[31,29,40,36,42,36,28,37,28,45],"right_numbers":[15,13,32,20,17,24,13,6,18,15],"points_earned":320,"phase":"task","trial_type":"horizons-task","trial_index":23,"time_elapsed":461797,"internal_node_id":"0.0-19.0","task_version":"0.2"},{"response_times":[533.8650000048801,623.1399999815039,463.77500001108274,999.7049999656156,784.3500000308268,415.3500000247732,336.1750000040047,346.5149999829009,382.9000000259839,351.85499995714054],"keys_pressed":["leftarrow","rightarrow","leftarrow","rightarrow","rightarrow","rightarrow","rightarrow","rightarrow","rightarrow","rightarrow"],"horizon":10,"forced_choices":["leftarrow","rightarrow","leftarrow","rightarrow"],"right_color":"orange","left_color":"lightblue","left_mu":40,"right_mu":60,"left_numbers":[30,46,32,47,44,38,42,29,49,48],"right_numbers":[60,56,61,68,61,65,64,63,63,76],"points_earned":578,"phase":"task","trial_type":"horizons-task","trial_index":24,"time_elapsed":468540,"internal_node_id":"0.0-20.0","task_version":"0.2"},{"response_times":[574.544999981299,2328.4049999783747,719.1449999809265,904.8000000184402,3832.059999986086,320.19499997841194,295.55499996058643,343.86999998241663,335.99500003037974,367.3449999769218],"keys_pressed":["leftarrow","leftarrow","leftarrow","rightarrow","leftarrow","leftarrow","leftarrow","leftarrow","leftarrow","leftarrow"],"horizon":10,"forced_choices":["leftarrow","leftarrow","leftarrow","rightarrow"],"right_color":"orange","left_color":"lightblue","left_mu":60,"right_mu":40,"left_numbers":[73,70,57,58,61,66,51,55,72,73],"right_numbers":[33,28,40,50,35,44,39,37,40,34],"points_earned":628,"phase":"task","trial_type":"horizons-task","trial_index":25,"time_elapsed":480067,"internal_node_id":"0.0-21.0","task_version":"0.2"},{"response_times":[8439.699999988079,607.1500000543892,3087.8450000309385,712.1549999574199,1607.2149999672547,456.5350000048056,255.90000004740432,263.8499999884516,263.8600000063889,296.31000000517815],"keys_pressed":["rightarrow","rightarrow","leftarrow","rightarrow","rightarrow","rightarrow","rightarrow","rightarrow","rightarrow","rightarrow"],"horizon":10,"forced_choices":["rightarrow","rightarrow","leftarrow","rightarrow"],"right_color":"lightblue","left_color":"orange","left_mu":60,"right_mu":52,"left_numbers":[68,59,53,52,63,48,56,58,55,51],"right_numbers":[53,43,40,51,64,45,65,55,55,60],"points_earned":544,"phase":"task","trial_type":"horizons-task","trial_index":26,"time_elapsed":497564,"internal_node_id":"0.0-22.0","task_version":"0.2"},{"response_times":[854.460000002291,664.055000001099,647.4949999828823,1071.929999976419,1768.6950000352226],"keys_pressed":["leftarrow","rightarrow","leftarrow","rightarrow","leftarrow"],"horizon":5,"forced_choices":["leftarrow","rightarrow","leftarrow","rightarrow"],"right_color":"lightblue","left_color":"orange","left_mu":60,"right_mu":52,"left_numbers":[46,63,60,74,57],"right_numbers":[58,50,50,51,52],"points_earned":264,"phase":"task","trial_type":"horizons-task","trial_index":27,"time_elapsed":504076,"internal_node_id":"0.0-23.0","task_version":"0.2"},{"response_times":[966.1300000152551,671.9150000135414,495.8199999528006,681.0150000383146,1118.819999974221,439.84000000637025,400.4300000378862,855.9599999571219,263.1200000178069,865.1700000045821],"keys_pressed":["rightarrow","rightarrow","leftarrow","leftarrow","leftarrow","leftarrow","leftarrow","rightarrow","rightarrow","rightarrow"],"horizon":10,"forced_choices":["rightarrow","rightarrow","leftarrow","leftarrow"],"right_color":"lightblue","left_color":"orange","left_mu":40,"right_mu":36,"left_numbers":[44,43,47,34,48,30,34,44,44,26],"right_numbers":[38,38,29,34,37,24,39,16,44,22],"points_earned":351,"phase":"task","trial_type":"horizons-task","trial_index":28,"time_elapsed":512341,"internal_node_id":"0.0-24.0","task_version":"0.2"},{"response_times":[1078.2750000362284,528.504999994766,534.4550000154413,656.3549999846146,1103.9749999763444],"keys_pressed":["rightarrow","leftarrow","rightarrow","leftarrow","rightarrow"],"horizon":5,"forced_choices":["rightarrow","leftarrow","rightarrow","leftarrow"],"right_color":"orange","left_color":"lightblue","left_mu":40,"right_mu":44,"left_numbers":[38,41,44,44,39],"right_numbers":[60,48,45,51,44],"points_earned":234,"phase":"task","trial_type":"horizons-task","trial_index":29,"time_elapsed":517747,"internal_node_id":"0.0-25.0","task_version":"0.2"},{"response_times":[1679.0050000417978,447.2649999661371,481.12499999115244,822.199999995064,1392.4049999914132,495.6349999993108,583.9299999643117,351.7100000171922,280.94000002602115,527.2300000069663],"keys_pressed":["rightarrow","leftarrow","rightarrow","rightarrow","rightarrow","rightarrow","rightarrow","rightarrow","rightarrow","rightarrow"],"horizon":10,"forced_choices":["rightarrow","leftarrow","rightarrow","rightarrow"],"right_color":"orange","left_color":"lightblue","left_mu":40,"right_mu":52,"left_numbers":[26,39,46,32,47,46,41,40,29,50],"right_numbers":[40,54,38,41,55,51,59,42,53,51],"points_earned":469,"phase":"task","trial_type":"horizons-task","trial_index":30,"time_elapsed":526316,"internal_node_id":"0.0-26.0","task_version":"0.2"},{"response_times":[599.854999978561,839.3499999656342,625.8149999775924,710.1050000055693,911.5150000434369,470.87000001920387,448.8100000307895,384.50500002363697,1080.0099999760278,415.12499999953434],"keys_pressed":["rightarrow","rightarrow","leftarrow","leftarrow","leftarrow","leftarrow","leftarrow","leftarrow","leftarrow","leftarrow"],"horizon":10,"forced_choices":["rightarrow","rightarrow","leftarrow","leftarrow"],"right_color":"orange","left_color":"lightblue","left_mu":40,"right_mu":28,"left_numbers":[47,35,48,39,37,57,27,19,33,35],"right_numbers":[22,32,40,15,10,26,30,30,35,24],"points_earned":349,"phase":"task","trial_type":"horizons-task","trial_index":31,"time_elapsed":534307,"internal_node_id":"0.0-27.0","task_version":"0.2"},{"response_times":[503.6199999740347,663.5000000242144,472.6200000150129,679.72999997437,870.9650000091642,1425.5700000212528,471.8350000330247,231.6450000507757,192.06000003032386,175.5750000011176],"keys_pressed":["leftarrow","rightarrow","rightarrow","rightarrow","leftarrow","leftarrow","leftarrow","leftarrow","leftarrow","leftarrow"],"horizon":10,"forced_choices":["leftarrow","rightarrow","rightarrow","rightarrow"],"right_color":"lightblue","left_color":"orange","left_mu":60,"right_mu":48,"left_numbers":[66,63,66,63,70,69,63,61,65,79],"right_numbers":[40,40,52,51,53,47,37,42,36,49],"points_earned":616,"phase":"task","trial_type":"horizons-task","trial_index":32,"time_elapsed":541499,"internal_node_id":"0.0-28.0","task_version":"0.2"},{"response_times":[617.7100000204518,839.2349999630824,543.6300000292249,800.954999984242,935.7050000107847],"keys_pressed":["rightarrow","rightarrow","leftarrow","leftarrow","leftarrow"],"horizon":5,"forced_choices":["rightarrow","rightarrow","leftarrow","leftarrow"],"right_color":"lightblue","left_color":"orange","left_mu":60,"right_mu":48,"left_numbers":[73,73,60,68,69],"right_numbers":[49,49,46,51,50],"points_earned":295,"phase":"task","trial_type":"horizons-task","trial_index":33,"time_elapsed":546739,"internal_node_id":"0.0-29.0","task_version":"0.2"},{"response_times":[806.1100000049919,455.79000003635883,672.2099999897182,545.25000002468,3046.810000028927,463.05500000016764,808.5849999915808,695.865000016056,279.660000000149,1264.2350000096485],"keys_pressed":["leftarrow","rightarrow","rightarrow","leftarrow","rightarrow","rightarrow","rightarrow","rightarrow","rightarrow","rightarrow"],"horizon":10,"forced_choices":["leftarrow","rightarrow","rightarrow","leftarrow"],"right_color":"lightblue","left_color":"orange","left_mu":60,"right_mu":68,"left_numbers":[62,61,68,61,72,56,53,52,55,42],"right_numbers":[76,61,63,42,74,50,58,87,84,73],"points_earned":673,"phase":"task","trial_type":"horizons-task","trial_index":34,"time_elapsed":557284,"internal_node_id":"0.0-30.0","task_version":"0.2"},{"response_times":[592.4849999719299,461.8050000281073,591.8250000104308,735.4000000050291,848.3550000237301],"keys_pressed":["rightarrow","leftarrow","leftarrow","leftarrow","rightarrow"],"horizon":5,"forced_choices":["rightarrow","leftarrow","leftarrow","leftarrow"],"right_color":"lightblue","left_color":"orange","left_mu":60,"right_mu":80,"left_numbers":[60,42,61,52,60],"right_numbers":[78,88,92,68,83],"points_earned":316,"phase":"task","trial_type":"horizons-task","trial_index":35,"time_elapsed":562018,"internal_node_id":"0.0-31.0","task_version":"0.2"},{"response_times":[680.8500000042841,383.0699999816716,455.5199999595061,640.3449999634176,1096.1250000400469,456.0050000436604,648.2950000208803,407.3749999515712,543.9100000075996,263.9849999686703],"keys_pressed":["rightarrow","leftarrow","rightarrow","rightarrow","rightarrow","rightarrow","rightarrow","rightarrow","rightarrow","rightarrow"],"horizon":10,"forced_choices":["rightarrow","leftarrow","rightarrow","rightarrow"],"right_color":"lightblue","left_color":"orange","left_mu":60,"right_mu":68,"left_numbers":[64,58,48,56,58,51,59,48,47,70],"right_numbers":[62,66,56,79,50,69,54,73,61,68],"points_earned":630,"phase":"task","trial_type":"horizons-task","trial_index":36,"time_elapsed":569099,"internal_node_id":"0.0-32.0","task_version":"0.2"},{"response_times":[462.78999996138737,424.1399999591522,727.8850000002421,463.77500001108274,2584.564999968279,471.2699999799952,657.805000024382,245.91500003589317,208.70499999728054,190.6400000443682],"keys_pressed":["rightarrow","leftarrow","leftarrow","rightarrow","leftarrow","leftarrow","leftarrow","leftarrow","leftarrow","leftarrow"],"horizon":10,"forced_choices":["rightarrow","leftarrow","leftarrow","rightarrow"],"right_color":"orange","left_color":"lightblue","left_mu":40,"right_mu":32,"left_numbers":[44,28,34,46,34,53,53,33,32,40],"right_numbers":[29,45,31,32,36,32,46,23,32,36],"points_earned":368,"phase":"task","trial_type":"horizons-task","trial_index":37,"time_elapsed":577042,"internal_node_id":"0.0-33.0","task_version":"0.2"},{"response_times":[566.350000037346,478.8399999961257,422.9400000185706,584.7349999821745,2336.2750000087544,415.915000019595,471.8799999682233,398.2599999872036,672.2849999787286,215.83000000100583],"keys_pressed":["leftarrow","rightarrow","leftarrow","rightarrow","leftarrow","leftarrow","leftarrow","leftarrow","leftarrow","leftarrow"],"horizon":10,"forced_choices":["leftarrow","rightarrow","leftarrow","rightarrow"],"right_color":"lightblue","left_color":"orange","left_mu":60,"right_mu":52,"left_numbers":[71,60,58,56,67,61,47,57,52,77],"right_numbers":[49,66,58,63,55,51,56,47,38,52],"points_earned":619,"phase":"task","trial_type":"horizons-task","trial_index":38,"time_elapsed":585115,"internal_node_id":"0.0-34.0","task_version":"0.2"},{"response_times":[607.9599999939092,697.3800000268966,574.0050000022165,576.5499999979511,2687.839999969583],"keys_pressed":["rightarrow","rightarrow","rightarrow","leftarrow","rightarrow"],"horizon":5,"forced_choices":["rightarrow","rightarrow","rightarrow","leftarrow"],"right_color":"orange","left_color":"lightblue","left_mu":40,"right_mu":44,"left_numbers":[35,40,42,33,47],"right_numbers":[42,35,37,50,45],"points_earned":192,"phase":"task","trial_type":"horizons-task","trial_index":39,"time_elapsed":591765,"internal_node_id":"0.0-35.0","task_version":"0.2"},{"response_times":[534.5100000267848,775.6400000071153,439.829999988433,655.7700000121258,752.0300000323914],"keys_pressed":["rightarrow","rightarrow","leftarrow","rightarrow","rightarrow"],"horizon":5,"forced_choices":["rightarrow","rightarrow","leftarrow","rightarrow"],"right_color":"lightblue","left_color":"orange","left_mu":40,"right_mu":70,"left_numbers":[29,45,31,36,38],"right_numbers":[74,64,83,58,63],"points_earned":290,"phase":"task","trial_type":"horizons-task","trial_index":40,"time_elapsed":596428,"internal_node_id":"0.0-36.0","task_version":"0.2"},{"response_times":[566.6650000493973,432.18000000342727,431.6199999884702,1191.4499999838881,4848.150000034366],"keys_pressed":["rightarrow","leftarrow","rightarrow","rightarrow","rightarrow"],"horizon":5,"forced_choices":["rightarrow","leftarrow","rightarrow","rightarrow"],"right_color":"lightblue","left_color":"orange","left_mu":60,"right_mu":68,"left_numbers":[40,74,59,55,58],"right_numbers":[66,62,61,61,63],"points_earned":325,"phase":"task","trial_type":"horizons-task","trial_index":41,"time_elapsed":605403,"internal_node_id":"0.0-37.0","task_version":"0.2"},{"response_times":[649.585000006482,367.8550000186078,744.0100000239909,480.92000000178814,887.0100000058301],"keys_pressed":["rightarrow","leftarrow","leftarrow","rightarrow","leftarrow"],"horizon":5,"forced_choices":["rightarrow","leftarrow","leftarrow","rightarrow"],"right_color":"orange","left_color":"lightblue","left_mu":60,"right_mu":40,"left_numbers":[69,59,63,50,58],"right_numbers":[30,34,39,31,14],"points_earned":241,"phase":"task","trial_type":"horizons-task","trial_index":42,"time_elapsed":610067,"internal_node_id":"0.0-38.0","task_version":"0.2"},{"response_times":[599.6499999891967,399.50499997939914,681.3700000056997,791.5550000034273,1663.2349999854341],"keys_pressed":["rightarrow","leftarrow","leftarrow","rightarrow","rightarrow"],"horizon":5,"forced_choices":["rightarrow","leftarrow","leftarrow","rightarrow"],"right_color":"lightblue","left_color":"orange","left_mu":60,"right_mu":90,"left_numbers":[51,66,77,52,56],"right_numbers":[99,90,95,94,96],"points_earned":432,"phase":"task","trial_type":"horizons-task","trial_index":43,"time_elapsed":615707,"internal_node_id":"0.0-39.0","task_version":"0.2"},{"response_times":[551.9949999870732,455.77500003855675,560.2150000049733,544.5499999914318,1334.2149999807589],"keys_pressed":["rightarrow","leftarrow","rightarrow","leftarrow","leftarrow"],"horizon":5,"forced_choices":["rightarrow","leftarrow","rightarrow","leftarrow"],"right_color":"orange","left_color":"lightblue","left_mu":60,"right_mu":30,"left_numbers":[57,59,59,57,51],"right_numbers":[21,18,24,14,33],"points_earned":212,"phase":"task","trial_type":"horizons-task","trial_index":44,"time_elapsed":620659,"internal_node_id":"0.0-40.0","task_version":"0.2"},{"response_times":[632.3899999842979,655.0900000147521,496.6949999798089,679.355000029318,1072.1550000016578,624.1649999865331,408.0350000294857,247.13999999221414,200.7350000203587,430.75999995926395],"keys_pressed":["rightarrow","rightarrow","rightarrow","leftarrow","rightarrow","rightarrow","rightarrow","rightarrow","rightarrow","rightarrow"],"horizon":10,"forced_choices":["rightarrow","rightarrow","rightarrow","leftarrow"],"right_color":"orange","left_color":"lightblue","left_mu":40,"right_mu":44,"left_numbers":[59,36,31,41,50,47,38,26,35,66],"right_numbers":[51,37,50,31,48,44,45,50,45,47],"points_earned":458,"phase":"task","trial_type":"horizons-task","trial_index":45,"time_elapsed":627610,"internal_node_id":"0.0-41.0","task_version":"0.2"},{"response_times":[702.6549999718554,839.1849999898113,552.6399999507703,543.4600000153296,1352.3699999786913,407.94499998446554,655.1549999858253,192.37499998416752,176.2499999604188,207.82000001054257],"keys_pressed":["leftarrow","leftarrow","rightarrow","leftarrow","leftarrow","leftarrow","leftarrow","leftarrow","leftarrow","leftarrow"],"horizon":10,"forced_choices":["leftarrow","leftarrow","rightarrow","leftarrow"],"right_color":"orange","left_color":"lightblue","left_mu":40,"right_mu":32,"left_numbers":[42,52,20,54,34,47,40,49,44,40],"right_numbers":[28,32,32,34,23,14,19,40,31,40],"points_earned":434,"phase":"task","trial_type":"horizons-task","trial_index":46,"time_elapsed":634749,"internal_node_id":"0.0-42.0","task_version":"0.2"},{"response_times":[784.6849999623373,462.0899999863468,432.0050000096671,1223.7600000225939,1128.519999969285,350.92499997699633,279.97999999206513,247.8899999987334,216.69999998994172,199.28999996045604],"keys_pressed":["rightarrow","leftarrow","rightarrow","leftarrow","leftarrow","leftarrow","leftarrow","leftarrow","leftarrow","leftarrow"],"horizon":10,"forced_choices":["rightarrow","leftarrow","rightarrow","leftarrow"],"right_color":"orange","left_color":"lightblue","left_mu":60,"right_mu":30,"left_numbers":[69,74,51,53,62,70,74,48,52,57],"right_numbers":[39,28,37,22,17,23,45,39,40,20],"points_earned":566,"phase":"task","trial_type":"horizons-task","trial_index":47,"time_elapsed":641579,"internal_node_id":"0.0-43.0","task_version":"0.2"},{"response_times":[496.3399999542162,743.8299999921583,528.4550000214949,655.8300000033341,1328.2499999622814,359.84500002814457,335.42499999748543,231.70499998377636,176.6150000039488,175.39499996928498],"keys_pressed":["rightarrow","rightarrow","leftarrow","leftarrow","leftarrow","leftarrow","leftarrow","leftarrow","leftarrow","leftarrow"],"horizon":10,"forced_choices":["rightarrow","rightarrow","leftarrow","leftarrow"],"right_color":"lightblue","left_color":"orange","left_mu":60,"right_mu":48,"left_numbers":[51,56,57,66,62,73,70,61,70,59],"right_numbers":[52,44,26,46,41,44,51,39,50,32],"points_earned":614,"phase":"task","trial_type":"horizons-task","trial_index":48,"time_elapsed":648115,"internal_node_id":"0.0-44.0","task_version":"0.2"},{"response_times":[576.2400000239722,559.9849999998696,575.6650000112131,1175.8050000062212,1351.3699999894015],"keys_pressed":["rightarrow","rightarrow","leftarrow","rightarrow","rightarrow"],"horizon":5,"forced_choices":["rightarrow","rightarrow","leftarrow","rightarrow"],"right_color":"lightblue","left_color":"orange","left_mu":60,"right_mu":52,"left_numbers":[40,53,51,73,59],"right_numbers":[61,46,50,52,56],"points_earned":266,"phase":"task","trial_type":"horizons-task","trial_index":49,"time_elapsed":653859,"internal_node_id":"0.0-45.0","task_version":"0.2"},{"response_times":[552.3049999610521,414.97500002151355,391.80499996291474,607.3800000012852,816.56499998644],"keys_pressed":["rightarrow","leftarrow","rightarrow","rightarrow","rightarrow"],"horizon":5,"forced_choices":["rightarrow","leftarrow","rightarrow","rightarrow"],"right_color":"orange","left_color":"lightblue","left_mu":40,"right_mu":52,"left_numbers":[49,37,60,34,28],"right_numbers":[60,39,59,64,55],"points_earned":275,"phase":"task","trial_type":"horizons-task","trial_index":50,"time_elapsed":658171,"internal_node_id":"0.0-46.0","task_version":"0.2"},{"view_history":"[{\"page_index\":0,\"viewing_time\":42910.450000024866},{\"page_index\":1,\"viewing_time\":2560.635000001639}]","rt":45472.1300000092,"trial_type":"instructions","trial_index":51,"time_elapsed":703646,"internal_node_id":"0.0-47.0","task_version":"0.2"},{"response_times":[1188.895000028424,791.9750000000931,3215.574999980163,776.0999999591149,768.1650000158697,320.11000002967194,472.0800000359304,198.5199999762699,169.2950000287965,159.14500004146248],"keys_pressed":["leftarrow","leftarrow","rightarrow","leftarrow","leftarrow","leftarrow","leftarrow","leftarrow","leftarrow","leftarrow"],"horizon":10,"forced_choices":["leftarrow","leftarrow","rightarrow","leftarrow"],"right_color":"orange","left_color":"lightblue","left_mu":40,"right_mu":28,"left_numbers":[58,42,30,42,35,57,41,46,44,26],"right_numbers":[21,18,21,31,38,11,42,29,24,34],"points_earned":412,"phase":"task","trial_type":"horizons-task","trial_index":52,"time_elapsed":713219,"internal_node_id":"0.0-48.0","task_version":"0.2"},{"response_times":[639.4899999722838,447.92500004405156,592.3349999939092,1134.9850000115111,624.7200000216253],"keys_pressed":["leftarrow","rightarrow","rightarrow","rightarrow","rightarrow"],"horizon":5,"forced_choices":["leftarrow","rightarrow","rightarrow","rightarrow"],"right_color":"orange","left_color":"lightblue","left_mu":40,"right_mu":60,"left_numbers":[50,33,35,41,40],"right_numbers":[61,52,65,60,64],"points_earned":291,"phase":"task","trial_type":"horizons-task","trial_index":53,"time_elapsed":718164,"internal_node_id":"0.0-49.0","task_version":"0.2"},{"response_times":[494.0550000173971,432.5449999887496,423.2149999588728,527.8449999750592,2184.580000001006,415.25999997975305,239.9149999837391,241.10499996459112,207.05500000622123,199.94500000029802],"keys_pressed":["leftarrow","rightarrow","leftarrow","leftarrow","rightarrow","rightarrow","rightarrow","rightarrow","rightarrow","rightarrow"],"horizon":10,"forced_choices":["leftarrow","rightarrow","leftarrow","leftarrow"],"right_color":"orange","left_color":"lightblue","left_mu":40,"right_mu":48,"left_numbers":[28,49,47,38,32,43,51,48,40,48],"right_numbers":[49,52,64,36,55,42,62,41,53,56],"points_earned":474,"phase":"task","trial_type":"horizons-task","trial_index":54,"time_elapsed":725035,"internal_node_id":"0.0-50.0","task_version":"0.2"},{"response_times":[1815.7950000022538,392.63499999651685,535.3250000043772,568.3849999913946,1023.2650000252761],"keys_pressed":["leftarrow","rightarrow","rightarrow","leftarrow","rightarrow"],"horizon":5,"forced_choices":["leftarrow","rightarrow","rightarrow","leftarrow"],"right_color":"lightblue","left_color":"orange","left_mu":60,"right_mu":68,"left_numbers":[61,71,61,65,61],"right_numbers":[65,72,53,75,67],"points_earned":318,"phase":"task","trial_type":"horizons-task","trial_index":55,"time_elapsed":730874,"internal_node_id":"0.0-51.0","task_version":"0.2"},{"response_times":[512.7099999808706,639.6899999817833,441.3700000150129,470.18499998375773,2544.6349999983795,1088.579999981448,400.290000019595,502.8200000524521,247.43500002659857,176.17500002961606],"keys_pressed":["leftarrow","leftarrow","rightarrow","rightarrow","rightarrow","rightarrow","rightarrow","rightarrow","rightarrow","rightarrow"],"horizon":10,"forced_choices":["leftarrow","leftarrow","rightarrow","rightarrow"],"right_color":"lightblue","left_color":"orange","left_mu":60,"right_mu":64,"left_numbers":[56,57,50,67,67,65,71,69,60,69],"right_numbers":[78,68,58,76,68,52,80,67,72,64],"points_earned":650,"phase":"task","trial_type":"horizons-task","trial_index":56,"time_elapsed":739403,"internal_node_id":"0.0-52.0","task_version":"0.2"},{"response_times":[495.7899999571964,457.9850000445731,381.69999996898696,527.7699999860488,1089.2850000527687],"keys_pressed":["leftarrow","leftarrow","rightarrow","leftarrow","leftarrow"],"horizon":5,"forced_choices":["leftarrow","leftarrow","rightarrow","leftarrow"],"right_color":"orange","left_color":"lightblue","left_mu":40,"right_mu":32,"left_numbers":[26,34,37,52,37],"right_numbers":[18,39,21,27,28],"points_earned":170,"phase":"task","trial_type":"horizons-task","trial_index":57,"time_elapsed":743861,"internal_node_id":"0.0-53.0","task_version":"0.2"},{"response_times":[561.9550000410527,415.1699999929406,495.9800000069663,503.4449999802746,1271.5199999511242,392.2050000401214,199.5500000193715,184.64999995194376,159.46499997517094,167.9149999981746],"keys_pressed":["leftarrow","leftarrow","rightarrow","rightarrow","rightarrow","rightarrow","rightarrow","rightarrow","rightarrow","rightarrow"],"horizon":10,"forced_choices":["leftarrow","leftarrow","rightarrow","rightarrow"],"right_color":"lightblue","left_color":"orange","left_mu":40,"right_mu":70,"left_numbers":[30,45,55,43,41,36,38,27,46,32],"right_numbers":[66,68,60,65,69,75,81,65,70,71],"points_earned":631,"phase":"task","trial_type":"horizons-task","trial_index":58,"time_elapsed":749739,"internal_node_id":"0.0-54.0","task_version":"0.2"},{"response_times":[519.3749999743886,455.13000001665205,577.019999967888,519.9349999893457,1768.6399999656714],"keys_pressed":["leftarrow","leftarrow","leftarrow","rightarrow","leftarrow"],"horizon":5,"forced_choices":["leftarrow","leftarrow","leftarrow","rightarrow"],"right_color":"orange","left_color":"lightblue","left_mu":60,"right_mu":40,"left_numbers":[72,58,56,51,73],"right_numbers":[35,23,35,47,60],"points_earned":306,"phase":"task","trial_type":"horizons-task","trial_index":59,"time_elapsed":755083,"internal_node_id":"0.0-55.0","task_version":"0.2"},{"response_times":[559.5299999695271,416.24499997124076,415.2200000244193,504.0750000043772,2559.995000017807],"keys_pressed":["leftarrow","rightarrow","leftarrow","leftarrow","rightarrow"],"horizon":5,"forced_choices":["leftarrow","rightarrow","leftarrow","leftarrow"],"right_color":"orange","left_color":"lightblue","left_mu":40,"right_mu":48,"left_numbers":[45,36,38,22,45],"right_numbers":[58,52,49,44,46],"points_earned":203,"phase":"task","trial_type":"horizons-task","trial_index":60,"time_elapsed":761043,"internal_node_id":"0.0-56.0","task_version":"0.2"},{"response_times":[495.9650000091642,424.80000003706664,432.9450000077486,517.9350000107661,1103.0799999716692],"keys_pressed":["leftarrow","leftarrow","rightarrow","leftarrow","rightarrow"],"horizon":5,"forced_choices":["leftarrow","leftarrow","rightarrow","leftarrow"],"right_color":"lightblue","left_color":"orange","left_mu":60,"right_mu":90,"left_numbers":[55,45,62,63,59],"right_numbers":[88,87,80,101,92],"points_earned":335,"phase":"task","trial_type":"horizons-task","trial_index":61,"time_elapsed":765523,"internal_node_id":"0.0-57.0","task_version":"0.2"},{"response_times":[7349.610000033863,520.0849999673665,503.98999999742955,688.495000009425,888.3449999848381],"keys_pressed":["leftarrow","leftarrow","rightarrow","rightarrow","rightarrow"],"horizon":5,"forced_choices":["leftarrow","leftarrow","rightarrow","rightarrow"],"right_color":"lightblue","left_color":"orange","left_mu":60,"right_mu":64,"left_numbers":[65,57,51,58,66],"right_numbers":[62,59,81,75,58],"points_earned":336,"phase":"task","trial_type":"horizons-task","trial_index":62,"time_elapsed":776981,"internal_node_id":"0.0-58.0","task_version":"0.2"},{"response_times":[566.2600000505336,527.6150000281632,480.3550000069663,1192.0049999607727,520.0950000435114],"keys_pressed":["leftarrow","leftarrow","rightarrow","rightarrow","rightarrow"],"horizon":5,"forced_choices":["leftarrow","leftarrow","rightarrow","rightarrow"],"right_color":"lightblue","left_color":"orange","left_mu":40,"right_mu":70,"left_numbers":[35,22,41,31,45],"right_numbers":[68,70,70,79,60],"points_earned":266,"phase":"task","trial_type":"horizons-task","trial_index":63,"time_elapsed":781772,"internal_node_id":"0.0-59.0","task_version":"0.2"},{"response_times":[591.5450000320561,479.8700000392273,544.385000015609,567.1999999904074,1407.6849999837577,662.624999997206,697.3849999485537,311.40000000596046,248.23999998625368,456.9449999835342],"keys_pressed":["rightarrow","rightarrow","leftarrow","rightarrow","rightarrow","rightarrow","rightarrow","rightarrow","rightarrow","rightarrow"],"horizon":10,"forced_choices":["rightarrow","rightarrow","leftarrow","rightarrow"],"right_color":"lightblue","left_color":"orange","left_mu":40,"right_mu":36,"left_numbers":[36,46,31,45,57,51,39,42,37,33],"right_numbers":[34,37,46,37,32,42,50,41,49,27],"points_earned":380,"phase":"task","trial_type":"horizons-task","trial_index":64,"time_elapsed":789244,"internal_node_id":"0.0-60.0","task_version":"0.2"},{"response_times":[503.72999999672174,463.759999955073,447.2749999840744,592.4799999920651,1424.2050000466406],"keys_pressed":["rightarrow","rightarrow","rightarrow","leftarrow","leftarrow"],"horizon":5,"forced_choices":["rightarrow","rightarrow","rightarrow","leftarrow"],"right_color":"orange","left_color":"lightblue","left_mu":60,"right_mu":30,"left_numbers":[44,71,54,48,61],"right_numbers":[27,14,43,36,28],"points_earned":193,"phase":"task","trial_type":"horizons-task","trial_index":65,"time_elapsed":794181,"internal_node_id":"0.0-61.0","task_version":"0.2"},{"response_times":[897.5550000322983,423.29000000609085,495.6600000150502,608.330000017304,1944.2849999759346],"keys_pressed":["rightarrow","rightarrow","leftarrow","rightarrow","rightarrow"],"horizon":5,"forced_choices":["rightarrow","rightarrow","leftarrow","rightarrow"],"right_color":"lightblue","left_color":"orange","left_mu":40,"right_mu":36,"left_numbers":[39,22,47,47,38],"right_numbers":[44,38,38,44,32],"points_earned":205,"phase":"task","trial_type":"horizons-task","trial_index":66,"time_elapsed":800069,"internal_node_id":"0.0-62.0","task_version":"0.2"},{"response_times":[613.2050000014715,399.5950000244193,423.99000003933907,479.90500001469627,743.2099999859929,1296.8550000223331,271.71000000089407,239.73999998997897,176.3300000457093,191.45000004209578],"keys_pressed":["leftarrow","leftarrow","rightarrow","leftarrow","rightarrow","rightarrow","rightarrow","rightarrow","rightarrow","rightarrow"],"horizon":10,"forced_choices":["leftarrow","leftarrow","rightarrow","leftarrow"],"right_color":"lightblue","left_color":"orange","left_mu":60,"right_mu":90,"left_numbers":[42,55,67,71,47,71,55,53,64,69],"right_numbers":[94,82,101,91,86,91,92,91,94,87],"points_earned":810,"phase":"task","trial_type":"horizons-task","trial_index":67,"time_elapsed":806412,"internal_node_id":"0.0-63.0","task_version":"0.2"},{"response_times":[751.4499999815598,534.795000043232,665.3950000181794,439.22500003827736,1303.8599999854341,407.9599999822676,302.5250000064261,224.419999984093,175.53500004578382,176.7600000021048],"keys_pressed":["rightarrow","leftarrow","leftarrow","rightarrow","leftarrow","leftarrow","leftarrow","leftarrow","leftarrow","leftarrow"],"horizon":10,"forced_choices":["rightarrow","leftarrow","leftarrow","rightarrow"],"right_color":"orange","left_color":"lightblue","left_mu":60,"right_mu":40,"left_numbers":[63,52,56,61,62,65,51,55,53,46],"right_numbers":[36,30,50,41,36,32,38,32,41,39],"points_earned":517,"phase":"task","trial_type":"horizons-task","trial_index":68,"time_elapsed":812899,"internal_node_id":"0.0-64.0","task_version":"0.2"},{"response_times":[456.3849999685772,447.89999997010455,449.24000004539266,959.5199999748729,527.6799999992363,184.03499998385087,160.2699999930337,152.26999996230006,159.91500002564862,167.62000002199784],"keys_pressed":["leftarrow","rightarrow","leftarrow","rightarrow","leftarrow","leftarrow","leftarrow","leftarrow","leftarrow","leftarrow"],"horizon":10,"forced_choices":["leftarrow","rightarrow","leftarrow","rightarrow"],"right_color":"orange","left_color":"lightblue","left_mu":40,"right_mu":10,"left_numbers":[48,32,35,26,46,48,54,37,43,51],"right_numbers":[18,4,15,0,11,10,18,20,24,5],"points_earned":366,"phase":"task","trial_type":"horizons-task","trial_index":69,"time_elapsed":818068,"internal_node_id":"0.0-65.0","task_version":"0.2"},{"response_times":[988.7599999783561,551.5200000372715,857.6699999975972,894.3549999967217,615.9149999730289,384.2299999669194,239.97499997494742,176.50500003946945,158.98000000743195,312.13500001467764],"keys_pressed":["rightarrow","leftarrow","leftarrow","leftarrow","rightarrow","rightarrow","rightarrow","rightarrow","rightarrow","rightarrow"],"horizon":10,"forced_choices":["rightarrow","leftarrow","leftarrow","leftarrow"],"right_color":"lightblue","left_color":"orange","left_mu":60,"right_mu":80,"left_numbers":[63,60,68,68,53,63,71,55,54,65],"right_numbers":[89,78,69,74,70,88,90,79,79,66],"points_earned":757,"phase":"task","trial_type":"horizons-task","trial_index":70,"time_elapsed":824755,"internal_node_id":"0.0-66.0","task_version":"0.2"},{"response_times":[575.5950000020675,440.1450000004843,759.8149999976158,640.1450000121258,616.2100000074133,239.75000000791624,175.81499996595085,144.56499996595085,166.6049999766983,144.10999999381602],"keys_pressed":["rightarrow","leftarrow","leftarrow","rightarrow","rightarrow","rightarrow","rightarrow","rightarrow","rightarrow","rightarrow"],"horizon":10,"forced_choices":["rightarrow","leftarrow","leftarrow","rightarrow"],"right_color":"lightblue","left_color":"orange","left_mu":60,"right_mu":90,"left_numbers":[59,56,69,61,43,64,51,66,44,62],"right_numbers":[94,103,83,96,87,104,81,82,91,92],"points_earned":852,"phase":"task","trial_type":"horizons-task","trial_index":71,"time_elapsed":830162,"internal_node_id":"0.0-67.0","task_version":"0.2"},{"response_times":[519.7899999911897,424.20000000856817,495.9150000358932,720.0300000258721,303.69999998947605],"keys_pressed":["rightarrow","leftarrow","rightarrow","leftarrow","rightarrow"],"horizon":5,"forced_choices":["rightarrow","leftarrow","rightarrow","leftarrow"],"right_color":"orange","left_color":"lightblue","left_mu":60,"right_mu":72,"left_numbers":[71,65,45,47,26],"right_numbers":[80,82,87,65,72],"points_earned":351,"phase":"task","trial_type":"horizons-task","trial_index":72,"time_elapsed":834132,"internal_node_id":"0.0-68.0","task_version":"0.2"},{"response_times":[527.5299999630079,471.3750000228174,536.3549999892712,623.1850000331178,2464.5349999773316],"keys_pressed":["leftarrow","leftarrow","rightarrow","leftarrow","leftarrow"],"horizon":5,"forced_choices":["leftarrow","leftarrow","rightarrow","leftarrow"],"right_color":"orange","left_color":"lightblue","left_mu":40,"right_mu":28,"left_numbers":[38,25,22,46,43],"right_numbers":[33,27,26,25,21],"points_earned":178,"phase":"task","trial_type":"horizons-task","trial_index":73,"time_elapsed":840259,"internal_node_id":"0.0-69.0","task_version":"0.2"},{"response_times":[765.2900000102818,719.0850000479259,552.544999984093,1136.3649999839254,1559.8100000061095],"keys_pressed":["rightarrow","rightarrow","leftarrow","leftarrow","rightarrow"],"horizon":5,"forced_choices":["rightarrow","rightarrow","leftarrow","leftarrow"],"right_color":"lightblue","left_color":"orange","left_mu":40,"right_mu":36,"left_numbers":[30,41,41,43,30],"right_numbers":[33,44,45,43,45],"points_earned":206,"phase":"task","trial_type":"horizons-task","trial_index":74,"time_elapsed":846500,"internal_node_id":"0.0-70.0","task_version":"0.2"},{"response_times":[487.6700000022538,416.22000001370907,415.28500005370006,679.4649999937974,1904.7549999668263,383.81999998819083,183.9400000171736,184.4050000072457,159.42999999970198,155.1399999880232],"keys_pressed":["leftarrow","rightarrow","leftarrow","leftarrow","rightarrow","rightarrow","rightarrow","rightarrow","rightarrow","rightarrow"],"horizon":10,"forced_choices":["leftarrow","rightarrow","leftarrow","leftarrow"],"right_color":"lightblue","left_color":"orange","left_mu":60,"right_mu":64,"left_numbers":[62,60,52,52,73,67,68,79,65,65],"right_numbers":[69,59,60,50,73,79,72,67,89,62],"points_earned":667,"phase":"task","trial_type":"horizons-task","trial_index":75,"time_elapsed":852975,"internal_node_id":"0.0-71.0","task_version":"0.2"},{"response_times":[524.4700000039302,440.0899999891408,479.53000001143664,456.3599999528378,575.4699999815784,191.9750000233762,175.80500000622123,160.44499998679385,159.55000004032627,159.77500000735745],"keys_pressed":["rightarrow","leftarrow","rightarrow","leftarrow","leftarrow","leftarrow","leftarrow","leftarrow","leftarrow","leftarrow"],"horizon":10,"forced_choices":["rightarrow","leftarrow","rightarrow","leftarrow"],"right_color":"orange","left_color":"lightblue","left_mu":60,"right_mu":72,"left_numbers":[63,63,66,60,66,59,54,65,65,57],"right_numbers":[76,93,69,70,94,70,71,65,57,73],"points_earned":634,"phase":"task","trial_type":"horizons-task","trial_index":76,"time_elapsed":857804,"internal_node_id":"0.0-72.0","task_version":"0.2"},{"response_times":[727.2099999827333,2199.0850000292994,560.9399999957532,687.789999996312,559.8449999815784,167.4749999656342,224.60999997565523,175.8999999728985,167.77000000001863,160.03500000806525],"keys_pressed":["rightarrow","rightarrow","leftarrow","rightarrow","rightarrow","rightarrow","rightarrow","rightarrow","rightarrow","rightarrow"],"horizon":10,"forced_choices":["rightarrow","rightarrow","leftarrow","rightarrow"],"right_color":"lightblue","left_color":"orange","left_mu":40,"right_mu":70,"left_numbers":[38,31,38,53,35,30,44,47,41,35],"right_numbers":[52,83,67,71,68,83,76,65,67,72],"points_earned":675,"phase":"task","trial_type":"horizons-task","trial_index":77,"time_elapsed":864940,"internal_node_id":"0.0-73.0","task_version":"0.2"},{"response_times":[473.3350000460632,423.7999999895692,440.5200000037439,463.04000000236556,543.7399999937043,200.50999999511987,199.13000002270564,1816.5099999750964,191.54500000877306,160.10999999707565],"keys_pressed":["rightarrow","leftarrow","rightarrow","leftarrow","rightarrow","rightarrow","rightarrow","rightarrow","rightarrow","rightarrow"],"horizon":10,"forced_choices":["rightarrow","leftarrow","rightarrow","leftarrow"],"right_color":"orange","left_color":"lightblue","left_mu":40,"right_mu":44,"left_numbers":[26,47,37,44,43,33,34,20,39,39],"right_numbers":[51,45,59,45,45,36,44,47,48,56],"points_earned":477,"phase":"task","trial_type":"horizons-task","trial_index":78,"time_elapsed":871380,"internal_node_id":"0.0-74.0","task_version":"0.2"},{"response_times":[511.49000000441447,407.85499999765307,599.6450000093319,560.4349999921396,1111.525000014808,192.0300000347197,151.83500002603978,135.89999999385327,103.97500003455207,192.28499999735504],"keys_pressed":["rightarrow","leftarrow","leftarrow","leftarrow","leftarrow","leftarrow","leftarrow","leftarrow","leftarrow","leftarrow"],"horizon":10,"forced_choices":["rightarrow","leftarrow","leftarrow","leftarrow"],"right_color":"orange","left_color":"lightblue","left_mu":40,"right_mu":10,"left_numbers":[56,33,34,38,44,53,34,45,30,47],"right_numbers":[20,6,6,0,0,0,7,24,19,16],"points_earned":378,"phase":"task","trial_type":"horizons-task","trial_index":79,"time_elapsed":876851,"internal_node_id":"0.0-75.0","task_version":"0.2"},{"response_times":[569.1499999957159,425.21499999566004,550.4599999985658,463.9150000293739,943.8899999950081],"keys_pressed":["leftarrow","rightarrow","rightarrow","leftarrow","leftarrow"],"horizon":5,"forced_choices":["leftarrow","rightarrow","rightarrow","leftarrow"],"right_color":"orange","left_color":"lightblue","left_mu":40,"right_mu":52,"left_numbers":[38,43,32,53,35],"right_numbers":[59,59,40,60,48],"points_earned":225,"phase":"task","trial_type":"horizons-task","trial_index":80,"time_elapsed":881308,"internal_node_id":"0.0-76.0","task_version":"0.2"},{"response_times":[566.4799999794923,465.2350000105798,702.6999999652617,2047.870000009425,1240.4749999986961],"keys_pressed":["leftarrow","rightarrow","rightarrow","rightarrow","rightarrow"],"horizon":5,"forced_choices":["leftarrow","rightarrow","rightarrow","rightarrow"],"right_color":"lightblue","left_color":"orange","left_mu":60,"right_mu":48,"left_numbers":[63,45,64,59,60],"right_numbers":[48,44,50,57,43],"points_earned":257,"phase":"task","trial_type":"horizons-task","trial_index":81,"time_elapsed":887835,"internal_node_id":"0.0-77.0","task_version":"0.2"},{"response_times":[510.00999996904284,487.4199999612756,480.1549999974668,1159.700000018347,823.6599999945611],"keys_pressed":["rightarrow","rightarrow","leftarrow","leftarrow","leftarrow"],"horizon":5,"forced_choices":["rightarrow","rightarrow","leftarrow","leftarrow"],"right_color":"orange","left_color":"lightblue","left_mu":40,"right_mu":28,"left_numbers":[39,35,44,38,43],"right_numbers":[29,20,30,27,21],"points_earned":174,"phase":"task","trial_type":"horizons-task","trial_index":82,"time_elapsed":892820,"internal_node_id":"0.0-78.0","task_version":"0.2"},{"response_times":[577.3599999956787,430.7200000039302,702.6399999740534,1257.1949999546632,3206.9899999769405],"keys_pressed":["rightarrow","leftarrow","leftarrow","leftarrow","leftarrow"],"horizon":5,"forced_choices":["rightarrow","leftarrow","leftarrow","leftarrow"],"right_color":"lightblue","left_color":"orange","left_mu":40,"right_mu":20,"left_numbers":[53,41,40,35,36],"right_numbers":[14,3,8,14,11],"points_earned":166,"phase":"task","trial_type":"horizons-task","trial_index":83,"time_elapsed":900500,"internal_node_id":"0.0-79.0","task_version":"0.2"},{"response_times":[566.9750000233762,447.5199999869801,568.4299999848008,743.4500000090338,1255.8699999935925],"keys_pressed":["leftarrow","rightarrow","leftarrow","rightarrow","leftarrow"],"horizon":5,"forced_choices":["leftarrow","rightarrow","leftarrow","rightarrow"],"right_color":"orange","left_color":"lightblue","left_mu":40,"right_mu":10,"left_numbers":[44,33,30,25,34],"right_numbers":[17,17,9,10,25],"points_earned":135,"phase":"task","trial_type":"horizons-task","trial_index":84,"time_elapsed":905588,"internal_node_id":"0.0-80.0","task_version":"0.2"},{"response_times":[446.3399999658577,496.02500000037253,520.1200000010431,632.0449999766424,1055.0350000266917],"keys_pressed":["leftarrow","rightarrow","leftarrow","rightarrow","rightarrow"],"horizon":5,"forced_choices":["leftarrow","rightarrow","leftarrow","rightarrow"],"right_color":"orange","left_color":"lightblue","left_mu":40,"right_mu":60,"left_numbers":[52,45,29,33,43],"right_numbers":[67,64,63,63,62],"points_earned":270,"phase":"task","trial_type":"horizons-task","trial_index":85,"time_elapsed":910243,"internal_node_id":"0.0-81.0","task_version":"0.2"},{"response_times":[1052.274999965448,575.8750000386499,568.2899999665096,688.7049999786541,2185.5450000148267,613.0450000055134,432.5849999440834,366.6650000377558,240.69499998586252,224.17499998118728],"keys_pressed":["leftarrow","rightarrow","leftarrow","rightarrow","leftarrow","leftarrow","leftarrow","leftarrow","leftarrow","leftarrow"],"horizon":10,"forced_choices":["leftarrow","rightarrow","leftarrow","rightarrow"],"right_color":"orange","left_color":"lightblue","left_mu":40,"right_mu":48,"left_numbers":[35,43,53,41,30,35,38,40,49,41],"right_numbers":[51,45,59,35,49,36,57,55,39,55],"points_earned":401,"phase":"task","trial_type":"horizons-task","trial_index":86,"time_elapsed":918716,"internal_node_id":"0.0-82.0","task_version":"0.2"},{"response_times":[581.9049999699928,400.81500000087544,496.06999999377877,520.3549999860115,1441.3349999813363,326.424999977462,320.06499997805804,262.7150000189431,281.4699999871664,255.08999999146909],"keys_pressed":["rightarrow","leftarrow","leftarrow","leftarrow","leftarrow","leftarrow","leftarrow","leftarrow","leftarrow","leftarrow"],"horizon":10,"forced_choices":["rightarrow","leftarrow","leftarrow","leftarrow"],"right_color":"lightblue","left_color":"orange","left_mu":40,"right_mu":20,"left_numbers":[45,48,38,55,46,27,47,38,45,45],"right_numbers":[22,20,31,22,10,8,19,9,22,36],"points_earned":411,"phase":"task","trial_type":"horizons-task","trial_index":87,"time_elapsed":925109,"internal_node_id":"0.0-83.0","task_version":"0.2"},{"response_times":[558.0750000081025,432.2900000261143,479.49499997776,495.64499995904043,2047.4999999860302],"keys_pressed":["leftarrow","leftarrow","leftarrow","rightarrow","rightarrow"],"horizon":5,"forced_choices":["leftarrow","leftarrow","leftarrow","rightarrow"],"right_color":"orange","left_color":"lightblue","left_mu":60,"right_mu":72,"left_numbers":[54,53,64,57,59],"right_numbers":[87,75,63,70,73],"points_earned":314,"phase":"task","trial_type":"horizons-task","trial_index":88,"time_elapsed":930628,"internal_node_id":"0.0-84.0","task_version":"0.2"},{"response_times":[527.1599999978207,399.95499997166917,438.97000001743436,425.4949999740347,1615.0450000423007,347.01999998651445,203.54499999666587,176.12999997800216,160.07500002160668,135.61499997740611],"keys_pressed":["leftarrow","rightarrow","rightarrow","leftarrow","rightarrow","rightarrow","rightarrow","rightarrow","rightarrow","rightarrow"],"horizon":10,"forced_choices":["leftarrow","rightarrow","rightarrow","leftarrow"],"right_color":"orange","left_color":"lightblue","left_mu":40,"right_mu":52,"left_numbers":[39,43,46,42,43,41,36,48,52,32],"right_numbers":[43,54,49,60,47,55,59,63,58,48],"points_earned":514,"phase":"task","trial_type":"horizons-task","trial_index":89,"time_elapsed":936564,"internal_node_id":"0.0-85.0","task_version":"0.2"},{"response_times":[533.9200000162236,415.83499999251217,872.4150000489317,703.8850000244565,2495.6700000329874],"keys_pressed":["rightarrow","leftarrow","leftarrow","rightarrow","leftarrow"],"horizon":5,"forced_choices":["rightarrow","leftarrow","leftarrow","rightarrow"],"right_color":"orange","left_color":"lightblue","left_mu":40,"right_mu":32,"left_numbers":[52,45,26,43,36],"right_numbers":[30,18,27,47,27],"points_earned":184,"phase":"task","trial_type":"horizons-task","trial_index":90,"time_elapsed":943099,"internal_node_id":"0.0-86.0","task_version":"0.2"},{"response_times":[495.73500000406057,439.1450000111945,424.2300000041723,511.5150000201538,3168.8199999625795],"keys_pressed":["leftarrow","leftarrow","rightarrow","rightarrow","rightarrow"],"horizon":5,"forced_choices":["leftarrow","leftarrow","rightarrow","rightarrow"],"right_color":"lightblue","left_color":"orange","left_mu":60,"right_mu":56,"left_numbers":[62,53,64,60,44],"right_numbers":[56,65,55,66,59],"points_earned":295,"phase":"task","trial_type":"horizons-task","trial_index":91,"time_elapsed":949644,"internal_node_id":"0.0-87.0","task_version":"0.2"},{"rt":16640.870000002906,"responses":{"age":"33","gender-categorical":"Female","gender-free-response":"","ethnicity":"Not Hispanic or Latino","race":["White"],"language":"Yes","fluency":"Very well"},"survey":"demographics","trial_type":"survey-demo","trial_index":92,"time_elapsed":966292,"internal_node_id":"0.0-88.0","task_version":"0.2"},{"rt":30586.70499996515,"responses":{"difficulty":"4","fun":"5","clarity":"5","strategy":"No, just paid attention to the colours","feedback":"No"},"survey":"debrief","trial_type":"survey-debrief","trial_index":93,"time_elapsed":996885,"internal_node_id":"0.0-89.0","task_version":"0.2","interactions":"[{\"event\":\"blur\",\"trial\":51,\"time\":662689},{\"event\":\"focus\",\"trial\":51,\"time\":679736}]"}]