[{"view_history":"[{\"page_index\":0,\"viewing_time\":2850.9499999927357}]","rt":2851.3999999850057,"trial_type":"instructions","trial_index":0,"time_elapsed":2865,"internal_node_id":"0.0-0.0","task_version":"0.2"},{"item_order":[0,6,4,2,5,10,7,11,8,1,3,9,12],"responses":{"Q01":"2","Q07":"2","Q05":"1","Q03":"0","Q06":"2","Q11":"3","Q08":"3","Q12":"1","Q09":"2","Q02":"2","Q04":"2","Q10":"3","Q13":"4"},"radio_events":[17654.479999968316,26554.334999993443,35212.43000001414,46225.500000000466,49440.52499998361,56262.20499997726,59639.214999973774,77151.38499997556,85543.37500000838,86656.36999998242,91425.6849999656,103133.9249999728,110375.71499997284,114873.3249999932,119692.38999998197,121878.41999996454,134758.36999999592],"key_events":[],"mouse_events":[0.0850000069476664,17654.479999968316,26554.334999993443,35212.43000001414,46225.500000000466,49440.52499998361,56262.20499997726,59639.214999973774,77151.38499997556,81060.56999997236,81748.5549999983,84605.51999998279,85543.37500000838,86656.36999998242,91425.6849999656,103133.9249999728,109899.32500000577,110375.71499997284,114873.3249999932,119692.38999998197,121878.41999996454,134758.36999999592,141913.4399999748],"rt":141918.00000000512,"survey":"ius12","trial_type":"survey-template","trial_index":1,"time_elapsed":144794,"internal_node_id":"0.0-1.0","task_version":"0.2"},{"item_order":[11,15,6,13,9,14,4,3,7,2,8,12,10,1,0,5],"responses":{"Q12":"4","Q16":"5","Q07":"4","Q14":"0","Q10":"5","Q15":"3","Q05":"1","Q04":"3","Q08":"4","Q03":"5","Q09":"1","Q13":"3","Q11":"4","Q02":"1","Q01":"2","Q06":"3"},"radio_events":[7040.074999968056,11425.32499996014,14141.22499997029,31566.384999954607,39542.28499997407,42145.32999997027,53203.29999999376,55147.1999999485,64998.414999980014,66574.36999998754,67893.31499999389,71978.25499996543,83143.38499994483,84910.33999994397,88552.05499997828,98701.19999995222,105799.1799999727,110091.23999997973,123426.67999997502,125020.35499998601,125128.12499998836,125231.2249999959,128313.24999994831,137628.2399999909,145734.25499995938,152711.16999996593,158589.1249999986],"key_events":[],"mouse_events":[7040.074999968056,10207.144999993034,10642.084999999497,10823.434999969322,11425.32499996014,14141.22499997029,31566.384999954607,39542.28499997407,42145.32999997027,53203.29999999376,54164.60499999812,54593.514999956824,55147.1999999485,64998.414999980014,66574.36999998754,67893.31499999389,71978.25499996543,83143.38499994483,83915.16999999294,84910.33999994397,88082.55499997176,88552.05499997828,98701.19999995222,105799.1799999727,110091.23999997973,117756.42999995034,118870.48999994295,119391.41499996185,119662.36999997636,123426.67999997502,124592.02499996172,125020.35499998601,125128.12499998836,125231.2249999959,128313.24999994831,137628.2399999909,145734.25499995938,152711.16999996593,158589.1249999986,177124.1399999708],"rt":177129.87999996403,"survey":"nfc","trial_type":"survey-template","trial_index":2,"time_elapsed":321936,"internal_node_id":"0.0-2.0","task_version":"0.2"},{"item_order":[5,14,9,0,6,12,15,3,4,7,1,8,11,2,10,16,13],"responses":{"Q06":"4","Q15":"3","Q10":"4","Q01":"4","Q07":"4","Q13":"4","Q16":"4","Q04":"4","Q05":"4","Q08":"4","Q02":"2","Q09":"3","Q12":"4","Q03":"4","Q11":"3","Q17":"0","Q14":"2"},"radio_events":[6079.435000021476,8549.425000033807,11586.450000002515,16490.28000002727,24733.115000010002,30879.420000012033,33377.36500002211,36215.405000024475,39502.370000001974,48788.21500000777,55360.61500001233,60093.24000001652,67465.42500000214,70876.37499999255,79805.18000002485,86043.20499999449,92159.55500002019,96192.31499999296,105237.33500001254,113894.15500004543,116763.02000001306,122546.88000003807],"key_events":[],"mouse_events":[6079.435000021476,8549.425000033807,11073.555000009947,11586.450000002515,16490.28000002727,24733.115000010002,30443.690000043716,30879.420000012033,33377.36500002211,36215.405000024475,38710.17999999458,39502.370000001974,48788.21500000777,55360.61500001233,60093.24000001652,67214.24500003923,67465.42500000214,70876.37499999255,78317.36500002444,79298.19000000134,79805.18000002485,86043.20499999449,92159.55500002019,96192.31499999296,105237.33500001254,113894.15500004543,116763.02000001306,122546.88000003807,127862.59500001324],"rt":127867.5500000245,"survey":"pswq","trial_type":"survey-template","trial_index":3,"time_elapsed":449813,"internal_node_id":"0.0-3.0","task_version":"0.2"},{"view_history":"[{\"page_index\":0,\"viewing_time\":7111.304999969434},{\"page_index\":1,\"viewing_time\":9541.57000000123},{\"page_index\":2,\"viewing_time\":12906.320000009146},{\"page_index\":3,\"viewing_time\":26625.989999971353},{\"page_index\":4,\"viewing_time\":5765.975000045728},{\"page_index\":5,\"viewing_time\":7051.329999987502},{\"page_index\":6,\"viewing_time\":10199.61000001058},{\"page_index\":7,\"viewing_time\":10846.404999960214},{\"page_index\":8,\"viewing_time\":9565.375000005588},{\"page_index\":9,\"viewing_time\":11239.425000036135}]","rt":110854.73999998067,"trial_type":"instructions","trial_index":4,"time_elapsed":560673,"internal_node_id":"0.0-4.0-0.0","task_version":"0.2"},{"response_times":[4296.544999990147,2505.1600000006147,1412.6950000063516,1371.1300000431947,3396.844999981113],"keys_pressed":["rightarrow","leftarrow","rightarrow","rightarrow","leftarrow"],"horizon":5,"forced_choices":["rightarrow","leftarrow","rightarrow","rightarrow"],"right_color":"lightblue","left_color":"orange","left_mu":40,"right_mu":20,"left_numbers":[22,39,40,50,47],"right_numbers":[25,24,20,15,22],"points_earned":146,"phase":"practice","trial_type":"horizons-task","trial_index":5,"time_elapsed":575171,"internal_node_id":"0.0-4.0-1.0","task_version":"0.2"},{"response_times":[2996.8649999937043,2120.664999994915,1104.7750000143424,1109.7399999853224,3338.340000016615,2981.6700000083074,2274.954999971669,1765.5849999864586,3060.2300000027753,1177.6950000203215],"keys_pressed":["leftarrow","leftarrow","rightarrow","rightarrow","rightarrow","rightarrow","rightarrow","leftarrow","leftarrow","rightarrow"],"horizon":10,"forced_choices":["leftarrow","leftarrow","rightarrow","rightarrow"],"right_color":"orange","left_color":"lightblue","left_mu":60,"right_mu":70,"left_numbers":[62,60,66,54,57,55,47,60,54,68],"right_numbers":[63,72,83,78,68,69,67,72,78,63],"points_earned":664,"phase":"practice","trial_type":"horizons-task","trial_index":6,"time_elapsed":598610,"internal_node_id":"0.0-4.0-2.0","task_version":"0.2"},{"view_history":"[{\"page_index\":0,\"viewing_time\":2590.589999977965},{\"page_index\":1,\"viewing_time\":6543.8950000097975},{\"page_index\":2,\"viewing_time\":8909.06500001438},{\"page_index\":3,\"viewing_time\":3620.070000004489}]","rt":21664.105000032578,"trial_type":"instructions","trial_index":7,"time_elapsed":620276,"internal_node_id":"0.0-4.0-3.0","task_version":"0.2"},{"responses":["true","false","true"],"num_errors":0,"rt":12632.615000009537,"trial_type":"horizons-comprehension","trial_index":8,"time_elapsed":632913,"internal_node_id":"0.0-4.0-4.0","task_version":"0.2"},{"trial_type":"call-function","trial_index":9,"time_elapsed":632917,"internal_node_id":"0.0-5.0","task_version":"0.2"},{"view_history":"[{\"page_index\":0,\"viewing_time\":1903.3349999808706},{\"page_index\":1,\"viewing_time\":5609.310000028927}]","rt":7513.039999990724,"trial_type":"instructions","trial_index":10,"time_elapsed":640431,"internal_node_id":"0.0-6.0","task_version":"0.2"},{"response_times":[2616.1250000004657,1317.2750000376254,1257.244999986142,826.7750000231899,2235.0149999838322,1604.5600000070408,2267.1649999683723,739.2499999841675,844.5199999841861,3592.8749999729916],"keys_pressed":["leftarrow","rightarrow","leftarrow","rightarrow","rightarrow","rightarrow","rightarrow","leftarrow","rightarrow","rightarrow"],"horizon":10,"forced_choices":["leftarrow","rightarrow","leftarrow","rightarrow"],"right_color":"lightblue","left_color":"orange","left_mu":40,"right_mu":60,"left_numbers":[42,44,47,27,34,31,28,31,35,37],"right_numbers":[62,59,53,58,71,56,58,48,69,54],"points_earned":545,"phase":"task","trial_type":"horizons-task","trial_index":11,"time_elapsed":659243,"internal_node_id":"0.0-7.0","task_version":"0.2"},{"response_times":[1313.8449999969453,789.954999985639,848.0650000274181,909.929999965243,1511.0700000077486,1438.8649999746121,1154.5199999818578,697.0749999745749,879.0949999820441,2276.979999965988],"keys_pressed":["rightarrow","leftarrow","rightarrow","rightarrow","leftarrow","leftarrow","leftarrow","rightarrow","leftarrow","leftarrow"],"horizon":10,"forced_choices":["rightarrow","leftarrow","rightarrow","rightarrow"],"right_color":"lightblue","left_color":"orange","left_mu":40,"right_mu":28,"left_numbers":[41,43,44,45,32,53,48,42,39,28],"right_numbers":[25,28,26,17,16,36,30,39,25,24],"points_earned":350,"phase":"task","trial_type":"horizons-task","trial_index":12,"time_elapsed":672569,"internal_node_id":"0.0-8.0","task_version":"0.2"},{"response_times":[2316.159999987576,4059.6200000145473,6313.825000019278,781.3300000270829,1014.8550000158139],"keys_pressed":["leftarrow","rightarrow","leftarrow","rightarrow","rightarrow"],"horizon":5,"forced_choices":["leftarrow","rightarrow","leftarrow","rightarrow"],"right_color":"lightblue","left_color":"orange","left_mu":40,"right_mu":60,"left_numbers":[45,45,30,45,56],"right_numbers":[60,68,44,61,65],"points_earned":269,"phase":"task","trial_type":"horizons-task","trial_index":13,"time_elapsed":688560,"internal_node_id":"0.0-9.0","task_version":"0.2"},{"response_times":[2218.170000007376,1862.844999996014,1222.925000009127,1488.199999963399,1097.5350000080653],"keys_pressed":["leftarrow","rightarrow","rightarrow","leftarrow","rightarrow"],"horizon":5,"forced_choices":["leftarrow","rightarrow","rightarrow","leftarrow"],"right_color":"lightblue","left_color":"orange","left_mu":40,"right_mu":70,"left_numbers":[57,47,42,40,48],"right_numbers":[74,50,70,78,70],"points_earned":287,"phase":"task","trial_type":"horizons-task","trial_index":14,"time_elapsed":697957,"internal_node_id":"0.0-10.0","task_version":"0.2"},{"response_times":[1090.840000018943,922.9250000207685,862.9599999985658,929.8699999926612,1172.1550000365824,886.9249999988824,1110.660000005737,1025.2249999903142,760.8049999689683,1106.8749999976717],"keys_pressed":["rightarrow","rightarrow","leftarrow","leftarrow","rightarrow","rightarrow","rightarrow","rightarrow","rightarrow","rightarrow"],"horizon":10,"forced_choices":["rightarrow","rightarrow","leftarrow","leftarrow"],"right_color":"orange","left_color":"lightblue","left_mu":60,"right_mu":90,"left_numbers":[55,61,49,67,66,55,68,58,65,66],"right_numbers":[84,88,98,79,92,93,101,83,78,83],"points_earned":818,"phase":"task","trial_type":"horizons-task","trial_index":15,"time_elapsed":709333,"internal_node_id":"0.0-11.0","task_version":"0.2"},{"response_times":[886.6600000183098,983.669999986887,5241.219999967143,978.1349999830127,1004.9250000156462,725.9300000150688,819.794999959413,543.0550000164658,1020.0749999494292,814.7999999928288],"keys_pressed":["rightarrow","leftarrow","rightarrow","leftarrow","leftarrow","leftarrow","leftarrow","rightarrow","rightarrow","leftarrow"],"horizon":10,"forced_choices":["rightarrow","leftarrow","rightarrow","leftarrow"],"right_color":"lightblue","left_color":"orange","left_mu":40,"right_mu":28,"left_numbers":[46,37,49,33,51,47,39,45,22,54],"right_numbers":[30,26,11,39,36,29,24,28,15,31],"points_earned":345,"phase":"task","trial_type":"horizons-task","trial_index":16,"time_elapsed":723866,"internal_node_id":"0.0-12.0","task_version":"0.2"},{"response_times":[963.8500000000931,1016.4249999797903,1054.535000002943,1010.5949999997392,1963.8999999733642],"keys_pressed":["leftarrow","leftarrow","rightarrow","rightarrow","rightarrow"],"horizon":5,"forced_choices":["leftarrow","leftarrow","rightarrow","rightarrow"],"right_color":"lightblue","left_color":"orange","left_mu":40,"right_mu":44,"left_numbers":[39,38,45,47,45],"right_numbers":[45,50,48,44,31],"points_earned":200,"phase":"task","trial_type":"horizons-task","trial_index":17,"time_elapsed":731383,"internal_node_id":"0.0-13.0","task_version":"0.2"},{"response_times":[1305.4249999695458,1061.779999989085,760.0550000206567,878.8950000307523,1745.3249999671243],"keys_pressed":["rightarrow","rightarrow","leftarrow","leftarrow","leftarrow"],"horizon":5,"forced_choices":["rightarrow","rightarrow","leftarrow","leftarrow"],"right_color":"lightblue","left_color":"orange","left_mu":40,"right_mu":32,"left_numbers":[54,37,37,41,45],"right_numbers":[25,30,18,44,31],"points_earned":178,"phase":"task","trial_type":"horizons-task","trial_index":18,"time_elapsed":738640,"internal_node_id":"0.0-14.0","task_version":"0.2"},{"response_times":[777.0449999952689,620.1249999576248,2721.8350000330247,1964.7000000113621,1686.1599999829195],"keys_pressed":["rightarrow","leftarrow","rightarrow","rightarrow","leftarrow"],"horizon":5,"forced_choices":["rightarrow","leftarrow","rightarrow","rightarrow"],"right_color":"lightblue","left_color":"orange","left_mu":40,"right_mu":28,"left_numbers":[28,30,51,45,39],"right_numbers":[27,31,32,17,37],"points_earned":145,"phase":"task","trial_type":"horizons-task","trial_index":19,"time_elapsed":747915,"internal_node_id":"0.0-15.0","task_version":"0.2"},{"response_times":[1212.7199999522418,939.6399999968708,861.9450000114739,1365.479999978561,962.5299999606796],"keys_pressed":["leftarrow","rightarrow","rightarrow","rightarrow","rightarrow"],"horizon":5,"forced_choices":["leftarrow","rightarrow","rightarrow","rightarrow"],"right_color":"orange","left_color":"lightblue","left_mu":60,"right_mu":68,"left_numbers":[65,65,58,65,55],"right_numbers":[63,59,81,62,77],"points_earned":344,"phase":"task","trial_type":"horizons-task","trial_index":20,"time_elapsed":754764,"internal_node_id":"0.0-16.0","task_version":"0.2"},{"response_times":[821.7750000185333,1270.7850000006147,6037.145000009332,1444.1250000381842,1663.7699999846518],"keys_pressed":["leftarrow","rightarrow","leftarrow","leftarrow","rightarrow"],"horizon":5,"forced_choices":["leftarrow","rightarrow","leftarrow","leftarrow"],"right_color":"lightblue","left_color":"orange","left_mu":40,"right_mu":60,"left_numbers":[40,52,48,42,45],"right_numbers":[66,72,59,69,57],"points_earned":259,"phase":"task","trial_type":"horizons-task","trial_index":21,"time_elapsed":767505,"internal_node_id":"0.0-17.0","task_version":"0.2"},{"response_times":[1015.8149999915622,1186.7499999934807,1017.969999986235,1060.9399999957532,2837.234999984503],"keys_pressed":["leftarrow","rightarrow","leftarrow","rightarrow","leftarrow"],"horizon":5,"forced_choices":["leftarrow","rightarrow","leftarrow","rightarrow"],"right_color":"orange","left_color":"lightblue","left_mu":60,"right_mu":56,"left_numbers":[60,62,50,53,69],"right_numbers":[48,49,55,56,60],"points_earned":284,"phase":"task","trial_type":"horizons-task","trial_index":22,"time_elapsed":776130,"internal_node_id":"0.0-18.0","task_version":"0.2"},{"response_times":[1399.3349999655038,2163.864999951329,747.0300000277348,983.089999994263,1131.7799999960698],"keys_pressed":["rightarrow","leftarrow","rightarrow","rightarrow","rightarrow"],"horizon":5,"forced_choices":["rightarrow","leftarrow","rightarrow","rightarrow"],"right_color":"lightblue","left_color":"orange","left_mu":40,"right_mu":70,"left_numbers":[49,41,41,42,41],"right_numbers":[60,74,63,62,70],"points_earned":296,"phase":"task","trial_type":"horizons-task","trial_index":23,"time_elapsed":784061,"internal_node_id":"0.0-19.0","task_version":"0.2"},{"response_times":[2391.24999998603,1090.6850000028498,1221.9150000019,1951.0400000144728,1465.8200000412762,1174.7699999832548,776.0950000374578,1553.8800000213087,884.0600000112318,2157.1450000046752],"keys_pressed":["leftarrow","rightarrow","rightarrow","rightarrow","leftarrow","leftarrow","rightarrow","rightarrow","leftarrow","leftarrow"],"horizon":10,"forced_choices":["leftarrow","rightarrow","rightarrow","rightarrow"],"right_color":"lightblue","left_color":"orange","left_mu":40,"right_mu":36,"left_numbers":[43,40,42,37,35,33,42,37,46,29],"right_numbers":[37,33,32,34,22,23,37,21,36,28],"points_earned":343,"phase":"task","trial_type":"horizons-task","trial_index":24,"time_elapsed":800236,"internal_node_id":"0.0-20.0","task_version":"0.2"},{"response_times":[1909.2149999924004,584.7200000425801,742.850000038743,940.1599999982864,2226.2749999645166],"keys_pressed":["leftarrow","rightarrow","rightarrow","rightarrow","leftarrow"],"horizon":5,"forced_choices":["leftarrow","rightarrow","rightarrow","rightarrow"],"right_color":"lightblue","left_color":"orange","left_mu":40,"right_mu":36,"left_numbers":[45,49,37,43,34],"right_numbers":[37,33,25,35,21],"points_earned":172,"phase":"task","trial_type":"horizons-task","trial_index":25,"time_elapsed":808147,"internal_node_id":"0.0-21.0","task_version":"0.2"},{"response_times":[751.6049999976531,907.5850000372157,1161.2949999980628,792.9000000003725,1021.7650000122376,829.0250000427477,669.7700000368059,628.9549999637529,591.0600000061095,577.945000026375],"keys_pressed":["leftarrow","leftarrow","leftarrow","rightarrow","rightarrow","leftarrow","leftarrow","leftarrow","leftarrow","leftarrow"],"horizon":10,"forced_choices":["leftarrow","leftarrow","leftarrow","rightarrow"],"right_color":"lightblue","left_color":"orange","left_mu":40,"right_mu":20,"left_numbers":[55,41,39,36,33,37,48,38,49,56],"right_numbers":[21,12,32,12,12,23,27,0,10,17],"points_earned":387,"phase":"task","trial_type":"horizons-task","trial_index":26,"time_elapsed":817582,"internal_node_id":"0.0-22.0","task_version":"0.2"},{"response_times":[936.8649999960326,1020.5999999889173,832.860000024084,868.869999947492,891.185000014957,1205.7849999982864,750.0700000091456,599.8649999964982,487.18499997630715,999.6800000080839],"keys_pressed":["rightarrow","leftarrow","leftarrow","leftarrow","leftarrow","leftarrow","leftarrow","rightarrow","leftarrow","leftarrow"],"horizon":10,"forced_choices":["rightarrow","leftarrow","leftarrow","leftarrow"],"right_color":"lightblue","left_color":"orange","left_mu":60,"right_mu":30,"left_numbers":[70,54,42,54,64,64,58,63,56,47],"right_numbers":[30,42,33,31,33,33,30,27,19,34],"points_earned":496,"phase":"task","trial_type":"horizons-task","trial_index":27,"time_elapsed":827678,"internal_node_id":"0.0-23.0","task_version":"0.2"},{"response_times":[776.0299999499694,2935.990000027232,934.769999992568,1012.4649999779649,1085.2650000015274,634.8749999888241,512.1800000197254,627.89000000339,496.9750000163913,781.9199999794364],"keys_pressed":["rightarrow","rightarrow","rightarrow","leftarrow","rightarrow","rightarrow","rightarrow","rightarrow","leftarrow","leftarrow"],"horizon":10,"forced_choices":["rightarrow","rightarrow","rightarrow","leftarrow"],"right_color":"orange","left_color":"lightblue","left_mu":60,"right_mu":80,"left_numbers":[72,52,65,58,54,64,51,67,79,57],"right_numbers":[73,69,80,63,90,85,85,73,79,83],"points_earned":749,"phase":"task","trial_type":"horizons-task","trial_index":28,"time_elapsed":838980,"internal_node_id":"0.0-24.0","task_version":"0.2"},{"response_times":[691.4150000084192,477.87499998230487,655.8400000212714,765.3399999835528,1153.5649999859743],"keys_pressed":["leftarrow","rightarrow","leftarrow","rightarrow","leftarrow"],"horizon":5,"forced_choices":["leftarrow","rightarrow","leftarrow","rightarrow"],"right_color":"lightblue","left_color":"orange","left_mu":60,"right_mu":30,"left_numbers":[70,59,58,81,57],"right_numbers":[22,26,37,26,35],"points_earned":237,"phase":"task","trial_type":"horizons-task","trial_index":29,"time_elapsed":844228,"internal_node_id":"0.0-25.0","task_version":"0.2"},{"response_times":[866.634999983944,1404.1399999987334,730.6850000168197,1371.1349999648519,2326.5550000360236,716.3549999822862,653.6300000152551,714.0299999737181,2318.9499999862164,1320.8900000317954],"keys_pressed":["rightarrow","leftarrow","rightarrow","leftarrow","leftarrow","leftarrow","rightarrow","leftarrow","leftarrow","leftarrow"],"horizon":10,"forced_choices":["rightarrow","leftarrow","rightarrow","leftarrow"],"right_color":"orange","left_color":"lightblue","left_mu":60,"right_mu":48,"left_numbers":[63,65,73,49,75,49,72,49,59,60],"right_numbers":[33,37,60,53,59,44,48,44,46,45],"points_earned":547,"phase":"task","trial_type":"horizons-task","trial_index":30,"time_elapsed":858158,"internal_node_id":"0.0-26.0","task_version":"0.2"},{"response_times":[709.3750000349246,1609.6250000409782,941.0999999963678,699.4650000124238,699.6200000285171],"keys_pressed":["rightarrow","rightarrow","leftarrow","rightarrow","rightarrow"],"horizon":5,"forced_choices":["rightarrow","rightarrow","leftarrow","rightarrow"],"right_color":"orange","left_color":"lightblue","left_mu":60,"right_mu":72,"left_numbers":[54,54,64,54,62],"right_numbers":[73,88,66,65,72],"points_earned":362,"phase":"task","trial_type":"horizons-task","trial_index":31,"time_elapsed":864324,"internal_node_id":"0.0-27.0","task_version":"0.2"},{"response_times":[694.6300000417978,806.8849999690428,902.840000053402,644.8950000340119,1180.9150000335649,651.0450000059791,556.8050000001676,902.0249999593943,1588.2700000074692,1091.4950000005774],"keys_pressed":["rightarrow","rightarrow","rightarrow","leftarrow","leftarrow","leftarrow","rightarrow","rightarrow","rightarrow","leftarrow"],"horizon":10,"forced_choices":["rightarrow","rightarrow","rightarrow","leftarrow"],"right_color":"orange","left_color":"lightblue","left_mu":60,"right_mu":56,"left_numbers":[71,47,49,46,61,57,58,62,49,68],"right_numbers":[56,51,46,43,49,50,53,66,40,64],"points_earned":544,"phase":"task","trial_type":"horizons-task","trial_index":32,"time_elapsed":874853,"internal_node_id":"0.0-28.0","task_version":"0.2"},{"response_times":[657.7149999793619,1225.9450000128709,1159.9100000457838,727.8000000515021,3706.504999950994],"keys_pressed":["leftarrow","leftarrow","leftarrow","rightarrow","leftarrow"],"horizon":5,"forced_choices":["leftarrow","leftarrow","leftarrow","rightarrow"],"right_color":"lightblue","left_color":"orange","left_mu":40,"right_mu":20,"left_numbers":[31,44,36,49,26],"right_numbers":[14,20,11,29,31],"points_earned":166,"phase":"task","trial_type":"horizons-task","trial_index":33,"time_elapsed":883837,"internal_node_id":"0.0-29.0","task_version":"0.2"},{"response_times":[1084.4949999591336,2306.0650000115857,1544.675000011921,781.810000014957,1047.9350000387058,1152.0750000490807,543.7800000072457,539.3000000040047,1339.6799999754876,717.8900000290014],"keys_pressed":["rightarrow","leftarrow","leftarrow","rightarrow","rightarrow","rightarrow","rightarrow","rightarrow","leftarrow","rightarrow"],"horizon":10,"forced_choices":["rightarrow","leftarrow","leftarrow","rightarrow"],"right_color":"orange","left_color":"lightblue","left_mu":60,"right_mu":80,"left_numbers":[70,62,63,68,65,59,52,60,49,60],"right_numbers":[89,85,89,89,79,88,91,75,84,73],"points_earned":758,"phase":"task","trial_type":"horizons-task","trial_index":34,"time_elapsed":896400,"internal_node_id":"0.0-30.0","task_version":"0.2"},{"response_times":[630.5050000082701,538.8100000564009,777.0650000311434,1539.974999963306,8624.324999982491],"keys_pressed":["leftarrow","rightarrow","leftarrow","leftarrow","leftarrow"],"horizon":5,"forced_choices":["leftarrow","rightarrow","leftarrow","leftarrow"],"right_color":"lightblue","left_color":"orange","left_mu":40,"right_mu":32,"left_numbers":[29,31,29,37,35],"right_numbers":[24,30,23,28,34],"points_earned":160,"phase":"task","trial_type":"horizons-task","trial_index":35,"time_elapsed":910016,"internal_node_id":"0.0-31.0","task_version":"0.2"},{"response_times":[711.7150000412948,791.9150000088848,654.8400000319816,683.9550000149757,2296.230000036303,699.6299999882467,690.9400000004098,681.8499999935739,496.1650000186637,623.8250000169501],"keys_pressed":["leftarrow","leftarrow","rightarrow","rightarrow","leftarrow","leftarrow","rightarrow","leftarrow","leftarrow","leftarrow"],"horizon":10,"forced_choices":["leftarrow","leftarrow","rightarrow","rightarrow"],"right_color":"orange","left_color":"lightblue","left_mu":60,"right_mu":40,"left_numbers":[55,54,66,66,63,55,53,63,65,54],"right_numbers":[46,49,51,32,38,34,46,47,40,39],"points_earned":538,"phase":"task","trial_type":"horizons-task","trial_index":36,"time_elapsed":919856,"internal_node_id":"0.0-32.0","task_version":"0.2"},{"response_times":[688.8850000104867,471.0499999928288,618.6650000163354,4171.1149999755435,1897.774999961257],"keys_pressed":["rightarrow","leftarrow","leftarrow","leftarrow","leftarrow"],"horizon":5,"forced_choices":["rightarrow","leftarrow","leftarrow","leftarrow"],"right_color":"lightblue","left_color":"orange","left_mu":60,"right_mu":30,"left_numbers":[78,54,69,54,65],"right_numbers":[38,24,15,13,32],"points_earned":280,"phase":"task","trial_type":"horizons-task","trial_index":37,"time_elapsed":929211,"internal_node_id":"0.0-33.0","task_version":"0.2"},{"response_times":[694.3150000297464,794.0850000013597,939.7750000352971,1038.9200000208803,2584.1050000162795],"keys_pressed":["rightarrow","leftarrow","rightarrow","leftarrow","leftarrow"],"horizon":5,"forced_choices":["rightarrow","leftarrow","rightarrow","leftarrow"],"right_color":"lightblue","left_color":"orange","left_mu":40,"right_mu":28,"left_numbers":[45,43,43,31,24],"right_numbers":[21,26,21,26,34],"points_earned":140,"phase":"task","trial_type":"horizons-task","trial_index":38,"time_elapsed":936769,"internal_node_id":"0.0-34.0","task_version":"0.2"},{"response_times":[599.7250000364147,704.764999973122,636.7999999783933,911.0150000196882,779.949999996461,611.0999999800697,898.6499999882653,620.0250000110827,619.0050000441261,566.8799999984913],"keys_pressed":["leftarrow","leftarrow","rightarrow","rightarrow","rightarrow","rightarrow","leftarrow","rightarrow","rightarrow","rightarrow"],"horizon":10,"forced_choices":["leftarrow","leftarrow","rightarrow","rightarrow"],"right_color":"orange","left_color":"lightblue","left_mu":60,"right_mu":72,"left_numbers":[54,62,62,59,64,66,54,64,50,71],"right_numbers":[83,63,77,97,68,61,80,76,77,69],"points_earned":695,"phase":"task","trial_type":"horizons-task","trial_index":39,"time_elapsed":945223,"internal_node_id":"0.0-35.0","task_version":"0.2"},{"response_times":[631.4600000041537,527.2049999912269,844.4349999772385,1909.014999982901,6895.480000006501],"keys_pressed":["rightarrow","leftarrow","leftarrow","leftarrow","leftarrow"],"horizon":5,"forced_choices":["rightarrow","leftarrow","leftarrow","leftarrow"],"right_color":"lightblue","left_color":"orange","left_mu":40,"right_mu":44,"left_numbers":[32,44,25,27,45],"right_numbers":[36,42,46,40,53],"points_earned":177,"phase":"task","trial_type":"horizons-task","trial_index":40,"time_elapsed":957538,"internal_node_id":"0.0-36.0","task_version":"0.2"},{"response_times":[782.3450000141747,888.0050000152551,886.7599999648519,1124.7950000106357,1230.0750000285916],"keys_pressed":["leftarrow","leftarrow","rightarrow","rightarrow","leftarrow"],"horizon":5,"forced_choices":["leftarrow","leftarrow","rightarrow","rightarrow"],"right_color":"orange","left_color":"lightblue","left_mu":60,"right_mu":72,"left_numbers":[74,76,53,61,58],"right_numbers":[66,68,65,68,73],"points_earned":341,"phase":"task","trial_type":"horizons-task","trial_index":41,"time_elapsed":963957,"internal_node_id":"0.0-37.0","task_version":"0.2"},{"response_times":[811.9499999447726,542.905000038445,2232.144999958109,1945.7849999889731,1972.9600000428036,737.7399999531917,588.9100000495091,521.6700000455603,836.310000042431,690.9050000249408],"keys_pressed":["rightarrow","leftarrow","leftarrow","rightarrow","leftarrow","leftarrow","leftarrow","rightarrow","leftarrow","leftarrow"],"horizon":10,"forced_choices":["rightarrow","leftarrow","leftarrow","rightarrow"],"right_color":"orange","left_color":"lightblue","left_mu":40,"right_mu":10,"left_numbers":[25,32,23,44,36,36,30,33,45,53],"right_numbers":[12,12,2,17,6,12,5,6,0,13],"points_earned":290,"phase":"task","trial_type":"horizons-task","trial_index":42,"time_elapsed":976345,"internal_node_id":"0.0-38.0","task_version":"0.2"},{"response_times":[700.3249999834225,995.9900000249036,756.3199999858625,524.1650000098161,2159.189999976661,509.7649999661371,459.8300000070594,620.0049999752082,674.8800000059418,1021.950000023935],"keys_pressed":["leftarrow","rightarrow","leftarrow","rightarrow","leftarrow","leftarrow","rightarrow","rightarrow","leftarrow","leftarrow"],"horizon":10,"forced_choices":["leftarrow","rightarrow","leftarrow","rightarrow"],"right_color":"orange","left_color":"lightblue","left_mu":60,"right_mu":56,"left_numbers":[65,48,56,56,55,63,53,64,52,58],"right_numbers":[57,65,53,55,63,67,56,50,52,68],"points_earned":575,"phase":"task","trial_type":"horizons-task","trial_index":43,"time_elapsed":986275,"internal_node_id":"0.0-39.0","task_version":"0.2"},{"response_times":[928.8100000121631,566.8450000230223,694.2000000271946,906.6199999651872,9085.304999956861],"keys_pressed":["rightarrow","leftarrow","rightarrow","leftarrow","leftarrow"],"horizon":5,"forced_choices":["rightarrow","leftarrow","rightarrow","leftarrow"],"right_color":"orange","left_color":"lightblue","left_mu":60,"right_mu":48,"left_numbers":[55,51,50,61,59],"right_numbers":[58,55,39,50,42],"points_earned":268,"phase":"task","trial_type":"horizons-task","trial_index":44,"time_elapsed":999960,"internal_node_id":"0.0-40.0","task_version":"0.2"},{"response_times":[784.2400000081398,3802.610000013374,708.844999957364,1267.0749999815598,525.7100000162609],"keys_pressed":["leftarrow","leftarrow","rightarrow","leftarrow","rightarrow"],"horizon":5,"forced_choices":["leftarrow","leftarrow","rightarrow","leftarrow"],"right_color":"lightblue","left_color":"orange","left_mu":60,"right_mu":64,"left_numbers":[61,59,66,55,48],"right_numbers":[60,55,84,62,58],"points_earned":317,"phase":"task","trial_type":"horizons-task","trial_index":45,"time_elapsed":1008553,"internal_node_id":"0.0-41.0","task_version":"0.2"},{"response_times":[917.81000001356,1711.9700000039302,1201.1650000349618,706.4300000201911,8596.239999984391],"keys_pressed":["rightarrow","rightarrow","rightarrow","leftarrow","rightarrow"],"horizon":5,"forced_choices":["rightarrow","rightarrow","rightarrow","leftarrow"],"right_color":"orange","left_color":"lightblue","left_mu":60,"right_mu":56,"left_numbers":[60,60,58,71,67],"right_numbers":[59,45,56,67,57],"points_earned":288,"phase":"task","trial_type":"horizons-task","trial_index":46,"time_elapsed":1023193,"internal_node_id":"0.0-42.0","task_version":"0.2"},{"response_times":[865.990000020247,503.99499997729436,1009.009999979753,726.9199999864213,1294.6549999760464,1468.3199999853969,1530.7250000187196,479.7649999964051,494.1349999862723,873.3099999953993],"keys_pressed":["rightarrow","leftarrow","leftarrow","rightarrow","rightarrow","leftarrow","leftarrow","rightarrow","rightarrow","rightarrow"],"horizon":10,"forced_choices":["rightarrow","leftarrow","leftarrow","rightarrow"],"right_color":"orange","left_color":"lightblue","left_mu":40,"right_mu":48,"left_numbers":[51,25,37,52,47,32,34,45,24,34],"right_numbers":[50,43,38,53,29,44,45,43,51,50],"points_earned":404,"phase":"task","trial_type":"horizons-task","trial_index":47,"time_elapsed":1033947,"internal_node_id":"0.0-43.0","task_version":"0.2"},{"response_times":[945.0049999868497,843.8550000428222,567.125000001397,673.7399999983609,739.6749999606982],"keys_pressed":["rightarrow","rightarrow","leftarrow","leftarrow","leftarrow"],"horizon":5,"forced_choices":["rightarrow","rightarrow","leftarrow","leftarrow"],"right_color":"lightblue","left_color":"orange","left_mu":40,"right_mu":20,"left_numbers":[39,45,37,48,45],"right_numbers":[23,8,15,33,19],"points_earned":161,"phase":"task","trial_type":"horizons-task","trial_index":48,"time_elapsed":1039156,"internal_node_id":"0.0-44.0","task_version":"0.2"},{"response_times":[595.5700000049546,712.8900000243448,991.199999989476,1448.8499999861233,2272.7650000015274,467.8249999997206,837.0899999863468,2332.040000008419,482.82500001369044,576.9499999587424],"keys_pressed":["rightarrow","rightarrow","leftarrow","leftarrow","rightarrow","leftarrow","rightarrow","rightarrow","rightarrow","rightarrow"],"horizon":10,"forced_choices":["rightarrow","rightarrow","leftarrow","leftarrow"],"right_color":"lightblue","left_color":"orange","left_mu":40,"right_mu":32,"left_numbers":[16,40,33,37,49,27,44,25,46,46],"right_numbers":[32,34,24,24,38,20,37,34,48,35],"points_earned":355,"phase":"task","trial_type":"horizons-task","trial_index":49,"time_elapsed":1051380,"internal_node_id":"0.0-45.0","task_version":"0.2"},{"response_times":[628.1500000040978,503.74999997438863,1010.3250000393018,699.5749999769032,939.0049999929033,1094.9350000009872,425.86999997729436,502.0350000122562,486.84999998658895,456.1450000037439],"keys_pressed":["leftarrow","rightarrow","rightarrow","leftarrow","leftarrow","rightarrow","rightarrow","rightarrow","rightarrow","rightarrow"],"horizon":10,"forced_choices":["leftarrow","rightarrow","rightarrow","leftarrow"],"right_color":"lightblue","left_color":"orange","left_mu":40,"right_mu":70,"left_numbers":[42,36,33,37,40,42,34,49,53,39],"right_numbers":[72,78,73,71,77,74,69,75,78,71],"points_earned":637,"phase":"task","trial_type":"horizons-task","trial_index":50,"time_elapsed":1059634,"internal_node_id":"0.0-46.0","task_version":"0.2"},{"view_history":"[{\"page_index\":0,\"viewing_time\":3625.0700000091456},{\"page_index\":1,\"viewing_time\":5558.775000041351}]","rt":9184.455000038724,"trial_type":"instructions","trial_index":51,"time_elapsed":1068821,"internal_node_id":"0.0-47.0","task_version":"0.2"},{"response_times":[1813.2149999728426,782.6150000328198,3527.974999975413,821.6799999936484,4702.9249999905005,487.75500000920147,533.3349999855272,478.17500005476177,734.7799999988638,772.8900000220165],"keys_pressed":["leftarrow","rightarrow","leftarrow","leftarrow","leftarrow","leftarrow","rightarrow","rightarrow","leftarrow","leftarrow"],"horizon":10,"forced_choices":["leftarrow","rightarrow","leftarrow","leftarrow"],"right_color":"lightblue","left_color":"orange","left_mu":40,"right_mu":32,"left_numbers":[41,40,39,29,47,39,45,31,41,37],"right_numbers":[36,41,19,40,44,36,40,37,28,35],"points_earned":391,"phase":"task","trial_type":"horizons-task","trial_index":52,"time_elapsed":1084990,"internal_node_id":"0.0-48.0","task_version":"0.2"},{"response_times":[725.0999999814667,475.8400000282563,836.9850000017323,701.1300000012852,783.8800000026822,690.4450000147335,506.28500001039356,456.04000001912937,492.0200000051409,685.7899999595247],"keys_pressed":["leftarrow","rightarrow","rightarrow","rightarrow","leftarrow","rightarrow","leftarrow","leftarrow","leftarrow","leftarrow"],"horizon":10,"forced_choices":["leftarrow","rightarrow","rightarrow","rightarrow"],"right_color":"orange","left_color":"lightblue","left_mu":60,"right_mu":48,"left_numbers":[70,64,60,52,54,59,57,72,62,60],"right_numbers":[51,42,69,56,46,41,47,49,35,38],"points_earned":583,"phase":"task","trial_type":"horizons-task","trial_index":53,"time_elapsed":1092851,"internal_node_id":"0.0-49.0","task_version":"0.2"},{"response_times":[624.5300000300631,518.9300000201911,744.9550000019372,644.0500000026077,2043.9899999764748,449.02499997988343,611.6599999950267,440.0999999488704,461.6999999852851,875.0299999956042],"keys_pressed":["rightarrow","leftarrow","rightarrow","leftarrow","leftarrow","leftarrow","rightarrow","leftarrow","leftarrow","leftarrow"],"horizon":10,"forced_choices":["rightarrow","leftarrow","rightarrow","leftarrow"],"right_color":"lightblue","left_color":"orange","left_mu":60,"right_mu":52,"left_numbers":[54,61,44,55,65,62,62,53,61,65],"right_numbers":[55,62,54,50,49,52,56,52,49,48],"points_earned":587,"phase":"task","trial_type":"horizons-task","trial_index":54,"time_elapsed":1101769,"internal_node_id":"0.0-50.0","task_version":"0.2"},{"response_times":[807.4550000019372,381.8650000030175,657.839999999851,834.9900000030175,593.75],"keys_pressed":["leftarrow","rightarrow","rightarrow","leftarrow","rightarrow"],"horizon":5,"forced_choices":["leftarrow","rightarrow","rightarrow","leftarrow"],"right_color":"orange","left_color":"lightblue","left_mu":40,"right_mu":52,"left_numbers":[31,47,30,47,39],"right_numbers":[43,48,62,53,54],"points_earned":242,"phase":"task","trial_type":"horizons-task","trial_index":55,"time_elapsed":1106550,"internal_node_id":"0.0-51.0","task_version":"0.2"},{"response_times":[588.8649999978952,452.6049999985844,1290.9600000130013,678.7749999784864,2615.254999953322],"keys_pressed":["leftarrow","rightarrow","leftarrow","rightarrow","rightarrow"],"horizon":5,"forced_choices":["leftarrow","rightarrow","leftarrow","rightarrow"],"right_color":"lightblue","left_color":"orange","left_mu":60,"right_mu":64,"left_numbers":[55,60,72,57,50],"right_numbers":[65,63,63,77,51],"points_earned":318,"phase":"task","trial_type":"horizons-task","trial_index":56,"time_elapsed":1113682,"internal_node_id":"0.0-52.0","task_version":"0.2"},{"response_times":[628.8549999590032,441.5700000245124,797.9150000028312,859.8999999812804,1570.145000005141,456.7399999941699,491.9149999623187,476.03999997954816,468.06499996455386,1070.8250000025146],"keys_pressed":["rightarrow","leftarrow","leftarrow","leftarrow","leftarrow","rightarrow","rightarrow","rightarrow","rightarrow","rightarrow"],"horizon":10,"forced_choices":["rightarrow","leftarrow","leftarrow","leftarrow"],"right_color":"orange","left_color":"lightblue","left_mu":60,"right_mu":90,"left_numbers":[66,67,51,67,49,56,61,59,49,55],"right_numbers":[106,87,89,89,101,91,98,94,94,101],"points_earned":818,"phase":"task","trial_type":"horizons-task","trial_index":57,"time_elapsed":1122452,"internal_node_id":"0.0-53.0","task_version":"0.2"},{"response_times":[649.0549999871291,435.8549999888055,736.9450000114739,600.3400000045076,1735.5600000009872,734.8449999699369,346.1449999595061,420.90000002644956,427.945000003092,772.7200000081211],"keys_pressed":["leftarrow","rightarrow","rightarrow","leftarrow","rightarrow","leftarrow","rightarrow","rightarrow","rightarrow","rightarrow"],"horizon":10,"forced_choices":["leftarrow","rightarrow","rightarrow","leftarrow"],"right_color":"orange","left_color":"lightblue","left_mu":40,"right_mu":52,"left_numbers":[36,41,41,37,35,47,37,46,44,38],"right_numbers":[51,31,52,60,56,45,57,55,39,64],"points_earned":474,"phase":"task","trial_type":"horizons-task","trial_index":58,"time_elapsed":1130817,"internal_node_id":"0.0-54.0","task_version":"0.2"},{"response_times":[689.7400000016205,413.66500000003725,481.1350000090897,495.93500001356006,1869.059999997262],"keys_pressed":["rightarrow","leftarrow","rightarrow","leftarrow","leftarrow"],"horizon":5,"forced_choices":["rightarrow","leftarrow","rightarrow","leftarrow"],"right_color":"lightblue","left_color":"orange","left_mu":60,"right_mu":52,"left_numbers":[45,53,67,55,58],"right_numbers":[43,35,54,61,45],"points_earned":263,"phase":"task","trial_type":"horizons-task","trial_index":59,"time_elapsed":1136271,"internal_node_id":"0.0-55.0","task_version":"0.2"},{"response_times":[619.7399999946356,455.59500000672415,627.9250000370666,905.9700000216253,1139.904999989085,437.92500003473833,803.0800000415184,487.74500004947186,791.0399999818765,3530.940000026021],"keys_pressed":["rightarrow","leftarrow","leftarrow","leftarrow","rightarrow","leftarrow","rightarrow","leftarrow","leftarrow","rightarrow"],"horizon":10,"forced_choices":["rightarrow","leftarrow","leftarrow","leftarrow"],"right_color":"lightblue","left_color":"orange","left_mu":40,"right_mu":44,"left_numbers":[26,36,50,58,34,38,42,35,31,45],"right_numbers":[47,52,49,57,49,32,39,37,38,40],"points_earned":423,"phase":"task","trial_type":"horizons-task","trial_index":60,"time_elapsed":1147576,"internal_node_id":"0.0-56.0","task_version":"0.2"},{"response_times":[620.4100000322796,656.650000018999,972.8250000043772,649.9750000075437,1107.9950000275858,510.91499999165535,475.69500003010035,527.1550000179559,546.8950000358745,614.049999974668],"keys_pressed":["leftarrow","rightarrow","leftarrow","rightarrow","rightarrow","leftarrow","rightarrow","rightarrow","rightarrow","rightarrow"],"horizon":10,"forced_choices":["leftarrow","rightarrow","leftarrow","rightarrow"],"right_color":"lightblue","left_color":"orange","left_mu":60,"right_mu":64,"left_numbers":[54,62,54,58,51,50,61,47,71,56],"right_numbers":[56,70,67,58,54,61,59,68,68,76],"points_earned":611,"phase":"task","trial_type":"horizons-task","trial_index":61,"time_elapsed":1155765,"internal_node_id":"0.0-57.0","task_version":"0.2"},{"response_times":[611.254999996163,399.61000002222136,686.0450000385754,793.0749999941327,1476.734999974724,520.105000003241,674.9699999927543,454.54499998595566,456.9950000150129,460.82499995827675],"keys_pressed":["leftarrow","rightarrow","leftarrow","leftarrow","rightarrow","rightarrow","leftarrow","rightarrow","rightarrow","rightarrow"],"horizon":10,"forced_choices":["leftarrow","rightarrow","leftarrow","leftarrow"],"right_color":"lightblue","left_color":"orange","left_mu":40,"right_mu":60,"left_numbers":[50,39,35,41,51,40,31,36,42,43],"right_numbers":[71,48,49,59,67,43,61,57,49,45],"points_earned":466,"phase":"task","trial_type":"horizons-task","trial_index":62,"time_elapsed":1163807,"internal_node_id":"0.0-58.0","task_version":"0.2"},{"response_times":[679.9949999549426,591.6899999720044,574.9400000204332,920.1650000177324,2290.2500000200234,350.5649999715388,569.870000006631,491.97500001173466,762.2899999842048,882.6649999828078],"keys_pressed":["leftarrow","leftarrow","rightarrow","rightarrow","leftarrow","rightarrow","rightarrow","rightarrow","leftarrow","rightarrow"],"horizon":10,"forced_choices":["leftarrow","leftarrow","rightarrow","rightarrow"],"right_color":"lightblue","left_color":"orange","left_mu":40,"right_mu":44,"left_numbers":[36,35,41,49,30,31,45,40,38,49],"right_numbers":[49,36,48,38,38,49,30,40,40,48],"points_earned":392,"phase":"task","trial_type":"horizons-task","trial_index":63,"time_elapsed":1173430,"internal_node_id":"0.0-59.0","task_version":"0.2"},{"response_times":[812.1350000146776,635.950000025332,786.5649999585003,553.1150000169873,764.5499999634922,764.4599999766797,710.8299999963492,425.054999999702,689.8800000199117,2078.014999977313],"keys_pressed":["rightarrow","leftarrow","leftarrow","rightarrow","rightarrow","leftarrow","leftarrow","rightarrow","rightarrow","rightarrow"],"horizon":10,"forced_choices":["rightarrow","leftarrow","leftarrow","rightarrow"],"right_color":"orange","left_color":"lightblue","left_mu":60,"right_mu":68,"left_numbers":[61,62,49,67,68,72,52,62,62,54],"right_numbers":[85,73,67,77,62,67,65,54,66,66],"points_earned":645,"phase":"task","trial_type":"horizons-task","trial_index":64,"time_elapsed":1183159,"internal_node_id":"0.0-60.0","task_version":"0.2"},{"response_times":[696.2949999724515,676.8600000068545,733.9700000011362,545.9699999773875,2550.0600000377744,945.0200000428595,481.6050000372343,454.0749999578111,460.89500002563,592.9050000268035],"keys_pressed":["rightarrow","rightarrow","leftarrow","rightarrow","rightarrow","rightarrow","rightarrow","rightarrow","rightarrow","rightarrow"],"horizon":10,"forced_choices":["rightarrow","rightarrow","leftarrow","rightarrow"],"right_color":"orange","left_color":"lightblue","left_mu":60,"right_mu":72,"left_numbers":[63,53,61,62,55,64,63,63,53,70],"right_numbers":[64,75,77,73,63,79,82,68,77,75],"points_earned":717,"phase":"task","trial_type":"horizons-task","trial_index":65,"time_elapsed":1192801,"internal_node_id":"0.0-61.0","task_version":"0.2"},{"response_times":[579.3800000101328,642.5400000298396,878.2849999843165,500.7099999929778,650.954999960959,677.0249999826774,5103.234999987762,1689.5449999719858,492.0099999872036,508.73499998124316],"keys_pressed":["leftarrow","leftarrow","leftarrow","rightarrow","rightarrow","rightarrow","rightarrow","rightarrow","leftarrow","rightarrow"],"horizon":10,"forced_choices":["leftarrow","leftarrow","leftarrow","rightarrow"],"right_color":"orange","left_color":"lightblue","left_mu":40,"right_mu":52,"left_numbers":[38,45,48,35,33,51,44,38,47,39],"right_numbers":[41,53,57,51,85,49,59,55,46,41],"points_earned":518,"phase":"task","trial_type":"horizons-task","trial_index":66,"time_elapsed":1206028,"internal_node_id":"0.0-62.0","task_version":"0.2"},{"response_times":[575.3999999724329,517.8399999858811,693.8699999591336,591.0400000284426,1813.094999990426],"keys_pressed":["rightarrow","leftarrow","leftarrow","rightarrow","leftarrow"],"horizon":5,"forced_choices":["rightarrow","leftarrow","leftarrow","rightarrow"],"right_color":"orange","left_color":"lightblue","left_mu":40,"right_mu":10,"left_numbers":[43,51,40,52,38],"right_numbers":[17,10,9,1,1],"points_earned":147,"phase":"task","trial_type":"horizons-task","trial_index":67,"time_elapsed":1211724,"internal_node_id":"0.0-63.0","task_version":"0.2"},{"response_times":[678.8700000033714,752.6999999536201,610.1800000178628,781.6199999651872,3707.239999959711],"keys_pressed":["rightarrow","rightarrow","leftarrow","rightarrow","rightarrow"],"horizon":5,"forced_choices":["rightarrow","rightarrow","leftarrow","rightarrow"],"right_color":"lightblue","left_color":"orange","left_mu":60,"right_mu":52,"left_numbers":[60,71,59,78,63],"right_numbers":[53,55,51,51,48],"points_earned":266,"phase":"task","trial_type":"horizons-task","trial_index":68,"time_elapsed":1219762,"internal_node_id":"0.0-64.0","task_version":"0.2"},{"response_times":[578.5099999629892,602.0199999911711,598.9399999962188,597.7699999930337,1125.3649999853224],"keys_pressed":["leftarrow","leftarrow","rightarrow","rightarrow","leftarrow"],"horizon":5,"forced_choices":["leftarrow","leftarrow","rightarrow","rightarrow"],"right_color":"orange","left_color":"lightblue","left_mu":60,"right_mu":40,"left_numbers":[60,72,59,63,60],"right_numbers":[41,43,41,41,30],"points_earned":274,"phase":"task","trial_type":"horizons-task","trial_index":69,"time_elapsed":1224770,"internal_node_id":"0.0-65.0","task_version":"0.2"},{"response_times":[651.1249999748543,786.1200000043027,834.9150000140071,713.0349999642931,1936.8849999736995],"keys_pressed":["leftarrow","leftarrow","leftarrow","rightarrow","leftarrow"],"horizon":5,"forced_choices":["leftarrow","leftarrow","leftarrow","rightarrow"],"right_color":"orange","left_color":"lightblue","left_mu":40,"right_mu":52,"left_numbers":[34,56,26,36,47],"right_numbers":[54,56,62,49,43],"points_earned":212,"phase":"task","trial_type":"horizons-task","trial_index":70,"time_elapsed":1231197,"internal_node_id":"0.0-66.0","task_version":"0.2"},{"response_times":[618.3650000020862,690.0349999777973,3853.1099999672733,710.495000006631,2257.22999998834],"keys_pressed":["rightarrow","leftarrow","leftarrow","rightarrow","rightarrow"],"horizon":5,"forced_choices":["rightarrow","leftarrow","leftarrow","rightarrow"],"right_color":"orange","left_color":"lightblue","left_mu":60,"right_mu":80,"left_numbers":[70,53,70,77,50],"right_numbers":[80,75,78,70,74],"points_earned":347,"phase":"task","trial_type":"horizons-task","trial_index":71,"time_elapsed":1240829,"internal_node_id":"0.0-67.0","task_version":"0.2"},{"response_times":[575.635000015609,821.0149999940768,677.0300000207499,871.7249999754131,893.949999997858],"keys_pressed":["rightarrow","rightarrow","leftarrow","rightarrow","leftarrow"],"horizon":5,"forced_choices":["rightarrow","rightarrow","leftarrow","rightarrow"],"right_color":"orange","left_color":"lightblue","left_mu":60,"right_mu":40,"left_numbers":[54,69,75,68,52],"right_numbers":[43,37,48,38,47],"points_earned":245,"phase":"task","trial_type":"horizons-task","trial_index":72,"time_elapsed":1246173,"internal_node_id":"0.0-68.0","task_version":"0.2"},{"response_times":[741.4299999945797,445.4750000149943,765.9950000233948,574.9899999937043,2423.8899999763817,724.9149999697693,621.8499999959022,735.9699999797158,464.9299999582581,1687.9799999878742],"keys_pressed":["leftarrow","rightarrow","rightarrow","leftarrow","rightarrow","leftarrow","leftarrow","rightarrow","leftarrow","leftarrow"],"horizon":10,"forced_choices":["leftarrow","rightarrow","rightarrow","leftarrow"],"right_color":"lightblue","left_color":"orange","left_mu":40,"right_mu":36,"left_numbers":[31,37,32,30,32,54,43,44,34,37],"right_numbers":[40,26,42,42,30,38,29,43,27,35],"points_earned":370,"phase":"task","trial_type":"horizons-task","trial_index":73,"time_elapsed":1256867,"internal_node_id":"0.0-69.0","task_version":"0.2"},{"response_times":[864.7099999943748,425.615000014659,745.0599999865517,914.7849999717437,3998.914999945555],"keys_pressed":["leftarrow","rightarrow","rightarrow","rightarrow","rightarrow"],"horizon":5,"forced_choices":["leftarrow","rightarrow","rightarrow","rightarrow"],"right_color":"orange","left_color":"lightblue","left_mu":60,"right_mu":48,"left_numbers":[47,63,73,56,66],"right_numbers":[42,40,40,43,46],"points_earned":216,"phase":"task","trial_type":"horizons-task","trial_index":74,"time_elapsed":1265320,"internal_node_id":"0.0-70.0","task_version":"0.2"},{"response_times":[674.1250000195578,520.7299999892712,500.96499995561317,917.2249999828637,2373.7500000279397,561.8699999758974,450.6950000068173,505.0800000317395,690.984999993816,672.7850000024773],"keys_pressed":["rightarrow","rightarrow","leftarrow","leftarrow","rightarrow","rightarrow","leftarrow","leftarrow","rightarrow","leftarrow"],"horizon":10,"forced_choices":["rightarrow","rightarrow","leftarrow","leftarrow"],"right_color":"lightblue","left_color":"orange","left_mu":40,"right_mu":20,"left_numbers":[28,46,38,26,35,35,46,21,45,33],"right_numbers":[37,21,20,20,35,23,22,22,23,17],"points_earned":303,"phase":"task","trial_type":"horizons-task","trial_index":75,"time_elapsed":1274693,"internal_node_id":"0.0-71.0","task_version":"0.2"},{"response_times":[674.2899999953806,566.8049999512732,640.9050000365824,584.0749999624677,1131.0199999716133],"keys_pressed":["rightarrow","leftarrow","leftarrow","rightarrow","rightarrow"],"horizon":5,"forced_choices":["rightarrow","leftarrow","leftarrow","rightarrow"],"right_color":"orange","left_color":"lightblue","left_mu":40,"right_mu":48,"left_numbers":[47,43,20,37,44],"right_numbers":[62,55,48,48,51],"points_earned":224,"phase":"task","trial_type":"horizons-task","trial_index":76,"time_elapsed":1279795,"internal_node_id":"0.0-72.0","task_version":"0.2"},{"response_times":[633.9550000266172,560.7099999906495,497.0200000097975,601.810000021942,705.0700000254437,603.000000002794,454.9249999690801,732.9499999759719,373.0299999588169,491.98000004980713],"keys_pressed":["rightarrow","leftarrow","rightarrow","rightarrow","rightarrow","rightarrow","rightarrow","leftarrow","rightarrow","rightarrow"],"horizon":10,"forced_choices":["rightarrow","leftarrow","rightarrow","rightarrow"],"right_color":"lightblue","left_color":"orange","left_mu":40,"right_mu":70,"left_numbers":[31,35,25,32,53,35,43,36,41,39],"right_numbers":[77,70,83,65,58,72,64,66,64,70],"points_earned":624,"phase":"task","trial_type":"horizons-task","trial_index":77,"time_elapsed":1286956,"internal_node_id":"0.0-73.0","task_version":"0.2"},{"response_times":[585.2699999813922,581.720000016503,503.4449999802746,944.6600000374019,1082.6400000369176,575.0650000409223,685.1299999980256,863.7350000208244,510.63500001328066,2210.2999999769963],"keys_pressed":["leftarrow","leftarrow","rightarrow","leftarrow","leftarrow","leftarrow","rightarrow","rightarrow","leftarrow","leftarrow"],"horizon":10,"forced_choices":["leftarrow","leftarrow","rightarrow","leftarrow"],"right_color":"lightblue","left_color":"orange","left_mu":60,"right_mu":64,"left_numbers":[51,58,65,68,90,72,57,62,53,66],"right_numbers":[57,77,74,57,66,70,70,64,56,55],"points_earned":666,"phase":"task","trial_type":"horizons-task","trial_index":78,"time_elapsed":1297007,"internal_node_id":"0.0-74.0","task_version":"0.2"},{"response_times":[674.9000000418164,709.7349999821745,543.2499999878928,611.6600000532344,541.9899999978952],"keys_pressed":["rightarrow","rightarrow","leftarrow","leftarrow","rightarrow"],"horizon":5,"forced_choices":["rightarrow","rightarrow","leftarrow","leftarrow"],"right_color":"orange","left_color":"lightblue","left_mu":60,"right_mu":90,"left_numbers":[58,50,58,62,60],"right_numbers":[99,72,83,89,99],"points_earned":390,"phase":"task","trial_type":"horizons-task","trial_index":79,"time_elapsed":1301593,"internal_node_id":"0.0-75.0","task_version":"0.2"},{"response_times":[678.4300000290386,701.0499999742024,542.8700000047684,668.8500000163913,2453.079999948386],"keys_pressed":["rightarrow","rightarrow","rightarrow","leftarrow","rightarrow"],"horizon":5,"forced_choices":["rightarrow","rightarrow","rightarrow","leftarrow"],"right_color":"orange","left_color":"lightblue","left_mu":60,"right_mu":80,"left_numbers":[63,65,57,79,47],"right_numbers":[79,84,69,77,71],"points_earned":382,"phase":"task","trial_type":"horizons-task","trial_index":80,"time_elapsed":1308143,"internal_node_id":"0.0-76.0","task_version":"0.2"},{"response_times":[593.3799999766052,499.1549999685958,539.7800000500865,852.9499999713153,1952.7200000011362],"keys_pressed":["leftarrow","leftarrow","rightarrow","leftarrow","rightarrow"],"horizon":5,"forced_choices":["leftarrow","leftarrow","rightarrow","leftarrow"],"right_color":"orange","left_color":"lightblue","left_mu":40,"right_mu":48,"left_numbers":[25,42,61,44,38],"right_numbers":[41,54,47,53,45],"points_earned":203,"phase":"task","trial_type":"horizons-task","trial_index":81,"time_elapsed":1314088,"internal_node_id":"0.0-77.0","task_version":"0.2"},{"response_times":[581.0700000147335,475.864999985788,447.9949999949895,507.1849999949336,1721.944999997504,531.6950000124052,978.9549999986775,468.0250000092201,917.8249999531545,549.8700000462122],"keys_pressed":["leftarrow","leftarrow","rightarrow","leftarrow","leftarrow","rightarrow","rightarrow","rightarrow","rightarrow","rightarrow"],"horizon":10,"forced_choices":["leftarrow","leftarrow","rightarrow","leftarrow"],"right_color":"orange","left_color":"lightblue","left_mu":40,"right_mu":48,"left_numbers":[26,30,29,47,35,29,51,46,34,25],"right_numbers":[61,39,45,33,42,43,46,53,50,38],"points_earned":413,"phase":"task","trial_type":"horizons-task","trial_index":82,"time_elapsed":1322773,"internal_node_id":"0.0-78.0","task_version":"0.2"},{"response_times":[752.745000005234,829.5349999680184,573.0750000220723,1270.4200000152923,1388.684999954421],"keys_pressed":["leftarrow","leftarrow","rightarrow","leftarrow","leftarrow"],"horizon":5,"forced_choices":["leftarrow","leftarrow","rightarrow","leftarrow"],"right_color":"orange","left_color":"lightblue","left_mu":40,"right_mu":10,"left_numbers":[38,30,31,34,39],"right_numbers":[8,12,0,9,8],"points_earned":141,"phase":"task","trial_type":"horizons-task","trial_index":83,"time_elapsed":1329093,"internal_node_id":"0.0-79.0","task_version":"0.2"},{"response_times":[584.35499999905,429.3750000069849,708.2099999533966,551.8200000515208,1824.1150000249036],"keys_pressed":["leftarrow","rightarrow","rightarrow","leftarrow","leftarrow"],"horizon":5,"forced_choices":["leftarrow","rightarrow","rightarrow","leftarrow"],"right_color":"lightblue","left_color":"orange","left_mu":40,"right_mu":36,"left_numbers":[41,34,48,47,29],"right_numbers":[29,29,25,29,37],"points_earned":171,"phase":"task","trial_type":"horizons-task","trial_index":84,"time_elapsed":1334695,"internal_node_id":"0.0-80.0","task_version":"0.2"},{"response_times":[593.9349999534898,537.9100000136532,500.8599999709986,797.179999994114,742.5999999977648,597.0700000179932,468.99999998277053,517.69999996759,522.4900000030175,535.730000003241],"keys_pressed":["leftarrow","rightarrow","leftarrow","rightarrow","leftarrow","rightarrow","leftarrow","leftarrow","leftarrow","leftarrow"],"horizon":10,"forced_choices":["leftarrow","rightarrow","leftarrow","rightarrow"],"right_color":"lightblue","left_color":"orange","left_mu":60,"right_mu":30,"left_numbers":[70,61,53,55,43,61,59,56,71,61],"right_numbers":[29,23,24,18,32,33,25,26,24,48],"points_earned":487,"phase":"task","trial_type":"horizons-task","trial_index":85,"time_elapsed":1342017,"internal_node_id":"0.0-81.0","task_version":"0.2"},{"response_times":[570.815000042785,656.9699999527074,463.8899999554269,894.8300000047311,671.8949999776669,411.09000000869855,537.064999982249,824.9150000046939,365.9899999620393,534.8200000007637],"keys_pressed":["leftarrow","leftarrow","rightarrow","leftarrow","rightarrow","leftarrow","leftarrow","rightarrow","leftarrow","leftarrow"],"horizon":10,"forced_choices":["leftarrow","leftarrow","rightarrow","leftarrow"],"right_color":"orange","left_color":"lightblue","left_mu":40,"right_mu":10,"left_numbers":[34,43,47,42,56,18,51,44,28,17],"right_numbers":[15,0,0,6,18,23,21,0,32,11],"points_earned":251,"phase":"task","trial_type":"horizons-task","trial_index":86,"time_elapsed":1349456,"internal_node_id":"0.0-82.0","task_version":"0.2"},{"response_times":[644.6299999952316,583.6450000060722,603.9400000008754,1137.0250000036322,541.704999981448],"keys_pressed":["rightarrow","leftarrow","leftarrow","leftarrow","rightarrow"],"horizon":5,"forced_choices":["rightarrow","leftarrow","leftarrow","leftarrow"],"right_color":"orange","left_color":"lightblue","left_mu":60,"right_mu":90,"left_numbers":[48,65,50,63,62],"right_numbers":[90,75,90,86,93],"points_earned":361,"phase":"task","trial_type":"horizons-task","trial_index":87,"time_elapsed":1354474,"internal_node_id":"0.0-83.0","task_version":"0.2"},{"response_times":[492.44000000180677,425.1550000044517,608.3200000575744,591.5249999961816,879.96499997098,454.7749999910593,395.9649999742396,426.8850000225939,751.9749999628402,549.944999977015],"keys_pressed":["leftarrow","rightarrow","rightarrow","rightarrow","rightarrow","rightarrow","rightarrow","rightarrow","rightarrow","rightarrow"],"horizon":10,"forced_choices":["leftarrow","rightarrow","rightarrow","rightarrow"],"right_color":"orange","left_color":"lightblue","left_mu":60,"right_mu":68,"left_numbers":[54,65,52,62,41,58,60,52,66,48],"right_numbers":[69,67,52,70,71,57,76,58,65,71],"points_earned":641,"phase":"task","trial_type":"horizons-task","trial_index":88,"time_elapsed":1361559,"internal_node_id":"0.0-84.0","task_version":"0.2"},{"response_times":[632.5099999667145,434.1450000065379,626.1199999717064,527.9999999911524,965.8849999541417],"keys_pressed":["rightarrow","leftarrow","leftarrow","rightarrow","rightarrow"],"horizon":5,"forced_choices":["rightarrow","leftarrow","leftarrow","rightarrow"],"right_color":"orange","left_color":"lightblue","left_mu":60,"right_mu":68,"left_numbers":[53,69,47,63,59],"right_numbers":[74,64,62,62,66],"points_earned":318,"phase":"task","trial_type":"horizons-task","trial_index":89,"time_elapsed":1366252,"internal_node_id":"0.0-85.0","task_version":"0.2"},{"response_times":[608.4849999751896,776.4900000183843,399.0050000138581,688.0249999812804,843.9650000073016,1036.8400000152178,302.1549999830313,429.80500002158806,388.95499997306615,442.7750000031665],"keys_pressed":["rightarrow","rightarrow","leftarrow","rightarrow","leftarrow","rightarrow","leftarrow","leftarrow","leftarrow","leftarrow"],"horizon":10,"forced_choices":["rightarrow","rightarrow","leftarrow","rightarrow"],"right_color":"orange","left_color":"lightblue","left_mu":60,"right_mu":40,"left_numbers":[59,75,73,73,60,58,60,65,57,71],"right_numbers":[37,38,37,44,30,27,38,55,35,30],"points_earned":532,"phase":"task","trial_type":"horizons-task","trial_index":90,"time_elapsed":1373676,"internal_node_id":"0.0-86.0","task_version":"0.2"},{"response_times":[581.2799999839626,593.6349999974482,553.4400000469759,697.4599999957718,672.8800000273623,511.1599999945611,397.7949999971315,570.9400000050664,417.9250000161119,857.8850000048988],"keys_pressed":["rightarrow","rightarrow","leftarrow","rightarrow","leftarrow","leftarrow","leftarrow","leftarrow","leftarrow","leftarrow"],"horizon":10,"forced_choices":["rightarrow","rightarrow","leftarrow","rightarrow"],"right_color":"lightblue","left_color":"orange","left_mu":60,"right_mu":52,"left_numbers":[57,58,68,58,69,45,67,53,50,50],"right_numbers":[52,56,47,49,42,64,45,53,41,51],"points_earned":559,"phase":"task","trial_type":"horizons-task","trial_index":91,"time_elapsed":1381036,"internal_node_id":"0.0-87.0","task_version":"0.2"},{"rt":30555.22000003839,"responses":{"age":"30","gender-categorical":"Male","gender-free-response":"","ethnicity":"Not Hispanic or Latino","race":["Asian"],"language":"No","fluency":"Very well"},"survey":"demographics","trial_type":"survey-demo","trial_index":92,"time_elapsed":1411597,"internal_node_id":"0.0-88.0","task_version":"0.2"},{"rt":149297.06499999156,"responses":{"difficulty":"5","fun":"5","clarity":"4","strategy":"I tried to mentally estimate which machine gave a higher average. If I notice a machine already has a higher average I would keep going with that particular machine.","feedback":"The study was engaging and fun!"},"survey":"debrief","trial_type":"survey-debrief","trial_index":93,"time_elapsed":1560902,"internal_node_id":"0.0-89.0","task_version":"0.2","interactions":"[]"}]