[{"view_history":"[{\"page_index\":0,\"viewing_time\":12361}]","rt":12362,"trial_type":"instructions","trial_index":0,"time_elapsed":12379,"internal_node_id":"0.0-0.0","task_version":"0.2"},{"item_order":[3,10,16,1,8,2,11,14,9,4,12,15,13,0,7,5,6],"responses":{"Q04":"1","Q11":"2","Q17":"2","Q02":"1","Q09":"2","Q03":"2","Q12":"3","Q15":"2","Q10":"2","Q05":"2","Q13":"2","Q16":"2","Q14":"1","Q01":"1","Q08":"2","Q06":"3","Q07":"2"},"radio_events":[7216,10936,16336,19031,21791,28039,45222,46054,47054,47487,51127,51927,52470,53254,54542,55870,56830,59797],"key_events":[],"mouse_events":[0,6240,6792,7216,10328,10936,15360,16336,19031,21048,21791,28039,45222,46054,47054,47487,48774,49134,49718,50366,51127,51927,52470,53254,54542,55870,56830,57534,59262,59797,61753],"rt":61753,"survey":"pswq","trial_type":"survey-template","trial_index":1,"time_elapsed":74431,"internal_node_id":"0.0-1.0","task_version":"0.2"},{"item_order":[11,0,12,13,2,15,14,5,7,9,3,6,1,10,4,8],"responses":{"Q12":"3","Q01":"4","Q13":"3","Q14":"3","Q03":"4","Q16":"3","Q15":"3","Q06":"3","Q08":"2","Q10":"2","Q04":"3","Q07":"2","Q02":"2","Q11":"3","Q05":"3","Q09":"3"},"radio_events":[3488,4759,6695,7648,9072,10815,11519,14183,15680,17087,18000,19304,20215,21823,25239,26271,26863],"key_events":[],"mouse_events":[3488,4759,5511,6695,7648,9072,10815,11519,12616,14183,15680,16095,17087,18000,19304,20215,20895,21823,25239,26271,26863,31081],"rt":31081,"survey":"nfc","trial_type":"survey-template","trial_index":2,"time_elapsed":105521,"internal_node_id":"0.0-2.0","task_version":"0.2"},{"item_order":[7,5,1,3,10,4,11,9,2,6,0,12,8],"responses":{"Q08":"3","Q06":"2","Q02":"3","Q04":"2","Q11":"3","Q05":"2","Q12":"2","Q10":"2","Q03":"3","Q07":"2","Q01":"2","Q13":"2","Q09":"2"},"radio_events":[3578,5129,6986,7817,8953,11402,12273,14314,15881,16729,17465,18409,19089],"key_events":[],"mouse_events":[3578,5129,5754,6986,7817,8385,8953,9665,11402,12273,14314,15881,16729,17465,18409,19089,19875],"rt":19875,"survey":"ius12","trial_type":"survey-template","trial_index":3,"time_elapsed":125400,"internal_node_id":"0.0-3.0","task_version":"0.2"},{"view_history":"[{\"page_index\":0,\"viewing_time\":6764},{\"page_index\":1,\"viewing_time\":11615},{\"page_index\":2,\"viewing_time\":8136},{\"page_index\":3,\"viewing_time\":1328},{\"page_index\":4,\"viewing_time\":1488},{\"page_index\":5,\"viewing_time\":656},{\"page_index\":6,\"viewing_time\":2680},{\"page_index\":7,\"viewing_time\":1040},{\"page_index\":6,\"viewing_time\":2184},{\"page_index\":7,\"viewing_time\":510},{\"page_index\":6,\"viewing_time\":1138},{\"page_index\":7,\"viewing_time\":1336},{\"page_index\":8,\"viewing_time\":1023},{\"page_index\":9,\"viewing_time\":1281}]","rt":41179,"trial_type":"instructions","trial_index":4,"time_elapsed":166580,"internal_node_id":"0.0-4.0-0.0","task_version":"0.2"},{"response_times":[686,1007,464,504,480],"keys_pressed":["rightarrow","leftarrow","rightarrow","rightarrow","leftarrow"],"horizon":5,"forced_choices":["rightarrow","leftarrow","rightarrow","rightarrow"],"right_color":"lightblue","left_color":"orange","left_mu":40,"right_mu":20,"left_numbers":[43,39,42,41,37],"right_numbers":[4,12,20,19,30],"points_earned":119,"phase":"practice","trial_type":"horizons-task","trial_index":5,"time_elapsed":171262,"internal_node_id":"0.0-4.0-1.0","task_version":"0.2"},{"response_times":[618,455,400,416,471,16,423,16,416,16],"keys_pressed":["leftarrow","leftarrow","rightarrow","rightarrow","leftarrow","rightarrow","leftarrow","rightarrow","leftarrow","rightarrow"],"horizon":10,"forced_choices":["leftarrow","leftarrow","rightarrow","rightarrow"],"right_color":"orange","left_color":"lightblue","left_mu":60,"right_mu":70,"left_numbers":[62,51,58,48,51,69,64,59,62,44],"right_numbers":[62,67,71,62,71,59,64,63,58,70],"points_earned":615,"phase":"practice","trial_type":"horizons-task","trial_index":6,"time_elapsed":176014,"internal_node_id":"0.0-4.0-2.0","task_version":"0.2"},{"view_history":"[{\"page_index\":0,\"viewing_time\":2508},{\"page_index\":1,\"viewing_time\":680},{\"page_index\":2,\"viewing_time\":720},{\"page_index\":3,\"viewing_time\":720}]","rt":4628,"trial_type":"instructions","trial_index":7,"time_elapsed":180643,"internal_node_id":"0.0-4.0-3.0","task_version":"0.2"},{"responses":["true","false","true"],"num_errors":0,"rt":28182,"trial_type":"horizons-comprehension","trial_index":8,"time_elapsed":208828,"internal_node_id":"0.0-4.0-4.0","task_version":"0.2"},{"trial_type":"call-function","trial_index":9,"time_elapsed":208831,"internal_node_id":"0.0-5.0","task_version":"0.2"},{"view_history":"[{\"page_index\":0,\"viewing_time\":1627},{\"page_index\":1,\"viewing_time\":2279}]","rt":3907,"trial_type":"instructions","trial_index":10,"time_elapsed":212738,"internal_node_id":"0.0-6.0","task_version":"0.2"},{"response_times":[1222,583,385,400,471,745,112,496,8,535],"keys_pressed":["rightarrow","rightarrow","leftarrow","rightarrow","leftarrow","leftarrow","rightarrow","leftarrow","rightarrow","leftarrow"],"horizon":10,"forced_choices":["rightarrow","rightarrow","leftarrow","rightarrow"],"right_color":"orange","left_color":"lightblue","left_mu":60,"right_mu":40,"left_numbers":[60,69,69,67,72,66,57,57,43,49],"right_numbers":[54,39,38,39,51,45,38,40,44,31],"points_earned":527,"phase":"task","trial_type":"horizons-task","trial_index":11,"time_elapsed":219204,"internal_node_id":"0.0-7.0","task_version":"0.2"},{"response_times":[553,409,440,447,512],"keys_pressed":["rightarrow","leftarrow","leftarrow","rightarrow","leftarrow"],"horizon":5,"forced_choices":["rightarrow","leftarrow","leftarrow","rightarrow"],"right_color":"lightblue","left_color":"orange","left_mu":40,"right_mu":44,"left_numbers":[42,34,47,38,41],"right_numbers":[37,45,54,42,43],"points_earned":201,"phase":"task","trial_type":"horizons-task","trial_index":12,"time_elapsed":223068,"internal_node_id":"0.0-8.0","task_version":"0.2"},{"response_times":[490,417,376,400,512,15,441,7,409,15],"keys_pressed":["leftarrow","leftarrow","rightarrow","leftarrow","rightarrow","leftarrow","leftarrow","rightarrow","leftarrow","rightarrow"],"horizon":10,"forced_choices":["leftarrow","leftarrow","rightarrow","leftarrow"],"right_color":"orange","left_color":"lightblue","left_mu":60,"right_mu":56,"left_numbers":[67,50,60,72,65,51,53,58,59,54],"right_numbers":[71,49,53,56,59,54,51,57,61,56],"points_earned":577,"phase":"task","trial_type":"horizons-task","trial_index":13,"time_elapsed":227651,"internal_node_id":"0.0-9.0","task_version":"0.2"},{"response_times":[522,400,385,599,376],"keys_pressed":["rightarrow","leftarrow","rightarrow","rightarrow","rightarrow"],"horizon":5,"forced_choices":["rightarrow","leftarrow","rightarrow","rightarrow"],"right_color":"lightblue","left_color":"orange","left_mu":40,"right_mu":36,"left_numbers":[42,34,38,43,34],"right_numbers":[27,50,35,38,33],"points_earned":167,"phase":"task","trial_type":"horizons-task","trial_index":14,"time_elapsed":231435,"internal_node_id":"0.0-10.0","task_version":"0.2"},{"response_times":[474,408,399,416,480,8,416,16,343,16],"keys_pressed":["rightarrow","leftarrow","rightarrow","leftarrow","leftarrow","rightarrow","leftarrow","rightarrow","leftarrow","rightarrow"],"horizon":10,"forced_choices":["rightarrow","leftarrow","rightarrow","leftarrow"],"right_color":"lightblue","left_color":"orange","left_mu":40,"right_mu":48,"left_numbers":[41,55,42,35,29,20,46,32,35,23],"right_numbers":[42,55,50,45,48,55,24,49,51,34],"points_earned":430,"phase":"task","trial_type":"horizons-task","trial_index":15,"time_elapsed":235916,"internal_node_id":"0.0-11.0","task_version":"0.2"},{"response_times":[458,391,552,839,344],"keys_pressed":["rightarrow","leftarrow","leftarrow","leftarrow","leftarrow"],"horizon":5,"forced_choices":["rightarrow","leftarrow","leftarrow","leftarrow"],"right_color":"orange","left_color":"lightblue","left_mu":40,"right_mu":52,"left_numbers":[36,27,37,37,29],"right_numbers":[46,54,63,44,61],"points_earned":176,"phase":"task","trial_type":"horizons-task","trial_index":16,"time_elapsed":240004,"internal_node_id":"0.0-12.0","task_version":"0.2"},{"response_times":[378,615,465,455,456],"keys_pressed":["rightarrow","rightarrow","rightarrow","leftarrow","leftarrow"],"horizon":5,"forced_choices":["rightarrow","rightarrow","rightarrow","leftarrow"],"right_color":"lightblue","left_color":"orange","left_mu":40,"right_mu":20,"left_numbers":[49,31,37,44,57],"right_numbers":[15,29,34,32,18],"points_earned":179,"phase":"task","trial_type":"horizons-task","trial_index":17,"time_elapsed":243875,"internal_node_id":"0.0-13.0","task_version":"0.2"},{"response_times":[498,441,392,471,463,16,456,15,377,15],"keys_pressed":["rightarrow","leftarrow","rightarrow","rightarrow","leftarrow","rightarrow","leftarrow","rightarrow","leftarrow","rightarrow"],"horizon":10,"forced_choices":["rightarrow","leftarrow","rightarrow","rightarrow"],"right_color":"lightblue","left_color":"orange","left_mu":60,"right_mu":68,"left_numbers":[66,52,55,42,70,73,67,52,60,54],"right_numbers":[60,73,61,67,84,74,57,65,78,57],"points_earned":633,"phase":"task","trial_type":"horizons-task","trial_index":18,"time_elapsed":248522,"internal_node_id":"0.0-14.0","task_version":"0.2"},{"response_times":[427,424,392,463,384,32,408,9,399,22],"keys_pressed":["leftarrow","leftarrow","rightarrow","rightarrow","leftarrow","rightarrow","leftarrow","rightarrow","leftarrow","rightarrow"],"horizon":10,"forced_choices":["leftarrow","leftarrow","rightarrow","rightarrow"],"right_color":"orange","left_color":"lightblue","left_mu":60,"right_mu":90,"left_numbers":[46,68,48,65,61,60,65,68,60,63],"right_numbers":[97,79,88,75,86,85,100,78,90,99],"points_earned":725,"phase":"task","trial_type":"horizons-task","trial_index":19,"time_elapsed":252985,"internal_node_id":"0.0-15.0","task_version":"0.2"},{"response_times":[1572,464,592,560,456,16,496,16,400,15],"keys_pressed":["rightarrow","leftarrow","leftarrow","leftarrow","leftarrow","rightarrow","leftarrow","rightarrow","leftarrow","rightarrow"],"horizon":10,"forced_choices":["rightarrow","leftarrow","leftarrow","leftarrow"],"right_color":"orange","left_color":"lightblue","left_mu":40,"right_mu":52,"left_numbers":[40,39,44,35,39,30,34,42,43,40],"right_numbers":[59,46,46,58,68,66,45,56,52,51],"points_earned":466,"phase":"task","trial_type":"horizons-task","trial_index":20,"time_elapsed":259074,"internal_node_id":"0.0-16.0","task_version":"0.2"},{"response_times":[467,456,528,432,488],"keys_pressed":["rightarrow","leftarrow","leftarrow","rightarrow","leftarrow"],"horizon":5,"forced_choices":["rightarrow","leftarrow","leftarrow","rightarrow"],"right_color":"lightblue","left_color":"orange","left_mu":60,"right_mu":80,"left_numbers":[63,56,59,65,60],"right_numbers":[95,77,82,68,91],"points_earned":338,"phase":"task","trial_type":"horizons-task","trial_index":21,"time_elapsed":262946,"internal_node_id":"0.0-17.0","task_version":"0.2"},{"response_times":[411,776,383,433,432],"keys_pressed":["rightarrow","rightarrow","leftarrow","rightarrow","leftarrow"],"horizon":5,"forced_choices":["rightarrow","rightarrow","leftarrow","rightarrow"],"right_color":"lightblue","left_color":"orange","left_mu":40,"right_mu":32,"left_numbers":[37,34,41,46,38],"right_numbers":[41,22,26,26,33],"points_earned":168,"phase":"task","trial_type":"horizons-task","trial_index":22,"time_elapsed":266882,"internal_node_id":"0.0-18.0","task_version":"0.2"},{"response_times":[422,369,424,448,359],"keys_pressed":["leftarrow","rightarrow","leftarrow","leftarrow","leftarrow"],"horizon":5,"forced_choices":["leftarrow","rightarrow","leftarrow","leftarrow"],"right_color":"lightblue","left_color":"orange","left_mu":60,"right_mu":64,"left_numbers":[61,50,61,56,64],"right_numbers":[61,43,67,68,78],"points_earned":285,"phase":"task","trial_type":"horizons-task","trial_index":23,"time_elapsed":270410,"internal_node_id":"0.0-19.0","task_version":"0.2"},{"response_times":[458,399,625,487,369],"keys_pressed":["leftarrow","rightarrow","rightarrow","rightarrow","leftarrow"],"horizon":5,"forced_choices":["leftarrow","rightarrow","rightarrow","rightarrow"],"right_color":"orange","left_color":"lightblue","left_mu":60,"right_mu":30,"left_numbers":[53,73,66,60,48],"right_numbers":[41,27,26,29,36],"points_earned":183,"phase":"task","trial_type":"horizons-task","trial_index":24,"time_elapsed":274249,"internal_node_id":"0.0-20.0","task_version":"0.2"},{"response_times":[482,425,416,448,471,16,417,15,417,16],"keys_pressed":["rightarrow","leftarrow","rightarrow","leftarrow","leftarrow","rightarrow","leftarrow","rightarrow","rightarrow","leftarrow"],"horizon":10,"forced_choices":["rightarrow","leftarrow","rightarrow","leftarrow"],"right_color":"lightblue","left_color":"orange","left_mu":40,"right_mu":36,"left_numbers":[43,36,34,37,43,39,39,33,39,40],"right_numbers":[37,44,42,45,43,38,44,37,46,44],"points_earned":395,"phase":"task","trial_type":"horizons-task","trial_index":25,"time_elapsed":278874,"internal_node_id":"0.0-21.0","task_version":"0.2"},{"response_times":[458,408,416,641,399],"keys_pressed":["rightarrow","leftarrow","rightarrow","rightarrow","leftarrow"],"horizon":5,"forced_choices":["rightarrow","leftarrow","rightarrow","rightarrow"],"right_color":"lightblue","left_color":"orange","left_mu":60,"right_mu":68,"left_numbers":[38,48,68,58,51],"right_numbers":[60,72,76,67,55],"points_earned":302,"phase":"task","trial_type":"horizons-task","trial_index":26,"time_elapsed":282698,"internal_node_id":"0.0-22.0","task_version":"0.2"},{"response_times":[386,521,367,600,440],"keys_pressed":["leftarrow","leftarrow","rightarrow","rightarrow","leftarrow"],"horizon":5,"forced_choices":["leftarrow","leftarrow","rightarrow","rightarrow"],"right_color":"orange","left_color":"lightblue","left_mu":60,"right_mu":90,"left_numbers":[68,69,73,54,47],"right_numbers":[76,91,88,91,70],"points_earned":363,"phase":"task","trial_type":"horizons-task","trial_index":27,"time_elapsed":286514,"internal_node_id":"0.0-23.0","task_version":"0.2"},{"response_times":[474,360,440,448,504,40,408,8,432,56],"keys_pressed":["leftarrow","rightarrow","leftarrow","rightarrow","leftarrow","rightarrow","leftarrow","rightarrow","rightarrow","leftarrow"],"horizon":10,"forced_choices":["leftarrow","rightarrow","leftarrow","rightarrow"],"right_color":"orange","left_color":"lightblue","left_mu":60,"right_mu":30,"left_numbers":[53,64,69,69,69,64,59,60,63,54],"right_numbers":[39,7,12,17,26,26,19,29,24,35],"points_earned":407,"phase":"task","trial_type":"horizons-task","trial_index":28,"time_elapsed":291185,"internal_node_id":"0.0-24.0","task_version":"0.2"},{"response_times":[683,392,479,688,400],"keys_pressed":["leftarrow","rightarrow","rightarrow","rightarrow","leftarrow"],"horizon":5,"forced_choices":["leftarrow","rightarrow","rightarrow","rightarrow"],"right_color":"orange","left_color":"lightblue","left_mu":40,"right_mu":10,"left_numbers":[51,31,37,32,52],"right_numbers":[9,25,13,22,20],"points_earned":163,"phase":"task","trial_type":"horizons-task","trial_index":29,"time_elapsed":295329,"internal_node_id":"0.0-25.0","task_version":"0.2"},{"response_times":[442,479,448,409,495],"keys_pressed":["leftarrow","leftarrow","leftarrow","rightarrow","leftarrow"],"horizon":5,"forced_choices":["leftarrow","leftarrow","leftarrow","rightarrow"],"right_color":"lightblue","left_color":"orange","left_mu":60,"right_mu":72,"left_numbers":[78,76,68,54,64],"right_numbers":[70,74,52,79,69],"points_earned":365,"phase":"task","trial_type":"horizons-task","trial_index":30,"time_elapsed":299105,"internal_node_id":"0.0-26.0","task_version":"0.2"},{"response_times":[449,449,439,488,464,9,423,41,400,32],"keys_pressed":["leftarrow","rightarrow","leftarrow","leftarrow","rightarrow","leftarrow","leftarrow","rightarrow","leftarrow","rightarrow"],"horizon":10,"forced_choices":["leftarrow","rightarrow","leftarrow","leftarrow"],"right_color":"lightblue","left_color":"orange","left_mu":60,"right_mu":64,"left_numbers":[50,51,57,46,60,52,54,64,66,61],"right_numbers":[62,56,72,70,61,85,72,67,66,77],"points_earned":586,"phase":"task","trial_type":"horizons-task","trial_index":31,"time_elapsed":303801,"internal_node_id":"0.0-27.0","task_version":"0.2"},{"response_times":[530,376,575,376,511,8,432,24,360,24],"keys_pressed":["rightarrow","leftarrow","leftarrow","rightarrow","leftarrow","rightarrow","leftarrow","rightarrow","leftarrow","rightarrow"],"horizon":10,"forced_choices":["rightarrow","leftarrow","leftarrow","rightarrow"],"right_color":"lightblue","left_color":"orange","left_mu":40,"right_mu":44,"left_numbers":[42,31,31,50,36,33,36,33,45,20],"right_numbers":[62,35,49,42,38,39,58,57,35,38],"points_earned":417,"phase":"task","trial_type":"horizons-task","trial_index":32,"time_elapsed":308520,"internal_node_id":"0.0-28.0","task_version":"0.2"},{"response_times":[456,600,424,473,400],"keys_pressed":["rightarrow","rightarrow","leftarrow","leftarrow","rightarrow"],"horizon":5,"forced_choices":["rightarrow","rightarrow","leftarrow","leftarrow"],"right_color":"lightblue","left_color":"orange","left_mu":40,"right_mu":32,"left_numbers":[23,44,57,35,36],"right_numbers":[28,37,40,17,39],"points_earned":196,"phase":"task","trial_type":"horizons-task","trial_index":33,"time_elapsed":312377,"internal_node_id":"0.0-29.0","task_version":"0.2"},{"response_times":[458,471,448,400,376],"keys_pressed":["leftarrow","rightarrow","leftarrow","rightarrow","leftarrow"],"horizon":5,"forced_choices":["leftarrow","rightarrow","leftarrow","rightarrow"],"right_color":"orange","left_color":"lightblue","left_mu":60,"right_mu":52,"left_numbers":[63,66,63,56,66],"right_numbers":[57,38,57,45,51],"points_earned":275,"phase":"task","trial_type":"horizons-task","trial_index":34,"time_elapsed":316032,"internal_node_id":"0.0-30.0","task_version":"0.2"},{"response_times":[395,352,416,496,440,14,418,29,339,24],"keys_pressed":["leftarrow","rightarrow","leftarrow","leftarrow","leftarrow","rightarrow","leftarrow","rightarrow","leftarrow","rightarrow"],"horizon":10,"forced_choices":["leftarrow","rightarrow","leftarrow","leftarrow"],"right_color":"lightblue","left_color":"orange","left_mu":40,"right_mu":70,"left_numbers":[43,36,23,33,31,34,33,38,35,33],"right_numbers":[70,59,50,76,63,62,64,72,70,61],"points_earned":452,"phase":"task","trial_type":"horizons-task","trial_index":35,"time_elapsed":320456,"internal_node_id":"0.0-31.0","task_version":"0.2"},{"response_times":[474,408,368,568,432,16,448,17,447,16],"keys_pressed":["leftarrow","leftarrow","rightarrow","rightarrow","leftarrow","rightarrow","leftarrow","rightarrow","rightarrow","leftarrow"],"horizon":10,"forced_choices":["leftarrow","leftarrow","rightarrow","rightarrow"],"right_color":"orange","left_color":"lightblue","left_mu":40,"right_mu":52,"left_numbers":[47,41,38,36,46,34,36,38,50,52],"right_numbers":[44,52,55,50,54,60,39,42,46,47],"points_earned":475,"phase":"task","trial_type":"horizons-task","trial_index":36,"time_elapsed":325153,"internal_node_id":"0.0-32.0","task_version":"0.2"},{"response_times":[450,544,360,416,440],"keys_pressed":["leftarrow","leftarrow","rightarrow","leftarrow","leftarrow"],"horizon":5,"forced_choices":["leftarrow","leftarrow","rightarrow","leftarrow"],"right_color":"orange","left_color":"lightblue","left_mu":60,"right_mu":48,"left_numbers":[43,61,62,51,57],"right_numbers":[49,42,45,53,54],"points_earned":257,"phase":"task","trial_type":"horizons-task","trial_index":37,"time_elapsed":328864,"internal_node_id":"0.0-33.0","task_version":"0.2"},{"response_times":[498,1207,1160,511,456,24,416,16,425,15],"keys_pressed":["rightarrow","rightarrow","leftarrow","leftarrow","leftarrow","rightarrow","leftarrow","rightarrow","leftarrow","rightarrow"],"horizon":10,"forced_choices":["rightarrow","rightarrow","leftarrow","leftarrow"],"right_color":"lightblue","left_color":"orange","left_mu":40,"right_mu":32,"left_numbers":[38,33,31,46,36,24,51,41,47,23],"right_numbers":[35,25,33,36,40,27,2,21,27,29],"points_earned":348,"phase":"task","trial_type":"horizons-task","trial_index":38,"time_elapsed":335095,"internal_node_id":"0.0-34.0","task_version":"0.2"},{"response_times":[444,384,455,409,456],"keys_pressed":["rightarrow","leftarrow","leftarrow","rightarrow","leftarrow"],"horizon":5,"forced_choices":["rightarrow","leftarrow","leftarrow","rightarrow"],"right_color":"orange","left_color":"lightblue","left_mu":40,"right_mu":60,"left_numbers":[36,47,45,38,51],"right_numbers":[62,55,71,71,87],"points_earned":276,"phase":"task","trial_type":"horizons-task","trial_index":39,"time_elapsed":338743,"internal_node_id":"0.0-35.0","task_version":"0.2"},{"response_times":[442,384,552,392,432,16,408,2,381,8],"keys_pressed":["rightarrow","leftarrow","leftarrow","rightarrow","leftarrow","rightarrow","leftarrow","rightarrow","leftarrow","rightarrow"],"horizon":10,"forced_choices":["rightarrow","leftarrow","leftarrow","rightarrow"],"right_color":"lightblue","left_color":"orange","left_mu":60,"right_mu":80,"left_numbers":[67,56,66,63,64,60,75,61,48,75],"right_numbers":[89,87,73,88,77,66,84,75,61,72],"points_earned":699,"phase":"task","trial_type":"horizons-task","trial_index":40,"time_elapsed":343263,"internal_node_id":"0.0-36.0","task_version":"0.2"},{"response_times":[474,384,408,416,399],"keys_pressed":["leftarrow","rightarrow","leftarrow","rightarrow","leftarrow"],"horizon":5,"forced_choices":["leftarrow","rightarrow","leftarrow","rightarrow"],"right_color":"orange","left_color":"lightblue","left_mu":60,"right_mu":30,"left_numbers":[57,53,49,76,73],"right_numbers":[22,29,40,19,23],"points_earned":227,"phase":"task","trial_type":"horizons-task","trial_index":41,"time_elapsed":346848,"internal_node_id":"0.0-37.0","task_version":"0.2"},{"response_times":[385,433,375,408,376],"keys_pressed":["leftarrow","leftarrow","rightarrow","leftarrow","leftarrow"],"horizon":5,"forced_choices":["leftarrow","leftarrow","rightarrow","leftarrow"],"right_color":"orange","left_color":"lightblue","left_mu":40,"right_mu":60,"left_numbers":[28,34,36,23,41],"right_numbers":[48,66,48,62,60],"points_earned":174,"phase":"task","trial_type":"horizons-task","trial_index":42,"time_elapsed":350326,"internal_node_id":"0.0-38.0","task_version":"0.2"},{"response_times":[410,360,464,816,375],"keys_pressed":["rightarrow","leftarrow","leftarrow","leftarrow","rightarrow"],"horizon":5,"forced_choices":["rightarrow","leftarrow","leftarrow","leftarrow"],"right_color":"orange","left_color":"lightblue","left_mu":60,"right_mu":90,"left_numbers":[52,49,55,74,65],"right_numbers":[88,99,80,98,80],"points_earned":346,"phase":"task","trial_type":"horizons-task","trial_index":43,"time_elapsed":354255,"internal_node_id":"0.0-39.0","task_version":"0.2"},{"response_times":[362,473,352,432,384],"keys_pressed":["leftarrow","leftarrow","rightarrow","leftarrow","rightarrow"],"horizon":5,"forced_choices":["leftarrow","leftarrow","rightarrow","leftarrow"],"right_color":"orange","left_color":"lightblue","left_mu":60,"right_mu":56,"left_numbers":[49,81,56,58,57],"right_numbers":[63,49,62,42,76],"points_earned":326,"phase":"task","trial_type":"horizons-task","trial_index":44,"time_elapsed":357759,"internal_node_id":"0.0-40.0","task_version":"0.2"},{"response_times":[449,416,456,408,513,14,417,17,368,7],"keys_pressed":["rightarrow","rightarrow","rightarrow","leftarrow","leftarrow","rightarrow","leftarrow","rightarrow","leftarrow","rightarrow"],"horizon":10,"forced_choices":["rightarrow","rightarrow","rightarrow","leftarrow"],"right_color":"lightblue","left_color":"orange","left_mu":40,"right_mu":20,"left_numbers":[34,44,41,49,40,33,29,39,43,44],"right_numbers":[16,25,15,11,7,16,29,17,16,17],"points_earned":267,"phase":"task","trial_type":"horizons-task","trial_index":45,"time_elapsed":362327,"internal_node_id":"0.0-41.0","task_version":"0.2"},{"response_times":[449,392,656,384,432],"keys_pressed":["leftarrow","rightarrow","rightarrow","leftarrow","leftarrow"],"horizon":5,"forced_choices":["leftarrow","rightarrow","rightarrow","leftarrow"],"right_color":"orange","left_color":"lightblue","left_mu":60,"right_mu":48,"left_numbers":[52,61,62,39,62],"right_numbers":[47,38,49,44,47],"points_earned":240,"phase":"task","trial_type":"horizons-task","trial_index":46,"time_elapsed":366143,"internal_node_id":"0.0-42.0","task_version":"0.2"},{"response_times":[442,400,424,344,480,16,400,32,352,64],"keys_pressed":["leftarrow","leftarrow","leftarrow","rightarrow","leftarrow","rightarrow","leftarrow","rightarrow","leftarrow","rightarrow"],"horizon":10,"forced_choices":["leftarrow","leftarrow","leftarrow","rightarrow"],"right_color":"lightblue","left_color":"orange","left_mu":60,"right_mu":72,"left_numbers":[65,62,47,63,73,43,47,74,65,54],"right_numbers":[85,75,67,91,83,76,81,67,75,43],"points_earned":636,"phase":"task","trial_type":"horizons-task","trial_index":47,"time_elapsed":370598,"internal_node_id":"0.0-43.0","task_version":"0.2"},{"response_times":[538,368,432,384,15],"keys_pressed":["leftarrow","rightarrow","rightarrow","leftarrow","rightarrow"],"horizon":5,"forced_choices":["leftarrow","rightarrow","rightarrow","leftarrow"],"right_color":"lightblue","left_color":"orange","left_mu":60,"right_mu":68,"left_numbers":[54,71,47,66,68],"right_numbers":[66,68,66,72,84],"points_earned":338,"phase":"task","trial_type":"horizons-task","trial_index":48,"time_elapsed":373836,"internal_node_id":"0.0-44.0","task_version":"0.2"},{"response_times":[620,511,449,361,456],"keys_pressed":["leftarrow","leftarrow","leftarrow","rightarrow","leftarrow"],"horizon":5,"forced_choices":["leftarrow","leftarrow","leftarrow","rightarrow"],"right_color":"lightblue","left_color":"orange","left_mu":60,"right_mu":80,"left_numbers":[59,69,43,63,63],"right_numbers":[81,85,76,79,83],"points_earned":313,"phase":"task","trial_type":"horizons-task","trial_index":49,"time_elapsed":377735,"internal_node_id":"0.0-45.0","task_version":"0.2"},{"response_times":[561,528,504,415,377],"keys_pressed":["rightarrow","rightarrow","leftarrow","rightarrow","leftarrow"],"horizon":5,"forced_choices":["rightarrow","rightarrow","leftarrow","rightarrow"],"right_color":"orange","left_color":"lightblue","left_mu":60,"right_mu":40,"left_numbers":[76,59,63,60,59],"right_numbers":[32,36,26,41,40],"points_earned":231,"phase":"task","trial_type":"horizons-task","trial_index":50,"time_elapsed":381622,"internal_node_id":"0.0-46.0","task_version":"0.2"},{"view_history":"[{\"page_index\":0,\"viewing_time\":2213},{\"page_index\":1,\"viewing_time\":1209}]","rt":3422,"trial_type":"instructions","trial_index":51,"time_elapsed":385044,"internal_node_id":"0.0-47.0","task_version":"0.2"},{"response_times":[1078,496,392,432,441,16,399,17,359,24],"keys_pressed":["leftarrow","leftarrow","rightarrow","leftarrow","leftarrow","rightarrow","leftarrow","rightarrow","leftarrow","rightarrow"],"horizon":10,"forced_choices":["leftarrow","leftarrow","rightarrow","leftarrow"],"right_color":"orange","left_color":"lightblue","left_mu":60,"right_mu":48,"left_numbers":[56,67,70,58,57,54,59,53,53,45],"right_numbers":[42,50,37,38,43,57,58,36,49,66],"points_earned":546,"phase":"task","trial_type":"horizons-task","trial_index":52,"time_elapsed":390206,"internal_node_id":"0.0-48.0","task_version":"0.2"},{"response_times":[426,400,448,368,432,24,432,16,369,7],"keys_pressed":["rightarrow","leftarrow","leftarrow","rightarrow","leftarrow","rightarrow","leftarrow","rightarrow","leftarrow","rightarrow"],"horizon":10,"forced_choices":["rightarrow","leftarrow","leftarrow","rightarrow"],"right_color":"orange","left_color":"lightblue","left_mu":60,"right_mu":40,"left_numbers":[56,53,54,52,63,51,49,69,58,61],"right_numbers":[47,60,32,38,40,37,47,51,37,59],"points_earned":509,"phase":"task","trial_type":"horizons-task","trial_index":53,"time_elapsed":394629,"internal_node_id":"0.0-49.0","task_version":"0.2"},{"response_times":[474,384,369,455,392],"keys_pressed":["rightarrow","leftarrow","rightarrow","leftarrow","leftarrow"],"horizon":5,"forced_choices":["rightarrow","leftarrow","rightarrow","leftarrow"],"right_color":"orange","left_color":"lightblue","left_mu":40,"right_mu":28,"left_numbers":[47,38,40,28,41],"right_numbers":[13,39,25,31,33],"points_earned":145,"phase":"task","trial_type":"horizons-task","trial_index":54,"time_elapsed":398205,"internal_node_id":"0.0-50.0","task_version":"0.2"},{"response_times":[434,568,400,496,400],"keys_pressed":["rightarrow","rightarrow","leftarrow","leftarrow","rightarrow"],"horizon":5,"forced_choices":["rightarrow","rightarrow","leftarrow","leftarrow"],"right_color":"lightblue","left_color":"orange","left_mu":60,"right_mu":72,"left_numbers":[52,54,51,63,55],"right_numbers":[73,63,85,72,62],"points_earned":312,"phase":"task","trial_type":"horizons-task","trial_index":55,"time_elapsed":402005,"internal_node_id":"0.0-51.0","task_version":"0.2"},{"response_times":[427,424,384,559,392,80,440,16,479,17],"keys_pressed":["rightarrow","leftarrow","rightarrow","rightarrow","leftarrow","rightarrow","rightarrow","leftarrow","rightarrow","leftarrow"],"horizon":10,"forced_choices":["rightarrow","leftarrow","rightarrow","rightarrow"],"right_color":"lightblue","left_color":"orange","left_mu":40,"right_mu":36,"left_numbers":[41,40,54,32,40,46,46,41,48,35],"right_numbers":[42,43,35,29,37,63,27,33,31,27],"points_earned":383,"phase":"task","trial_type":"horizons-task","trial_index":56,"time_elapsed":406725,"internal_node_id":"0.0-52.0","task_version":"0.2"},{"response_times":[507,399,488,537,847,24,1055,17,424,32],"keys_pressed":["rightarrow","leftarrow","rightarrow","leftarrow","leftarrow","rightarrow","leftarrow","rightarrow","rightarrow","leftarrow"],"horizon":10,"forced_choices":["rightarrow","leftarrow","rightarrow","leftarrow"],"right_color":"orange","left_color":"lightblue","left_mu":40,"right_mu":28,"left_numbers":[36,27,32,31,49,32,43,38,42,43],"right_numbers":[22,28,34,32,36,16,36,11,34,26],"points_earned":310,"phase":"task","trial_type":"horizons-task","trial_index":57,"time_elapsed":412557,"internal_node_id":"0.0-53.0","task_version":"0.2"},{"response_times":[738,441,767,393,527,17,463,16,416,33],"keys_pressed":["rightarrow","rightarrow","rightarrow","leftarrow","leftarrow","rightarrow","rightarrow","leftarrow","rightarrow","leftarrow"],"horizon":10,"forced_choices":["rightarrow","rightarrow","rightarrow","leftarrow"],"right_color":"orange","left_color":"lightblue","left_mu":40,"right_mu":28,"left_numbers":[37,41,50,41,40,19,43,35,32,22],"right_numbers":[38,24,17,34,32,24,22,14,39,14],"points_earned":302,"phase":"task","trial_type":"horizons-task","trial_index":58,"time_elapsed":417868,"internal_node_id":"0.0-54.0","task_version":"0.2"},{"response_times":[402,609,520,511,504,24,488,17,383,25],"keys_pressed":["rightarrow","rightarrow","leftarrow","leftarrow","leftarrow","rightarrow","rightarrow","leftarrow","rightarrow","leftarrow"],"horizon":10,"forced_choices":["rightarrow","rightarrow","leftarrow","leftarrow"],"right_color":"lightblue","left_color":"orange","left_mu":60,"right_mu":72,"left_numbers":[49,55,61,62,50,56,61,70,58,65],"right_numbers":[74,89,68,73,90,76,80,64,60,82],"points_earned":687,"phase":"task","trial_type":"horizons-task","trial_index":59,"time_elapsed":422853,"internal_node_id":"0.0-55.0","task_version":"0.2"},{"response_times":[482,424,400,576,472,24,496,14,458,16],"keys_pressed":["leftarrow","rightarrow","rightarrow","rightarrow","leftarrow","rightarrow","rightarrow","leftarrow","leftarrow","rightarrow"],"horizon":10,"forced_choices":["leftarrow","rightarrow","rightarrow","rightarrow"],"right_color":"lightblue","left_color":"orange","left_mu":40,"right_mu":48,"left_numbers":[35,41,49,57,54,32,45,41,34,35],"right_numbers":[49,29,52,52,49,31,50,47,40,49],"points_earned":427,"phase":"task","trial_type":"horizons-task","trial_index":60,"time_elapsed":427717,"internal_node_id":"0.0-56.0","task_version":"0.2"},{"response_times":[450,480,592,472,504,8,440,48,455,15],"keys_pressed":["rightarrow","leftarrow","leftarrow","leftarrow","rightarrow","leftarrow","leftarrow","rightarrow","leftarrow","rightarrow"],"horizon":10,"forced_choices":["rightarrow","leftarrow","leftarrow","leftarrow"],"right_color":"orange","left_color":"lightblue","left_mu":60,"right_mu":90,"left_numbers":[63,61,54,55,64,55,58,42,57,42],"right_numbers":[95,86,83,90,98,87,96,74,87,99],"points_earned":706,"phase":"task","trial_type":"horizons-task","trial_index":61,"time_elapsed":432683,"internal_node_id":"0.0-57.0","task_version":"0.2"},{"response_times":[667,433,464,535,607,40,440,56,415,25],"keys_pressed":["leftarrow","rightarrow","rightarrow","rightarrow","leftarrow","rightarrow","leftarrow","rightarrow","leftarrow","rightarrow"],"horizon":10,"forced_choices":["leftarrow","rightarrow","rightarrow","rightarrow"],"right_color":"orange","left_color":"lightblue","left_mu":40,"right_mu":10,"left_numbers":[51,43,24,25,55,40,39,42,25,39],"right_numbers":[14,9,10,0,16,6,22,11,22,20],"points_earned":226,"phase":"task","trial_type":"horizons-task","trial_index":62,"time_elapsed":437868,"internal_node_id":"0.0-58.0","task_version":"0.2"},{"response_times":[530,465,424,423,457],"keys_pressed":["leftarrow","rightarrow","rightarrow","leftarrow","leftarrow"],"horizon":5,"forced_choices":["leftarrow","rightarrow","rightarrow","leftarrow"],"right_color":"orange","left_color":"lightblue","left_mu":60,"right_mu":56,"left_numbers":[59,57,50,54,61],"right_numbers":[52,68,51,59,56],"points_earned":293,"phase":"task","trial_type":"horizons-task","trial_index":63,"time_elapsed":441668,"internal_node_id":"0.0-59.0","task_version":"0.2"},{"response_times":[538,423,416,392,496,24,393,13,419,15],"keys_pressed":["leftarrow","rightarrow","rightarrow","leftarrow","leftarrow","rightarrow","leftarrow","rightarrow","leftarrow","rightarrow"],"horizon":10,"forced_choices":["leftarrow","rightarrow","rightarrow","leftarrow"],"right_color":"orange","left_color":"lightblue","left_mu":60,"right_mu":48,"left_numbers":[74,69,50,66,57,54,73,55,66,64],"right_numbers":[38,49,42,43,45,61,51,39,35,41],"points_earned":568,"phase":"task","trial_type":"horizons-task","trial_index":64,"time_elapsed":446300,"internal_node_id":"0.0-60.0","task_version":"0.2"},{"response_times":[698,695,537,568,495],"keys_pressed":["leftarrow","leftarrow","rightarrow","rightarrow","leftarrow"],"horizon":5,"forced_choices":["leftarrow","leftarrow","rightarrow","rightarrow"],"right_color":"orange","left_color":"lightblue","left_mu":40,"right_mu":52,"left_numbers":[46,28,37,53,35],"right_numbers":[47,46,44,46,49],"points_earned":199,"phase":"task","trial_type":"horizons-task","trial_index":65,"time_elapsed":450796,"internal_node_id":"0.0-61.0","task_version":"0.2"},{"response_times":[559,423,752,448,504],"keys_pressed":["rightarrow","leftarrow","leftarrow","rightarrow","leftarrow"],"horizon":5,"forced_choices":["rightarrow","leftarrow","leftarrow","rightarrow"],"right_color":"orange","left_color":"lightblue","left_mu":60,"right_mu":40,"left_numbers":[56,59,61,59,49],"right_numbers":[53,41,37,39,33],"points_earned":261,"phase":"task","trial_type":"horizons-task","trial_index":66,"time_elapsed":454989,"internal_node_id":"0.0-62.0","task_version":"0.2"},{"response_times":[553,464,512,567,473],"keys_pressed":["rightarrow","leftarrow","leftarrow","leftarrow","leftarrow"],"horizon":5,"forced_choices":["rightarrow","leftarrow","leftarrow","leftarrow"],"right_color":"lightblue","left_color":"orange","left_mu":40,"right_mu":44,"left_numbers":[37,24,47,54,39],"right_numbers":[49,48,44,36,43],"points_earned":213,"phase":"task","trial_type":"horizons-task","trial_index":67,"time_elapsed":459058,"internal_node_id":"0.0-63.0","task_version":"0.2"},{"response_times":[587,456,456,528,440],"keys_pressed":["leftarrow","rightarrow","leftarrow","leftarrow","leftarrow"],"horizon":5,"forced_choices":["leftarrow","rightarrow","leftarrow","leftarrow"],"right_color":"lightblue","left_color":"orange","left_mu":40,"right_mu":70,"left_numbers":[35,39,36,34,42],"right_numbers":[83,59,79,84,47],"points_earned":206,"phase":"task","trial_type":"horizons-task","trial_index":68,"time_elapsed":463027,"internal_node_id":"0.0-64.0","task_version":"0.2"},{"response_times":[554,496,417,688,439,17,464,14,441,14],"keys_pressed":["leftarrow","leftarrow","rightarrow","rightarrow","leftarrow","rightarrow","leftarrow","rightarrow","leftarrow","rightarrow"],"horizon":10,"forced_choices":["leftarrow","leftarrow","rightarrow","rightarrow"],"right_color":"lightblue","left_color":"orange","left_mu":40,"right_mu":70,"left_numbers":[35,46,24,43,47,39,61,15,34,39],"right_numbers":[68,67,64,68,66,75,70,76,64,61],"points_earned":567,"phase":"task","trial_type":"horizons-task","trial_index":69,"time_elapsed":468073,"internal_node_id":"0.0-65.0","task_version":"0.2"},{"response_times":[580,625,472,455,520,17,439,9,455,1],"keys_pressed":["leftarrow","rightarrow","rightarrow","leftarrow","leftarrow","rightarrow","rightarrow","leftarrow","leftarrow","rightarrow"],"horizon":10,"forced_choices":["leftarrow","rightarrow","rightarrow","leftarrow"],"right_color":"lightblue","left_color":"orange","left_mu":60,"right_mu":68,"left_numbers":[53,60,50,58,78,71,64,45,60,65],"right_numbers":[76,73,79,61,70,64,61,60,61,71],"points_earned":642,"phase":"task","trial_type":"horizons-task","trial_index":70,"time_elapsed":473149,"internal_node_id":"0.0-66.0","task_version":"0.2"},{"response_times":[688,536,1176,800,504,9,431,14,410,15],"keys_pressed":["rightarrow","leftarrow","leftarrow","rightarrow","leftarrow","rightarrow","leftarrow","rightarrow","leftarrow","rightarrow"],"horizon":10,"forced_choices":["rightarrow","leftarrow","leftarrow","rightarrow"],"right_color":"orange","left_color":"lightblue","left_mu":40,"right_mu":60,"left_numbers":[36,32,49,42,42,35,46,28,42,47],"right_numbers":[46,55,54,63,56,69,63,62,43,65],"points_earned":516,"phase":"task","trial_type":"horizons-task","trial_index":71,"time_elapsed":479233,"internal_node_id":"0.0-67.0","task_version":"0.2"},{"response_times":[715,528,536,488,464,16,464,15,441,16],"keys_pressed":["rightarrow","leftarrow","leftarrow","leftarrow","leftarrow","rightarrow","leftarrow","rightarrow","leftarrow","rightarrow"],"horizon":10,"forced_choices":["rightarrow","leftarrow","leftarrow","leftarrow"],"right_color":"lightblue","left_color":"orange","left_mu":40,"right_mu":44,"left_numbers":[34,32,26,47,35,41,39,34,52,39],"right_numbers":[34,30,44,43,59,48,36,38,39,49],"points_earned":400,"phase":"task","trial_type":"horizons-task","trial_index":72,"time_elapsed":484418,"internal_node_id":"0.0-68.0","task_version":"0.2"},{"response_times":[666,528,536,504,536,15,473,14,434,16],"keys_pressed":["leftarrow","rightarrow","leftarrow","rightarrow","leftarrow","rightarrow","leftarrow","rightarrow","leftarrow","rightarrow"],"horizon":10,"forced_choices":["leftarrow","rightarrow","leftarrow","rightarrow"],"right_color":"lightblue","left_color":"orange","left_mu":60,"right_mu":64,"left_numbers":[69,58,57,66,58,59,49,59,63,57],"right_numbers":[50,56,68,59,56,64,54,58,62,70],"points_earned":603,"phase":"task","trial_type":"horizons-task","trial_index":73,"time_elapsed":489642,"internal_node_id":"0.0-69.0","task_version":"0.2"},{"response_times":[715,504,479,513,488],"keys_pressed":["rightarrow","leftarrow","rightarrow","leftarrow","leftarrow"],"horizon":5,"forced_choices":["rightarrow","leftarrow","rightarrow","leftarrow"],"right_color":"lightblue","left_color":"orange","left_mu":40,"right_mu":48,"left_numbers":[42,48,44,30,35],"right_numbers":[56,50,52,54,33],"points_earned":221,"phase":"task","trial_type":"horizons-task","trial_index":74,"time_elapsed":493842,"internal_node_id":"0.0-70.0","task_version":"0.2"},{"response_times":[554,536,505,520,511,8,471,15,457,15],"keys_pressed":["rightarrow","rightarrow","leftarrow","rightarrow","leftarrow","rightarrow","leftarrow","rightarrow","leftarrow","rightarrow"],"horizon":10,"forced_choices":["rightarrow","rightarrow","leftarrow","rightarrow"],"right_color":"lightblue","left_color":"orange","left_mu":40,"right_mu":32,"left_numbers":[46,28,46,46,38,36,46,46,55,45],"right_numbers":[42,36,36,33,33,34,24,36,29,31],"points_earned":397,"phase":"task","trial_type":"horizons-task","trial_index":75,"time_elapsed":498937,"internal_node_id":"0.0-71.0","task_version":"0.2"},{"response_times":[651,800,543,624,480],"keys_pressed":["leftarrow","rightarrow","rightarrow","rightarrow","leftarrow"],"horizon":5,"forced_choices":["leftarrow","rightarrow","rightarrow","rightarrow"],"right_color":"lightblue","left_color":"orange","left_mu":40,"right_mu":48,"left_numbers":[38,33,42,47,26],"right_numbers":[39,60,52,41,55],"points_earned":217,"phase":"task","trial_type":"horizons-task","trial_index":76,"time_elapsed":503538,"internal_node_id":"0.0-72.0","task_version":"0.2"},{"response_times":[547,511,496,544,504],"keys_pressed":["rightarrow","leftarrow","rightarrow","leftarrow","leftarrow"],"horizon":5,"forced_choices":["rightarrow","leftarrow","rightarrow","leftarrow"],"right_color":"lightblue","left_color":"orange","left_mu":40,"right_mu":36,"left_numbers":[50,45,60,40,29],"right_numbers":[37,31,30,41,30],"points_earned":181,"phase":"task","trial_type":"horizons-task","trial_index":77,"time_elapsed":507641,"internal_node_id":"0.0-73.0","task_version":"0.2"},{"response_times":[618,608,511,545,496],"keys_pressed":["leftarrow","leftarrow","rightarrow","rightarrow","leftarrow"],"horizon":5,"forced_choices":["leftarrow","leftarrow","rightarrow","rightarrow"],"right_color":"lightblue","left_color":"orange","left_mu":40,"right_mu":70,"left_numbers":[43,36,39,36,30],"right_numbers":[73,65,78,69,78],"points_earned":256,"phase":"task","trial_type":"horizons-task","trial_index":78,"time_elapsed":511921,"internal_node_id":"0.0-74.0","task_version":"0.2"},{"response_times":[578,528,520,527,513],"keys_pressed":["rightarrow","rightarrow","leftarrow","rightarrow","rightarrow"],"horizon":5,"forced_choices":["rightarrow","rightarrow","leftarrow","rightarrow"],"right_color":"orange","left_color":"lightblue","left_mu":60,"right_mu":52,"left_numbers":[44,58,46,57,61],"right_numbers":[51,50,54,42,50],"points_earned":239,"phase":"task","trial_type":"horizons-task","trial_index":79,"time_elapsed":516089,"internal_node_id":"0.0-75.0","task_version":"0.2"},{"response_times":[561,472,488,464,472,17,454,16,465,16],"keys_pressed":["leftarrow","rightarrow","rightarrow","rightarrow","leftarrow","rightarrow","leftarrow","rightarrow","leftarrow","rightarrow"],"horizon":10,"forced_choices":["leftarrow","rightarrow","rightarrow","rightarrow"],"right_color":"orange","left_color":"lightblue","left_mu":60,"right_mu":30,"left_numbers":[56,53,64,64,55,58,70,52,58,64],"right_numbers":[39,29,19,40,45,40,37,27,29,33],"points_earned":427,"phase":"task","trial_type":"horizons-task","trial_index":80,"time_elapsed":521018,"internal_node_id":"0.0-76.0","task_version":"0.2"},{"response_times":[539,528,536,511,543],"keys_pressed":["rightarrow","rightarrow","rightarrow","leftarrow","leftarrow"],"horizon":5,"forced_choices":["rightarrow","rightarrow","rightarrow","leftarrow"],"right_color":"orange","left_color":"lightblue","left_mu":40,"right_mu":28,"left_numbers":[44,38,43,35,35],"right_numbers":[28,15,10,33,31],"points_earned":123,"phase":"task","trial_type":"horizons-task","trial_index":81,"time_elapsed":525177,"internal_node_id":"0.0-77.0","task_version":"0.2"},{"response_times":[595,480,481,479,496,8,465,12,466,2],"keys_pressed":["leftarrow","rightarrow","leftarrow","rightarrow","leftarrow","rightarrow","leftarrow","rightarrow","leftarrow","rightarrow"],"horizon":10,"forced_choices":["leftarrow","rightarrow","leftarrow","rightarrow"],"right_color":"orange","left_color":"lightblue","left_mu":60,"right_mu":52,"left_numbers":[62,48,61,50,61,61,69,60,65,64],"right_numbers":[49,45,34,44,52,56,56,50,49,65],"points_earned":578,"phase":"task","trial_type":"horizons-task","trial_index":82,"time_elapsed":530162,"internal_node_id":"0.0-78.0","task_version":"0.2"},{"response_times":[520,447,497,664,559],"keys_pressed":["leftarrow","rightarrow","leftarrow","rightarrow","leftarrow"],"horizon":5,"forced_choices":["leftarrow","rightarrow","leftarrow","rightarrow"],"right_color":"lightblue","left_color":"orange","left_mu":60,"right_mu":64,"left_numbers":[70,71,43,67,64],"right_numbers":[67,68,50,67,68],"points_earned":312,"phase":"task","trial_type":"horizons-task","trial_index":83,"time_elapsed":534352,"internal_node_id":"0.0-79.0","task_version":"0.2"},{"response_times":[585,471,408,407,520,16,415,14,385,16],"keys_pressed":["leftarrow","leftarrow","leftarrow","rightarrow","leftarrow","rightarrow","rightarrow","leftarrow","leftarrow","rightarrow"],"horizon":10,"forced_choices":["leftarrow","leftarrow","leftarrow","rightarrow"],"right_color":"lightblue","left_color":"orange","left_mu":60,"right_mu":80,"left_numbers":[72,77,67,57,61,62,54,64,50,49],"right_numbers":[82,85,91,85,90,75,78,72,85,84],"points_earned":713,"phase":"task","trial_type":"horizons-task","trial_index":84,"time_elapsed":539097,"internal_node_id":"0.0-80.0","task_version":"0.2"},{"response_times":[610,583,409,488,456,24,407,9,360,24],"keys_pressed":["rightarrow","rightarrow","leftarrow","rightarrow","leftarrow","rightarrow","leftarrow","rightarrow","leftarrow","rightarrow"],"horizon":10,"forced_choices":["rightarrow","rightarrow","leftarrow","rightarrow"],"right_color":"orange","left_color":"lightblue","left_mu":60,"right_mu":52,"left_numbers":[70,53,59,70,51,65,55,68,63,46],"right_numbers":[36,37,41,55,51,62,41,42,56,58],"points_earned":518,"phase":"task","trial_type":"horizons-task","trial_index":85,"time_elapsed":543968,"internal_node_id":"0.0-81.0","task_version":"0.2"},{"response_times":[450,471,417,488,463,16,440,14,402,15],"keys_pressed":["rightarrow","rightarrow","leftarrow","leftarrow","leftarrow","rightarrow","leftarrow","rightarrow","leftarrow","rightarrow"],"horizon":10,"forced_choices":["rightarrow","rightarrow","leftarrow","leftarrow"],"right_color":"lightblue","left_color":"orange","left_mu":40,"right_mu":20,"left_numbers":[30,46,44,35,56,45,33,42,39,30],"right_numbers":[15,27,28,22,25,19,22,16,11,33],"points_earned":317,"phase":"task","trial_type":"horizons-task","trial_index":86,"time_elapsed":548648,"internal_node_id":"0.0-82.0","task_version":"0.2"},{"response_times":[554,512,535,520,536],"keys_pressed":["leftarrow","rightarrow","leftarrow","rightarrow","leftarrow"],"horizon":5,"forced_choices":["leftarrow","rightarrow","leftarrow","rightarrow"],"right_color":"orange","left_color":"lightblue","left_mu":40,"right_mu":10,"left_numbers":[46,36,44,47,56],"right_numbers":[21,10,19,15,19],"points_earned":171,"phase":"task","trial_type":"horizons-task","trial_index":87,"time_elapsed":552807,"internal_node_id":"0.0-83.0","task_version":"0.2"},{"response_times":[563,504,519,513,543,16,480,8,465,7],"keys_pressed":["leftarrow","rightarrow","rightarrow","leftarrow","leftarrow","rightarrow","leftarrow","rightarrow","leftarrow","rightarrow"],"horizon":10,"forced_choices":["leftarrow","rightarrow","rightarrow","leftarrow"],"right_color":"orange","left_color":"lightblue","left_mu":60,"right_mu":56,"left_numbers":[66,65,50,54,58,53,70,68,59,52],"right_numbers":[58,70,60,62,41,54,55,52,55,62],"points_earned":605,"phase":"task","trial_type":"horizons-task","trial_index":88,"time_elapsed":557928,"internal_node_id":"0.0-84.0","task_version":"0.2"},{"response_times":[530,544,512,568,528,16,496,2,494,2],"keys_pressed":["leftarrow","rightarrow","leftarrow","rightarrow","leftarrow","rightarrow","leftarrow","rightarrow","leftarrow","rightarrow"],"horizon":10,"forced_choices":["leftarrow","rightarrow","leftarrow","rightarrow"],"right_color":"orange","left_color":"lightblue","left_mu":40,"right_mu":10,"left_numbers":[38,29,34,37,39,41,40,40,32,43],"right_numbers":[6,7,24,0,19,2,3,0,13,12],"points_earned":204,"phase":"task","trial_type":"horizons-task","trial_index":89,"time_elapsed":563122,"internal_node_id":"0.0-85.0","task_version":"0.2"},{"response_times":[632,576,487,552,472],"keys_pressed":["rightarrow","rightarrow","leftarrow","leftarrow","leftarrow"],"horizon":5,"forced_choices":["rightarrow","rightarrow","leftarrow","leftarrow"],"right_color":"lightblue","left_color":"orange","left_mu":40,"right_mu":20,"left_numbers":[35,48,38,32,30],"right_numbers":[33,13,21,18,6],"points_earned":146,"phase":"task","trial_type":"horizons-task","trial_index":90,"time_elapsed":567344,"internal_node_id":"0.0-86.0","task_version":"0.2"},{"response_times":[586,592,503,497,520,18,437,17,408,16],"keys_pressed":["leftarrow","leftarrow","rightarrow","leftarrow","leftarrow","rightarrow","leftarrow","rightarrow","leftarrow","rightarrow"],"horizon":10,"forced_choices":["leftarrow","leftarrow","rightarrow","leftarrow"],"right_color":"orange","left_color":"lightblue","left_mu":40,"right_mu":60,"left_numbers":[42,28,36,39,34,33,39,39,50,38],"right_numbers":[55,55,69,53,66,52,63,56,58,61],"points_earned":470,"phase":"task","trial_type":"horizons-task","trial_index":91,"time_elapsed":572439,"internal_node_id":"0.0-87.0","task_version":"0.2"},{"rt":30272,"responses":{"age":"42","gender-categorical":"Male","gender-free-response":"","ethnicity":"Unknown","race":["White"],"language":"Yes","fluency":"Very well"},"survey":"demographics","trial_type":"survey-demo","trial_index":92,"time_elapsed":602881,"internal_node_id":"0.0-88.0","task_version":"0.2"},{"rt":66903,"responses":{"difficulty":"5","fun":"5","clarity":"5","strategy":"no","feedback":"i dont have any feedback but best of luck with your study"},"survey":"debrief","trial_type":"survey-debrief","trial_index":93,"time_elapsed":669795,"internal_node_id":"0.0-89.0","task_version":"0.2","interactions":"[{\"event\":\"focus\",\"trial\":0,\"time\":0},{\"event\":\"blur\",\"trial\":0,\"time\":851},{\"event\":\"focus\",\"trial\":0,\"time\":7995},{\"event\":\"blur\",\"trial\":1,\"time\":44182},{\"event\":\"focus\",\"trial\":1,\"time\":55831},{\"event\":\"blur\",\"trial\":93,\"time\":618573},{\"event\":\"focus\",\"trial\":93,\"time\":647405}]"}]