[{"view_history":"[{\"page_index\":0,\"viewing_time\":2407.245000009425}]","rt":2407.8900000313297,"trial_type":"instructions","trial_index":0,"time_elapsed":2419,"internal_node_id":"0.0-0.0","task_version":"0.2"},{"item_order":[12,9,15,2,6,0,16,14,4,3,7,8,11,5,13,10,1],"responses":{"Q13":"3","Q10":"4","Q16":"3","Q03":"4","Q07":"3","Q01":"3","Q17":"0","Q15":"3","Q05":"3","Q04":"3","Q08":"3","Q09":"3","Q12":"3","Q06":"3","Q14":"3","Q11":"2","Q02":"2"},"radio_events":[5327.995000057854,7227.294999989681,9559.359999955632,12557.06000002101,14385.909999953583,16657.735000015236,18957.025000010617,26406.145000015385,27944.475000025705,31850.964999990538,32927.15000000317,34643.51500000339,38332.82999997027,41572.039999999106,43032.66499994788,45029.59499997087,46515.41999995243,49337.930000037886,52113.51499997545],"key_events":[],"mouse_events":[0.17500005196779966,3937.9650000482798,5327.995000057854,7227.294999989681,9559.359999955632,12557.06000002101,14385.909999953583,16657.735000015236,18957.025000010617,25092.24499994889,26406.145000015385,27944.475000025705,30140.8250000095,31850.964999990538,32927.15000000317,34643.51500000339,38332.82999997027,41572.039999999106,43032.66499994788,45029.59499997087,46515.41999995243,49337.930000037886,52113.51499997545,53242.18000005931],"rt":53249.279999989085,"survey":"pswq","trial_type":"survey-template","trial_index":1,"time_elapsed":55679,"internal_node_id":"0.0-1.0","task_version":"0.2"},{"item_order":[7,2,3,10,0,8,1,9,12,4,6,11,5],"responses":{"Q08":"2","Q03":"1","Q04":"2","Q11":"2","Q01":"2","Q09":"2","Q02":"3","Q10":"2","Q13":"4","Q05":"2","Q07":"2","Q12":"2","Q06":"3"},"radio_events":[6887.400000006892,9179.559999960475,15568.360000033863,17219.494999968447,20185.664999997243,25350.67000007257,28037.394999992102,31782.175000058487,33839.02499999385,39414.52500002924,41306.22999998741,44017.379999975674,48452.385000069626],"key_events":[],"mouse_events":[6887.400000006892,9179.559999960475,15568.360000033863,17219.494999968447,20185.664999997243,25350.67000007257,28037.394999992102,31782.175000058487,33839.02499999385,39414.52500002924,41306.22999998741,44017.379999975674,48452.385000069626,49277.26000000257],"rt":49282.385000027716,"survey":"ius12","trial_type":"survey-template","trial_index":2,"time_elapsed":104970,"internal_node_id":"0.0-2.0","task_version":"0.2"},{"item_order":[0,9,11,13,8,7,14,10,5,12,3,6,1,15,2,4],"responses":{"Q01":"4","Q10":"2","Q12":"1","Q14":"0","Q09":"3","Q08":"4","Q15":"3","Q11":"3","Q06":"3","Q13":"3","Q04":"3","Q07":"3","Q02":"1","Q16":"5","Q03":"2","Q05":"3"},"radio_events":[3566.9350000098348,7519.564999965951,12293.754999991506,15736.09999998007,19585.964999976568,25910.434999968857,28966.55000001192,31425.479999976233,78364.79500005953,81768.29000003636,83992.28500004392,89010.97499998286,90578.8950000424,94562.96000001021,97339.57000006922,104517.71000004373,107975.89000000153],"key_events":[],"mouse_events":[3566.9350000098348,7519.564999965951,10390.959999989718,12293.754999991506,15736.09999998007,19585.964999976568,23411.13000002224,25013.279999955557,25910.434999968857,28966.55000001192,31425.479999976233,78364.79500005953,81768.29000003636,83992.28500004392,89010.97499998286,90578.8950000424,94562.96000001021,97339.57000006922,104517.71000004373,107975.89000000153,109112.0949999895],"rt":109118.60499996692,"survey":"nfc","trial_type":"survey-template","trial_index":3,"time_elapsed":214098,"internal_node_id":"0.0-3.0","task_version":"0.2"},{"view_history":"[{\"page_index\":0,\"viewing_time\":4044.084999943152},{\"page_index\":1,\"viewing_time\":5107.360000023618},{\"page_index\":2,\"viewing_time\":10740.940000046976},{\"page_index\":3,\"viewing_time\":6783.174999989569},{\"page_index\":4,\"viewing_time\":7759.6449999837205},{\"page_index\":5,\"viewing_time\":2549.3749999441206},{\"page_index\":6,\"viewing_time\":4084.1850000433624},{\"page_index\":7,\"viewing_time\":5709.580000024289},{\"page_index\":8,\"viewing_time\":7304.579999996349},{\"page_index\":9,\"viewing_time\":5709.414999932051}]","rt":59792.87000000477,"trial_type":"instructions","trial_index":4,"time_elapsed":273893,"internal_node_id":"0.0-4.0-0.0","task_version":"0.2"},{"response_times":[1157.6249999925494,612.3949999455363,978.440000093542,712.6299999654293,2738.690000027418],"keys_pressed":["rightarrow","leftarrow","rightarrow","rightarrow","leftarrow"],"horizon":5,"forced_choices":["rightarrow","leftarrow","rightarrow","rightarrow"],"right_color":"lightblue","left_color":"orange","left_mu":40,"right_mu":20,"left_numbers":[36,47,30,53,40],"right_numbers":[31,14,31,9,0],"points_earned":158,"phase":"practice","trial_type":"horizons-task","trial_index":5,"time_elapsed":281616,"internal_node_id":"0.0-4.0-1.0","task_version":"0.2"},{"response_times":[1017.104999977164,769.4200000260025,1021.6099999379367,730.6450000032783,4967.485000030138,1543.1899999966845,1806.5750000532717,2415.374999982305,1012.4000000068918,720.5899999244139],"keys_pressed":["leftarrow","leftarrow","rightarrow","rightarrow","leftarrow","rightarrow","leftarrow","leftarrow","rightarrow","leftarrow"],"horizon":10,"forced_choices":["leftarrow","leftarrow","rightarrow","rightarrow"],"right_color":"orange","left_color":"lightblue","left_mu":60,"right_mu":70,"left_numbers":[57,86,66,63,60,61,70,51,50,56],"right_numbers":[79,71,75,72,68,69,60,76,83,62],"points_earned":679,"phase":"practice","trial_type":"horizons-task","trial_index":6,"time_elapsed":299125,"internal_node_id":"0.0-4.0-2.0","task_version":"0.2"},{"view_history":"[{\"page_index\":0,\"viewing_time\":2178.3500000601634},{\"page_index\":1,\"viewing_time\":2899.159999913536},{\"page_index\":2,\"viewing_time\":3014.820000040345},{\"page_index\":3,\"viewing_time\":2191.1150000523776}]","rt":10283.930000034161,"trial_type":"instructions","trial_index":7,"time_elapsed":309410,"internal_node_id":"0.0-4.0-3.0","task_version":"0.2"},{"responses":["true","false","true"],"num_errors":0,"rt":9905.85999994073,"trial_type":"horizons-comprehension","trial_index":8,"time_elapsed":319321,"internal_node_id":"0.0-4.0-4.0","task_version":"0.2"},{"trial_type":"call-function","trial_index":9,"time_elapsed":319331,"internal_node_id":"0.0-5.0","task_version":"0.2"},{"view_history":"[{\"page_index\":0,\"viewing_time\":1724.809999926947},{\"page_index\":1,\"viewing_time\":1792.3550000414252}]","rt":3517.6750000100583,"trial_type":"instructions","trial_index":10,"time_elapsed":322850,"internal_node_id":"0.0-6.0","task_version":"0.2"},{"response_times":[897.400000016205,557.6250000158325,461.66999998968095,561.6300000110641,1575.940000009723,1341.7300001019612,628.5050000296906,1104.369999957271,587.8399999346584,458.77499994821846],"keys_pressed":["leftarrow","rightarrow","leftarrow","rightarrow","leftarrow","leftarrow","leftarrow","rightarrow","leftarrow","leftarrow"],"horizon":10,"forced_choices":["leftarrow","rightarrow","leftarrow","rightarrow"],"right_color":"lightblue","left_color":"orange","left_mu":60,"right_mu":30,"left_numbers":[68,54,58,53,59,73,55,69,65,54],"right_numbers":[13,31,25,28,28,35,28,23,32,56],"points_earned":514,"phase":"task","trial_type":"horizons-task","trial_index":11,"time_elapsed":332538,"internal_node_id":"0.0-7.0","task_version":"0.2"},{"response_times":[641.52499998454,447.92000006418675,551.659999997355,540.5649999156594,1303.7150000454858],"keys_pressed":["leftarrow","rightarrow","rightarrow","rightarrow","leftarrow"],"horizon":5,"forced_choices":["leftarrow","rightarrow","rightarrow","rightarrow"],"right_color":"lightblue","left_color":"orange","left_mu":40,"right_mu":10,"left_numbers":[44,36,30,44,45],"right_numbers":[0,29,9,19,1],"points_earned":146,"phase":"task","trial_type":"horizons-task","trial_index":12,"time_elapsed":337532,"internal_node_id":"0.0-8.0","task_version":"0.2"},{"response_times":[624.7599999187514,698.9599999506027,545.9450000198558,433.91000002156943,1861.2149999244139,1085.770000005141,675.9450000245124,765.6200000783429,701.8999999854714,684.9249999504536],"keys_pressed":["leftarrow","leftarrow","rightarrow","rightarrow","leftarrow","leftarrow","leftarrow","rightarrow","rightarrow","rightarrow"],"horizon":10,"forced_choices":["leftarrow","leftarrow","rightarrow","rightarrow"],"right_color":"orange","left_color":"lightblue","left_mu":40,"right_mu":36,"left_numbers":[29,42,29,40,29,36,16,41,37,41],"right_numbers":[37,35,23,28,32,43,34,29,32,28],"points_earned":292,"phase":"task","trial_type":"horizons-task","trial_index":13,"time_elapsed":347120,"internal_node_id":"0.0-9.0","task_version":"0.2"},{"response_times":[548.1949999229982,583.489999989979,553.2000000821427,536.894999910146,2193.559999926947,931.0399999376386,545.1849999371916,603.2549999654293,531.1000000219792,490.1100000133738],"keys_pressed":["rightarrow","leftarrow","rightarrow","rightarrow","rightarrow","rightarrow","leftarrow","leftarrow","leftarrow","leftarrow"],"horizon":10,"forced_choices":["rightarrow","leftarrow","rightarrow","rightarrow"],"right_color":"lightblue","left_color":"orange","left_mu":60,"right_mu":52,"left_numbers":[47,64,54,67,45,62,63,76,55,60],"right_numbers":[53,46,58,66,45,49,54,54,57,59],"points_earned":589,"phase":"task","trial_type":"horizons-task","trial_index":14,"time_elapsed":356143,"internal_node_id":"0.0-10.0","task_version":"0.2"},{"response_times":[495.7100000465289,690.9299999242648,539.5299999509007,1153.4799999790266,1620.3649999806657,1331.235000048764,630.9800000162795,423.1300000101328,594.1149999853224,629.1549999732524],"keys_pressed":["rightarrow","rightarrow","leftarrow","rightarrow","leftarrow","leftarrow","leftarrow","rightarrow","rightarrow","leftarrow"],"horizon":10,"forced_choices":["rightarrow","rightarrow","leftarrow","rightarrow"],"right_color":"orange","left_color":"lightblue","left_mu":60,"right_mu":56,"left_numbers":[76,58,56,66,55,51,62,61,55,57],"right_numbers":[44,54,34,54,56,53,57,65,51,60],"points_earned":549,"phase":"task","trial_type":"horizons-task","trial_index":15,"time_elapsed":365771,"internal_node_id":"0.0-11.0","task_version":"0.2"},{"response_times":[641.7150000343099,528.0749999219552,654.5950000872836,658.0649999668822,2328.469999949448],"keys_pressed":["leftarrow","leftarrow","leftarrow","rightarrow","rightarrow"],"horizon":5,"forced_choices":["leftarrow","leftarrow","leftarrow","rightarrow"],"right_color":"lightblue","left_color":"orange","left_mu":40,"right_mu":44,"left_numbers":[32,34,41,39,50],"right_numbers":[49,63,51,39,39],"points_earned":185,"phase":"task","trial_type":"horizons-task","trial_index":16,"time_elapsed":372087,"internal_node_id":"0.0-12.0","task_version":"0.2"},{"response_times":[568.6699999496341,580.1800000481308,521.0800000932068,502.90000007953495,1651.7799999564886,562.1300000930205,534.4599999953061,607.2449999628589,572.9899998987094,358.5149999707937],"keys_pressed":["leftarrow","leftarrow","rightarrow","leftarrow","rightarrow","rightarrow","rightarrow","rightarrow","leftarrow","rightarrow"],"horizon":10,"forced_choices":["leftarrow","leftarrow","rightarrow","leftarrow"],"right_color":"lightblue","left_color":"orange","left_mu":40,"right_mu":60,"left_numbers":[37,37,35,28,54,42,27,45,33,52],"right_numbers":[63,54,64,44,52,49,69,49,72,50],"points_earned":468,"phase":"task","trial_type":"horizons-task","trial_index":17,"time_elapsed":380054,"internal_node_id":"0.0-13.0","task_version":"0.2"},{"response_times":[543.9199999673292,450.2599999541417,570.9250000072643,469.6649999823421,2269.4750000955537,483.85999992024153,525.095000048168,487.1399999829009,496.58000003546476,416.7600000509992],"keys_pressed":["rightarrow","rightarrow","rightarrow","leftarrow","rightarrow","leftarrow","rightarrow","rightarrow","leftarrow","rightarrow"],"horizon":10,"forced_choices":["rightarrow","rightarrow","rightarrow","leftarrow"],"right_color":"orange","left_color":"lightblue","left_mu":40,"right_mu":48,"left_numbers":[47,40,36,45,42,37,36,26,38,30],"right_numbers":[46,32,44,48,43,41,43,64,54,52],"points_earned":444,"phase":"task","trial_type":"horizons-task","trial_index":18,"time_elapsed":388272,"internal_node_id":"0.0-14.0","task_version":"0.2"},{"response_times":[561.7549999151379,510.4849999770522,427.89000004995614,468.3450000593439,2676.435000030324],"keys_pressed":["leftarrow","leftarrow","rightarrow","rightarrow","rightarrow"],"horizon":5,"forced_choices":["leftarrow","leftarrow","rightarrow","rightarrow"],"right_color":"orange","left_color":"lightblue","left_mu":40,"right_mu":36,"left_numbers":[42,32,39,31,39],"right_numbers":[38,41,36,38,28],"points_earned":176,"phase":"task","trial_type":"horizons-task","trial_index":19,"time_elapsed":394422,"internal_node_id":"0.0-15.0","task_version":"0.2"},{"response_times":[436.78500002715737,457.21500006038696,1030.4800000740215,435.9150000382215,3989.61499996949],"keys_pressed":["leftarrow","rightarrow","leftarrow","leftarrow","rightarrow"],"horizon":5,"forced_choices":["leftarrow","rightarrow","leftarrow","leftarrow"],"right_color":"lightblue","left_color":"orange","left_mu":60,"right_mu":64,"left_numbers":[60,58,48,60,67],"right_numbers":[60,72,65,79,76],"points_earned":316,"phase":"task","trial_type":"horizons-task","trial_index":20,"time_elapsed":402281,"internal_node_id":"0.0-16.0","task_version":"0.2"},{"response_times":[403.3950000302866,411.28000000026077,429.63999998755753,371.0399999981746,2421.7650000937283],"keys_pressed":["rightarrow","rightarrow","leftarrow","rightarrow","leftarrow"],"horizon":5,"forced_choices":["rightarrow","rightarrow","leftarrow","rightarrow"],"right_color":"lightblue","left_color":"orange","left_mu":60,"right_mu":40,"left_numbers":[60,61,60,40,53],"right_numbers":[43,37,64,41,49],"points_earned":234,"phase":"task","trial_type":"horizons-task","trial_index":21,"time_elapsed":407825,"internal_node_id":"0.0-17.0","task_version":"0.2"},{"response_times":[485.5150000657886,428.5249999957159,416.91499995067716,415.5699999537319,2221.430000034161],"keys_pressed":["leftarrow","rightarrow","rightarrow","leftarrow","rightarrow"],"horizon":5,"forced_choices":["leftarrow","rightarrow","rightarrow","leftarrow"],"right_color":"orange","left_color":"lightblue","left_mu":60,"right_mu":80,"left_numbers":[58,46,69,51,50],"right_numbers":[76,74,77,78,76],"points_earned":336,"phase":"task","trial_type":"horizons-task","trial_index":22,"time_elapsed":413299,"internal_node_id":"0.0-18.0","task_version":"0.2"},{"response_times":[464.90499994251877,467.88499993272126,458.48000003024936,472.7100000018254,1569.344999967143],"keys_pressed":["leftarrow","rightarrow","rightarrow","leftarrow","leftarrow"],"horizon":5,"forced_choices":["leftarrow","rightarrow","rightarrow","leftarrow"],"right_color":"lightblue","left_color":"orange","left_mu":60,"right_mu":40,"left_numbers":[74,65,66,73,54],"right_numbers":[40,36,35,40,27],"points_earned":272,"phase":"task","trial_type":"horizons-task","trial_index":23,"time_elapsed":418236,"internal_node_id":"0.0-19.0","task_version":"0.2"},{"response_times":[432.6850000070408,415.15499993693084,433.06499999016523,404.88000004552305,1972.3650000523776,502.45500006712973,1023.5550000797957,536.1800000537187,774.37999995891,475.1399999950081],"keys_pressed":["leftarrow","rightarrow","rightarrow","rightarrow","rightarrow","leftarrow","rightarrow","leftarrow","rightarrow","rightarrow"],"horizon":10,"forced_choices":["leftarrow","rightarrow","rightarrow","rightarrow"],"right_color":"orange","left_color":"lightblue","left_mu":60,"right_mu":68,"left_numbers":[59,65,66,48,47,70,71,66,63,57],"right_numbers":[75,77,64,64,77,78,65,78,68,70],"points_earned":680,"phase":"task","trial_type":"horizons-task","trial_index":24,"time_elapsed":426714,"internal_node_id":"0.0-20.0","task_version":"0.2"},{"response_times":[436.0150001011789,431.57500005327165,472.1999999601394,398.01500004250556,1086.1799999838695],"keys_pressed":["leftarrow","leftarrow","rightarrow","rightarrow","leftarrow"],"horizon":5,"forced_choices":["leftarrow","leftarrow","rightarrow","rightarrow"],"right_color":"lightblue","left_color":"orange","left_mu":40,"right_mu":28,"left_numbers":[55,33,45,44,36],"right_numbers":[25,31,30,29,26],"points_earned":183,"phase":"task","trial_type":"horizons-task","trial_index":25,"time_elapsed":431042,"internal_node_id":"0.0-21.0","task_version":"0.2"},{"response_times":[420.33999995328486,389.05499991960824,457.3200000450015,561.0350000206381,1475.5850000074133],"keys_pressed":["leftarrow","rightarrow","rightarrow","rightarrow","rightarrow"],"horizon":5,"forced_choices":["leftarrow","rightarrow","rightarrow","rightarrow"],"right_color":"orange","left_color":"lightblue","left_mu":60,"right_mu":72,"left_numbers":[52,51,56,54,62],"right_numbers":[67,89,86,64,68],"points_earned":359,"phase":"task","trial_type":"horizons-task","trial_index":26,"time_elapsed":435851,"internal_node_id":"0.0-22.0","task_version":"0.2"},{"response_times":[512.360000051558,537.9099999554455,517.1700000064448,528.0600000405684,1887.0150001021102],"keys_pressed":["rightarrow","leftarrow","leftarrow","leftarrow","leftarrow"],"horizon":5,"forced_choices":["rightarrow","leftarrow","leftarrow","leftarrow"],"right_color":"orange","left_color":"lightblue","left_mu":60,"right_mu":48,"left_numbers":[60,63,64,55,63],"right_numbers":[41,46,48,48,46],"points_earned":286,"phase":"task","trial_type":"horizons-task","trial_index":27,"time_elapsed":441340,"internal_node_id":"0.0-23.0","task_version":"0.2"},{"response_times":[406.55499999411404,399.36999999918044,424.2100000847131,476.03000001981854,1525.3950000042096],"keys_pressed":["rightarrow","rightarrow","leftarrow","leftarrow","rightarrow"],"horizon":5,"forced_choices":["rightarrow","rightarrow","leftarrow","leftarrow"],"right_color":"orange","left_color":"lightblue","left_mu":40,"right_mu":70,"left_numbers":[37,49,29,48,48],"right_numbers":[65,58,76,76,76],"points_earned":276,"phase":"task","trial_type":"horizons-task","trial_index":28,"time_elapsed":446076,"internal_node_id":"0.0-24.0","task_version":"0.2"},{"response_times":[542.5550000509247,405.26500006671995,383.3299999823794,421.1350000696257,1745.9900000831112,482.0399999152869,564.4800000591204,360.7299999566749,410.86000006180257,348.7249999307096],"keys_pressed":["leftarrow","rightarrow","leftarrow","leftarrow","rightarrow","rightarrow","leftarrow","rightarrow","rightarrow","rightarrow"],"horizon":10,"forced_choices":["leftarrow","rightarrow","leftarrow","leftarrow"],"right_color":"orange","left_color":"lightblue","left_mu":60,"right_mu":90,"left_numbers":[67,58,71,52,72,62,52,67,60,57],"right_numbers":[86,90,79,97,81,87,104,83,95,79],"points_earned":757,"phase":"task","trial_type":"horizons-task","trial_index":29,"time_elapsed":453248,"internal_node_id":"0.0-25.0","task_version":"0.2"},{"response_times":[411.1149999080226,428.54500003159046,427.544999984093,461.51000005193055,1563.6149999918416,825.0049999915063,491.524999961257,432.06000002101064,287.8250000067055,388.53500003460795],"keys_pressed":["rightarrow","rightarrow","leftarrow","rightarrow","leftarrow","rightarrow","leftarrow","leftarrow","leftarrow","leftarrow"],"horizon":10,"forced_choices":["rightarrow","rightarrow","leftarrow","rightarrow"],"right_color":"lightblue","left_color":"orange","left_mu":60,"right_mu":40,"left_numbers":[58,49,63,60,58,77,68,54,60,62],"right_numbers":[36,34,28,49,37,36,26,53,57,43],"points_earned":520,"phase":"task","trial_type":"horizons-task","trial_index":30,"time_elapsed":460470,"internal_node_id":"0.0-26.0","task_version":"0.2"},{"response_times":[531.3550001010299,390.3749999590218,469.0249999985099,703.4950000233948,1675.1749999821186,712.8799998899922,386.2700000172481,420.42999994009733,319.3899999605492,266.04999997653067],"keys_pressed":["rightarrow","rightarrow","leftarrow","leftarrow","rightarrow","rightarrow","leftarrow","rightarrow","rightarrow","rightarrow"],"horizon":10,"forced_choices":["rightarrow","rightarrow","leftarrow","leftarrow"],"right_color":"lightblue","left_color":"orange","left_mu":40,"right_mu":60,"left_numbers":[36,52,35,42,40,33,30,51,36,52],"right_numbers":[52,58,69,61,65,69,51,62,41,55],"points_earned":509,"phase":"task","trial_type":"horizons-task","trial_index":31,"time_elapsed":467851,"internal_node_id":"0.0-27.0","task_version":"0.2"},{"response_times":[432.01999994926155,1109.1499999165535,631.4450000645593,435.48500002361834,1162.8100000089034],"keys_pressed":["rightarrow","leftarrow","rightarrow","rightarrow","leftarrow"],"horizon":5,"forced_choices":["rightarrow","leftarrow","rightarrow","rightarrow"],"right_color":"orange","left_color":"lightblue","left_mu":40,"right_mu":52,"left_numbers":[38,41,50,39,60],"right_numbers":[41,58,55,55,47],"points_earned":252,"phase":"task","trial_type":"horizons-task","trial_index":32,"time_elapsed":473135,"internal_node_id":"0.0-28.0","task_version":"0.2"},{"response_times":[793.9699999988079,503.0550000956282,660.4850000003353,523.200000054203,723.5550000332296],"keys_pressed":["rightarrow","rightarrow","rightarrow","leftarrow","rightarrow"],"horizon":5,"forced_choices":["rightarrow","rightarrow","rightarrow","leftarrow"],"right_color":"orange","left_color":"lightblue","left_mu":40,"right_mu":48,"left_numbers":[32,35,40,45,43],"right_numbers":[54,56,32,37,51],"points_earned":238,"phase":"task","trial_type":"horizons-task","trial_index":33,"time_elapsed":477844,"internal_node_id":"0.0-29.0","task_version":"0.2"},{"response_times":[413.9600000344217,450.745000038296,597.4350000033155,614.6500000031665,2630.0300000002608],"keys_pressed":["rightarrow","leftarrow","rightarrow","leftarrow","rightarrow"],"horizon":5,"forced_choices":["rightarrow","leftarrow","rightarrow","leftarrow"],"right_color":"orange","left_color":"lightblue","left_mu":60,"right_mu":56,"left_numbers":[57,51,55,46,64],"right_numbers":[49,59,35,37,47],"points_earned":228,"phase":"task","trial_type":"horizons-task","trial_index":34,"time_elapsed":484058,"internal_node_id":"0.0-30.0","task_version":"0.2"},{"response_times":[2474.875000072643,463.27500010374933,383.254999993369,396.8149999855086,2495.1700000092387,793.3000000193715,520.7450001034886,827.8399999253452,462.70000003278255,231.2099999981001],"keys_pressed":["rightarrow","rightarrow","leftarrow","leftarrow","rightarrow","leftarrow","rightarrow","leftarrow","rightarrow","rightarrow"],"horizon":10,"forced_choices":["rightarrow","rightarrow","leftarrow","leftarrow"],"right_color":"orange","left_color":"lightblue","left_mu":40,"right_mu":48,"left_numbers":[38,41,43,30,34,42,56,35,57,49],"right_numbers":[53,31,57,56,48,42,47,60,44,56],"points_earned":429,"phase":"task","trial_type":"horizons-task","trial_index":35,"time_elapsed":494613,"internal_node_id":"0.0-31.0","task_version":"0.2"},{"response_times":[381.6249999217689,374.3049999466166,672.7650000248104,385.4150000261143,769.4799999007955,446.02000003214926,587.2449999442324,398.09000003151596,284.34499993454665,258.37000005412847],"keys_pressed":["rightarrow","leftarrow","leftarrow","leftarrow","leftarrow","leftarrow","rightarrow","leftarrow","leftarrow","leftarrow"],"horizon":10,"forced_choices":["rightarrow","leftarrow","leftarrow","leftarrow"],"right_color":"lightblue","left_color":"orange","left_mu":60,"right_mu":30,"left_numbers":[46,67,67,65,60,64,62,57,59,74],"right_numbers":[21,31,30,25,37,17,16,35,27,24],"points_earned":550,"phase":"task","trial_type":"horizons-task","trial_index":36,"time_elapsed":500683,"internal_node_id":"0.0-32.0","task_version":"0.2"},{"response_times":[549.0449999924749,396.4200000045821,531.0149999568239,652.7050000149757,974.8399999225512,594.3400000687689,418.70499996002764,627.3499999660999,270.4050000756979,281.6200000233948],"keys_pressed":["leftarrow","rightarrow","rightarrow","rightarrow","leftarrow","leftarrow","rightarrow","leftarrow","leftarrow","leftarrow"],"horizon":10,"forced_choices":["leftarrow","rightarrow","rightarrow","rightarrow"],"right_color":"lightblue","left_color":"orange","left_mu":40,"right_mu":10,"left_numbers":[20,38,41,40,37,51,15,48,35,42],"right_numbers":[23,7,8,19,10,9,2,7,9,4],"points_earned":269,"phase":"task","trial_type":"horizons-task","trial_index":37,"time_elapsed":507484,"internal_node_id":"0.0-33.0","task_version":"0.2"},{"response_times":[871.7750000068918,402.20999997109175,385.7099999440834,438.71000001672655,1301.560000050813,303.8749999832362,287.48499997891486,279.6999999554828,258.08499997947365,347.7600000333041],"keys_pressed":["rightarrow","rightarrow","rightarrow","leftarrow","leftarrow","leftarrow","leftarrow","leftarrow","leftarrow","leftarrow"],"horizon":10,"forced_choices":["rightarrow","rightarrow","rightarrow","leftarrow"],"right_color":"lightblue","left_color":"orange","left_mu":40,"right_mu":20,"left_numbers":[40,34,50,44,35,31,31,32,36,38],"right_numbers":[22,10,6,12,23,6,9,33,11,17],"points_earned":285,"phase":"task","trial_type":"horizons-task","trial_index":38,"time_elapsed":513865,"internal_node_id":"0.0-34.0","task_version":"0.2"},{"response_times":[487.86999995354563,372.0100000500679,472.96500008087605,422.69999999552965,1029.0400000521913,464.96000001206994,556.8449998972937,456.0499999206513,233.67499990854412,227.10999997798353],"keys_pressed":["rightarrow","leftarrow","leftarrow","leftarrow","leftarrow","leftarrow","rightarrow","leftarrow","leftarrow","leftarrow"],"horizon":10,"forced_choices":["rightarrow","leftarrow","leftarrow","leftarrow"],"right_color":"lightblue","left_color":"orange","left_mu":40,"right_mu":28,"left_numbers":[46,24,36,56,42,56,48,41,31,28],"right_numbers":[21,33,37,20,20,32,27,35,19,26],"points_earned":362,"phase":"task","trial_type":"horizons-task","trial_index":39,"time_elapsed":520096,"internal_node_id":"0.0-35.0","task_version":"0.2"},{"response_times":[588.1299999309704,380.56499999947846,757.5449999421835,643.5100000817329,806.055000051856],"keys_pressed":["rightarrow","rightarrow","leftarrow","leftarrow","leftarrow"],"horizon":5,"forced_choices":["rightarrow","rightarrow","leftarrow","leftarrow"],"right_color":"orange","left_color":"lightblue","left_mu":40,"right_mu":48,"left_numbers":[37,39,50,37,36],"right_numbers":[44,34,49,34,52],"points_earned":201,"phase":"task","trial_type":"horizons-task","trial_index":40,"time_elapsed":524785,"internal_node_id":"0.0-36.0","task_version":"0.2"},{"response_times":[402.2050000494346,483.7249999400228,536.6500000236556,478.44999993685633,744.5699999807402,333.47000007051975,298.21999999694526,287.96999994665384,277.3300000699237,374.405000009574],"keys_pressed":["rightarrow","rightarrow","leftarrow","leftarrow","rightarrow","rightarrow","rightarrow","rightarrow","rightarrow","rightarrow"],"horizon":10,"forced_choices":["rightarrow","rightarrow","leftarrow","leftarrow"],"right_color":"orange","left_color":"lightblue","left_mu":40,"right_mu":70,"left_numbers":[60,40,42,40,38,46,34,54,39,37],"right_numbers":[81,72,83,68,66,77,62,60,64,70],"points_earned":634,"phase":"task","trial_type":"horizons-task","trial_index":41,"time_elapsed":530506,"internal_node_id":"0.0-37.0","task_version":"0.2"},{"response_times":[478.23499992955476,391.30500005558133,574.2049999535084,410.31499998643994,2748.4199999598786,568.7650000909343,594.1700000548735,649.5899999281392,443.0500000016764,209.2450000345707],"keys_pressed":["rightarrow","leftarrow","leftarrow","rightarrow","rightarrow","leftarrow","rightarrow","leftarrow","rightarrow","rightarrow"],"horizon":10,"forced_choices":["rightarrow","leftarrow","leftarrow","rightarrow"],"right_color":"orange","left_color":"lightblue","left_mu":60,"right_mu":72,"left_numbers":[67,69,49,59,52,72,60,61,65,59],"right_numbers":[66,79,76,70,76,81,71,77,73,67],"points_earned":674,"phase":"task","trial_type":"horizons-task","trial_index":42,"time_elapsed":539079,"internal_node_id":"0.0-38.0","task_version":"0.2"},{"response_times":[554.850000073202,387.7050000010058,626.0300000431016,485.200000111945,1280.7950000278652],"keys_pressed":["rightarrow","leftarrow","leftarrow","leftarrow","leftarrow"],"horizon":5,"forced_choices":["rightarrow","leftarrow","leftarrow","leftarrow"],"right_color":"lightblue","left_color":"orange","left_mu":40,"right_mu":28,"left_numbers":[42,44,39,36,45],"right_numbers":[32,31,13,37,30],"points_earned":196,"phase":"task","trial_type":"horizons-task","trial_index":43,"time_elapsed":543919,"internal_node_id":"0.0-39.0","task_version":"0.2"},{"response_times":[527.2850000765175,372.89500003680587,454.1700000409037,662.9549999488518,563.8450001133606],"keys_pressed":["rightarrow","leftarrow","rightarrow","leftarrow","leftarrow"],"horizon":5,"forced_choices":["rightarrow","leftarrow","rightarrow","leftarrow"],"right_color":"orange","left_color":"lightblue","left_mu":60,"right_mu":48,"left_numbers":[51,52,61,68,76],"right_numbers":[44,47,50,50,33],"points_earned":290,"phase":"task","trial_type":"horizons-task","trial_index":44,"time_elapsed":548011,"internal_node_id":"0.0-40.0","task_version":"0.2"},{"response_times":[526.4249999308959,384.6300001023337,374.9100000131875,770.0700000859797,449.1200000047684],"keys_pressed":["leftarrow","rightarrow","leftarrow","leftarrow","rightarrow"],"horizon":5,"forced_choices":["leftarrow","rightarrow","leftarrow","leftarrow"],"right_color":"orange","left_color":"lightblue","left_mu":60,"right_mu":90,"left_numbers":[50,58,63,61,55],"right_numbers":[107,94,100,86,76],"points_earned":344,"phase":"task","trial_type":"horizons-task","trial_index":45,"time_elapsed":552021,"internal_node_id":"0.0-41.0","task_version":"0.2"},{"response_times":[423.9700000034645,342.20499999355525,406.9700000109151,543.4700000332668,2377.764999982901],"keys_pressed":["rightarrow","leftarrow","leftarrow","rightarrow","rightarrow"],"horizon":5,"forced_choices":["rightarrow","leftarrow","leftarrow","rightarrow"],"right_color":"lightblue","left_color":"orange","left_mu":40,"right_mu":44,"left_numbers":[49,42,38,50,48],"right_numbers":[41,50,37,50,47],"points_earned":218,"phase":"task","trial_type":"horizons-task","trial_index":46,"time_elapsed":557620,"internal_node_id":"0.0-42.0","task_version":"0.2"},{"response_times":[508.99000000208616,305.7000000262633,352.35499998088926,583.890000008978,631.9049999583513,1858.3199999993667,417.2349999425933,498.8500000908971,412.08999999798834,483.669999986887],"keys_pressed":["leftarrow","rightarrow","leftarrow","rightarrow","rightarrow","rightarrow","leftarrow","rightarrow","leftarrow","rightarrow"],"horizon":10,"forced_choices":["leftarrow","rightarrow","leftarrow","rightarrow"],"right_color":"orange","left_color":"lightblue","left_mu":40,"right_mu":52,"left_numbers":[48,37,49,28,29,36,37,37,39,33],"right_numbers":[42,58,46,41,38,50,54,41,60,44],"points_earned":445,"phase":"task","trial_type":"horizons-task","trial_index":47,"time_elapsed":565178,"internal_node_id":"0.0-43.0","task_version":"0.2"},{"response_times":[691.2249999586493,327.045000041835,557.4300000444055,391.8650000123307,932.2850001044571,355.58500001206994,306.3049999764189,544.5100000360981,310.484999907203,275.87999997194856],"keys_pressed":["leftarrow","rightarrow","rightarrow","leftarrow","leftarrow","leftarrow","leftarrow","rightarrow","leftarrow","leftarrow"],"horizon":10,"forced_choices":["leftarrow","rightarrow","rightarrow","leftarrow"],"right_color":"lightblue","left_color":"orange","left_mu":60,"right_mu":52,"left_numbers":[48,46,72,59,56,43,62,61,44,63],"right_numbers":[64,44,54,56,43,60,53,54,58,45],"points_earned":527,"phase":"task","trial_type":"horizons-task","trial_index":48,"time_elapsed":571378,"internal_node_id":"0.0-44.0","task_version":"0.2"},{"response_times":[461.7899999720976,302.36500001046807,495.38000009488314,418.6500000068918,1072.6699999067932,701.9749999744818,554.0650000330061,456.2300000106916,399.92500003427267,265.3550000395626],"keys_pressed":["rightarrow","leftarrow","leftarrow","leftarrow","rightarrow","rightarrow","leftarrow","rightarrow","rightarrow","rightarrow"],"horizon":10,"forced_choices":["rightarrow","leftarrow","leftarrow","leftarrow"],"right_color":"orange","left_color":"lightblue","left_mu":60,"right_mu":48,"left_numbers":[62,59,55,48,62,62,47,38,60,59],"right_numbers":[41,46,40,49,62,49,49,49,52,50],"points_earned":512,"phase":"task","trial_type":"horizons-task","trial_index":49,"time_elapsed":578014,"internal_node_id":"0.0-45.0","task_version":"0.2"},{"response_times":[768.5050000436604,444.9100000783801,387.6799999270588,530.7349999202415,805.2150000585243,387.8949999343604,530.5899999802932,261.22499990742654,272.1899999305606,244.2799999844283],"keys_pressed":["leftarrow","rightarrow","leftarrow","leftarrow","rightarrow","leftarrow","leftarrow","leftarrow","leftarrow","leftarrow"],"horizon":10,"forced_choices":["leftarrow","rightarrow","leftarrow","leftarrow"],"right_color":"lightblue","left_color":"orange","left_mu":60,"right_mu":64,"left_numbers":[44,64,69,62,71,66,71,53,68,59],"right_numbers":[62,60,67,61,63,67,59,64,67,52],"points_earned":615,"phase":"task","trial_type":"horizons-task","trial_index":50,"time_elapsed":584156,"internal_node_id":"0.0-46.0","task_version":"0.2"},{"view_history":"[{\"page_index\":0,\"viewing_time\":114420.22000008728},{\"page_index\":1,\"viewing_time\":1510.4599999031052}]","rt":115931.31500005256,"trial_type":"instructions","trial_index":51,"time_elapsed":700088,"internal_node_id":"0.0-47.0","task_version":"0.2"},{"response_times":[633.4250000072643,679.6899999026209,361.69999989215285,392.9699999280274,651.7949999542907,339.58499995060265,208.62499997019768,205.57500002905726,179.3349999934435,153.77500001341105],"keys_pressed":["rightarrow","rightarrow","leftarrow","rightarrow","leftarrow","rightarrow","rightarrow","rightarrow","rightarrow","rightarrow"],"horizon":10,"forced_choices":["rightarrow","rightarrow","leftarrow","rightarrow"],"right_color":"orange","left_color":"lightblue","left_mu":60,"right_mu":80,"left_numbers":[48,62,46,71,53,60,60,50,59,60],"right_numbers":[85,79,84,79,83,78,74,86,71,89],"points_earned":740,"phase":"task","trial_type":"horizons-task","trial_index":52,"time_elapsed":705407,"internal_node_id":"0.0-48.0","task_version":"0.2"},{"response_times":[582.4049999937415,286.6599999833852,294.54499995335937,274.62000004015863,1216.5299999760464],"keys_pressed":["leftarrow","rightarrow","leftarrow","rightarrow","leftarrow"],"horizon":5,"forced_choices":["leftarrow","rightarrow","leftarrow","rightarrow"],"right_color":"lightblue","left_color":"orange","left_mu":40,"right_mu":32,"left_numbers":[40,37,47,23,26],"right_numbers":[30,20,36,41,26],"points_earned":174,"phase":"task","trial_type":"horizons-task","trial_index":53,"time_elapsed":709566,"internal_node_id":"0.0-49.0","task_version":"0.2"},{"response_times":[601.5899999765679,252.23000010009855,403.3200000412762,578.525000018999,1361.4350000862032],"keys_pressed":["rightarrow","leftarrow","leftarrow","rightarrow","rightarrow"],"horizon":5,"forced_choices":["rightarrow","leftarrow","leftarrow","rightarrow"],"right_color":"orange","left_color":"lightblue","left_mu":60,"right_mu":72,"left_numbers":[66,63,71,63,71],"right_numbers":[73,62,65,75,61],"points_earned":343,"phase":"task","trial_type":"horizons-task","trial_index":54,"time_elapsed":714267,"internal_node_id":"0.0-50.0","task_version":"0.2"},{"response_times":[533.2050001015887,259.78500000201166,478.79500000271946,619.7750000283122,661.1149999080226],"keys_pressed":["rightarrow","leftarrow","leftarrow","rightarrow","leftarrow"],"horizon":5,"forced_choices":["rightarrow","leftarrow","leftarrow","rightarrow"],"right_color":"lightblue","left_color":"orange","left_mu":40,"right_mu":20,"left_numbers":[48,29,41,20,33],"right_numbers":[11,10,15,26,2],"points_earned":140,"phase":"task","trial_type":"horizons-task","trial_index":55,"time_elapsed":718325,"internal_node_id":"0.0-51.0","task_version":"0.2"},{"response_times":[555.4149999516085,411.725000012666,406.2400000402704,359.19500002637506,1368.3550000423566],"keys_pressed":["leftarrow","leftarrow","rightarrow","leftarrow","rightarrow"],"horizon":5,"forced_choices":["leftarrow","leftarrow","rightarrow","leftarrow"],"right_color":"lightblue","left_color":"orange","left_mu":40,"right_mu":60,"left_numbers":[48,37,35,36,44],"right_numbers":[54,70,59,61,64],"points_earned":244,"phase":"task","trial_type":"horizons-task","trial_index":56,"time_elapsed":722931,"internal_node_id":"0.0-52.0","task_version":"0.2"},{"response_times":[461.66000002995133,419.2049999255687,367.47499997727573,362.88000002969056,652.7250000508502],"keys_pressed":["leftarrow","leftarrow","rightarrow","rightarrow","leftarrow"],"horizon":5,"forced_choices":["leftarrow","leftarrow","rightarrow","rightarrow"],"right_color":"lightblue","left_color":"orange","left_mu":40,"right_mu":10,"left_numbers":[31,32,36,33,38],"right_numbers":[0,14,19,0,23],"points_earned":120,"phase":"task","trial_type":"horizons-task","trial_index":57,"time_elapsed":726707,"internal_node_id":"0.0-53.0","task_version":"0.2"},{"response_times":[402.13499998208135,335.21499997004867,413.58000005129725,490.07499997969717,749.3950000498444],"keys_pressed":["leftarrow","leftarrow","leftarrow","rightarrow","rightarrow"],"horizon":5,"forced_choices":["leftarrow","leftarrow","leftarrow","rightarrow"],"right_color":"orange","left_color":"lightblue","left_mu":40,"right_mu":70,"left_numbers":[46,44,59,31,23],"right_numbers":[70,70,59,67,71],"points_earned":287,"phase":"task","trial_type":"horizons-task","trial_index":58,"time_elapsed":730602,"internal_node_id":"0.0-54.0","task_version":"0.2"},{"response_times":[717.4150000791997,435.84499997086823,362.0200000004843,491.50499992538244,1336.9549999479204],"keys_pressed":["leftarrow","rightarrow","leftarrow","rightarrow","leftarrow"],"horizon":5,"forced_choices":["leftarrow","rightarrow","leftarrow","rightarrow"],"right_color":"lightblue","left_color":"orange","left_mu":60,"right_mu":30,"left_numbers":[55,54,49,49,76],"right_numbers":[26,36,26,17,21],"points_earned":233,"phase":"task","trial_type":"horizons-task","trial_index":59,"time_elapsed":735451,"internal_node_id":"0.0-55.0","task_version":"0.2"},{"response_times":[542.1149999601766,352.79500007163733,394.42999998573214,361.1350000137463,1564.6649999544024,296.44499998539686,523.3299999963492,410.9400000888854,363.6049999622628,253.5349999088794],"keys_pressed":["leftarrow","leftarrow","rightarrow","leftarrow","leftarrow","rightarrow","leftarrow","leftarrow","rightarrow","leftarrow"],"horizon":10,"forced_choices":["leftarrow","leftarrow","rightarrow","leftarrow"],"right_color":"lightblue","left_color":"orange","left_mu":40,"right_mu":32,"left_numbers":[32,57,45,37,45,49,41,37,43,36],"right_numbers":[28,39,32,40,38,19,34,33,31,29],"points_earned":367,"phase":"task","trial_type":"horizons-task","trial_index":60,"time_elapsed":742021,"internal_node_id":"0.0-56.0","task_version":"0.2"},{"response_times":[771.0449999431148,389.3350000726059,390.19499998539686,494.0949999727309,1254.979999968782],"keys_pressed":["leftarrow","leftarrow","rightarrow","leftarrow","leftarrow"],"horizon":5,"forced_choices":["leftarrow","leftarrow","rightarrow","leftarrow"],"right_color":"lightblue","left_color":"orange","left_mu":40,"right_mu":32,"left_numbers":[46,31,39,49,46],"right_numbers":[42,38,43,21,50],"points_earned":215,"phase":"task","trial_type":"horizons-task","trial_index":61,"time_elapsed":746835,"internal_node_id":"0.0-57.0","task_version":"0.2"},{"response_times":[391.6800000006333,386.1100000794977,392.9099999368191,648.285000002943,616.0600000293925,1046.7250000219792,823.1449999148026,677.6899999240413,439.6299999207258,206.09500003047287],"keys_pressed":["leftarrow","leftarrow","rightarrow","leftarrow","leftarrow","rightarrow","leftarrow","rightarrow","leftarrow","leftarrow"],"horizon":10,"forced_choices":["leftarrow","leftarrow","rightarrow","leftarrow"],"right_color":"orange","left_color":"lightblue","left_mu":40,"right_mu":36,"left_numbers":[44,44,40,36,50,47,41,40,54,31],"right_numbers":[45,31,19,37,29,38,28,36,42,36],"points_earned":393,"phase":"task","trial_type":"horizons-task","trial_index":62,"time_elapsed":753968,"internal_node_id":"0.0-58.0","task_version":"0.2"},{"response_times":[367.95500002335757,365.2200000360608,648.1799999019131,477.9700000071898,469.6149999508634,1120.050000026822,289.67999992892146,313.8899999903515,238.87500003911555,273.2500000856817],"keys_pressed":["leftarrow","rightarrow","rightarrow","rightarrow","leftarrow","rightarrow","rightarrow","rightarrow","rightarrow","rightarrow"],"horizon":10,"forced_choices":["leftarrow","rightarrow","rightarrow","rightarrow"],"right_color":"orange","left_color":"lightblue","left_mu":60,"right_mu":72,"left_numbers":[47,58,51,61,55,68,72,60,39,65],"right_numbers":[73,66,52,90,76,68,66,74,82,70],"points_earned":670,"phase":"task","trial_type":"horizons-task","trial_index":63,"time_elapsed":760036,"internal_node_id":"0.0-59.0","task_version":"0.2"},{"response_times":[474.72499997820705,354.53000001143664,396.100000012666,518.3299999916926,676.2649999000132,226.60500009078532,259.2100000474602,218.06500002276152,552.5050000287592,286.8000000016764],"keys_pressed":["rightarrow","leftarrow","rightarrow","rightarrow","rightarrow","rightarrow","rightarrow","rightarrow","leftarrow","rightarrow"],"horizon":10,"forced_choices":["rightarrow","leftarrow","rightarrow","rightarrow"],"right_color":"orange","left_color":"lightblue","left_mu":40,"right_mu":52,"left_numbers":[35,26,22,33,42,37,43,39,39,30],"right_numbers":[68,46,47,48,51,58,27,69,61,46],"points_earned":479,"phase":"task","trial_type":"horizons-task","trial_index":64,"time_elapsed":765504,"internal_node_id":"0.0-60.0","task_version":"0.2"},{"response_times":[438.8299999991432,357.164999935776,392.85499998368323,409.6150000113994,10332.835000008345,430.60500000137836,395.36999992560595,360.71000003721565,405.72500007692724,221.51499998290092],"keys_pressed":["rightarrow","leftarrow","rightarrow","leftarrow","leftarrow","leftarrow","leftarrow","leftarrow","rightarrow","leftarrow"],"horizon":10,"forced_choices":["rightarrow","leftarrow","rightarrow","leftarrow"],"right_color":"orange","left_color":"lightblue","left_mu":60,"right_mu":56,"left_numbers":[53,65,58,54,64,74,58,74,60,48],"right_numbers":[74,54,48,45,68,57,61,44,62,68],"points_earned":621,"phase":"task","trial_type":"horizons-task","trial_index":65,"time_elapsed":780762,"internal_node_id":"0.0-61.0","task_version":"0.2"},{"response_times":[360.38500000722706,268.0500000715256,315.7899999059737,315.0600000517443,962.2650000965223],"keys_pressed":["leftarrow","rightarrow","leftarrow","rightarrow","rightarrow"],"horizon":5,"forced_choices":["leftarrow","rightarrow","leftarrow","rightarrow"],"right_color":"orange","left_color":"lightblue","left_mu":60,"right_mu":68,"left_numbers":[47,50,61,61,53],"right_numbers":[69,82,68,68,55],"points_earned":313,"phase":"task","trial_type":"horizons-task","trial_index":66,"time_elapsed":784492,"internal_node_id":"0.0-62.0","task_version":"0.2"},{"response_times":[572.3249999573454,279.4099999591708,268.5800000326708,501.9000000320375,1009.9900000495836],"keys_pressed":["rightarrow","leftarrow","rightarrow","rightarrow","leftarrow"],"horizon":5,"forced_choices":["rightarrow","leftarrow","rightarrow","rightarrow"],"right_color":"lightblue","left_color":"orange","left_mu":60,"right_mu":52,"left_numbers":[69,71,71,56,50],"right_numbers":[44,62,61,57,56],"points_earned":283,"phase":"task","trial_type":"horizons-task","trial_index":67,"time_elapsed":788628,"internal_node_id":"0.0-63.0","task_version":"0.2"},{"response_times":[890.9899999853224,336.684999987483,394.76499997545034,623.1699999189004,850.9199999971315,451.02500007487833,388.1800000090152,921.7799999751151,386.8899999652058,191.7949999915436],"keys_pressed":["rightarrow","leftarrow","rightarrow","leftarrow","leftarrow","rightarrow","leftarrow","rightarrow","leftarrow","leftarrow"],"horizon":10,"forced_choices":["rightarrow","leftarrow","rightarrow","leftarrow"],"right_color":"orange","left_color":"lightblue","left_mu":60,"right_mu":48,"left_numbers":[64,63,66,54,57,53,54,48,55,58],"right_numbers":[44,45,56,59,41,44,53,40,44,45],"points_earned":525,"phase":"task","trial_type":"horizons-task","trial_index":68,"time_elapsed":795570,"internal_node_id":"0.0-64.0","task_version":"0.2"},{"response_times":[472.50500007066876,329.28499998524785,406.565000070259,838.0099999485537,985.8099999837577,643.7600000062957,1439.0199999324977,615.3500000946224,767.0650000218302,229.21000001952052],"keys_pressed":["leftarrow","rightarrow","leftarrow","rightarrow","leftarrow","rightarrow","rightarrow","rightarrow","rightarrow","rightarrow"],"horizon":10,"forced_choices":["leftarrow","rightarrow","leftarrow","rightarrow"],"right_color":"orange","left_color":"lightblue","left_mu":60,"right_mu":68,"left_numbers":[61,75,58,46,67,68,68,55,60,60],"right_numbers":[69,73,75,53,83,65,81,84,75,37],"points_earned":654,"phase":"task","trial_type":"horizons-task","trial_index":69,"time_elapsed":803808,"internal_node_id":"0.0-65.0","task_version":"0.2"},{"response_times":[427.1100000478327,419.10500009544194,407.84500003792346,589.9200000567362,588.2899999851361,366.67499993927777,225.65999999642372,191.3750000530854,200.87499998044223,193.33499995991588],"keys_pressed":["rightarrow","leftarrow","leftarrow","rightarrow","leftarrow","leftarrow","leftarrow","leftarrow","leftarrow","leftarrow"],"horizon":10,"forced_choices":["rightarrow","leftarrow","leftarrow","rightarrow"],"right_color":"lightblue","left_color":"orange","left_mu":40,"right_mu":20,"left_numbers":[35,45,40,38,41,43,43,53,44,44],"right_numbers":[23,30,5,29,26,29,20,17,17,14],"points_earned":405,"phase":"task","trial_type":"horizons-task","trial_index":70,"time_elapsed":808923,"internal_node_id":"0.0-66.0","task_version":"0.2"},{"response_times":[427.97499999869615,408.4450000664219,536.2099999329075,1230.6099999696016,792.1399999177083],"keys_pressed":["rightarrow","rightarrow","leftarrow","leftarrow","rightarrow"],"horizon":5,"forced_choices":["rightarrow","rightarrow","leftarrow","leftarrow"],"right_color":"lightblue","left_color":"orange","left_mu":40,"right_mu":60,"left_numbers":[38,38,36,15,54],"right_numbers":[63,46,68,67,75],"points_earned":235,"phase":"task","trial_type":"horizons-task","trial_index":71,"time_elapsed":813822,"internal_node_id":"0.0-67.0","task_version":"0.2"},{"response_times":[389.77500004693866,337.0600000489503,284.83000001870096,323.62499996088445,1894.220000016503,420.77500000596046,814.6500000730157,334.25000007264316,561.6700000828132,197.68999994266778],"keys_pressed":["rightarrow","leftarrow","rightarrow","leftarrow","leftarrow","rightarrow","leftarrow","rightarrow","leftarrow","leftarrow"],"horizon":10,"forced_choices":["rightarrow","leftarrow","rightarrow","leftarrow"],"right_color":"lightblue","left_color":"orange","left_mu":60,"right_mu":64,"left_numbers":[55,59,64,66,56,58,65,57,54,58],"right_numbers":[59,63,61,69,59,58,69,49,52,63],"points_earned":585,"phase":"task","trial_type":"horizons-task","trial_index":72,"time_elapsed":820888,"internal_node_id":"0.0-68.0","task_version":"0.2"},{"response_times":[4606.394999893382,614.3649999285117,512.8099999856204,426.6050000442192,472.27000002749264,544.1499999724329,428.0949999811128,221.84499993454665,445.30000002123415,172.83499997574836],"keys_pressed":["leftarrow","leftarrow","leftarrow","rightarrow","rightarrow","leftarrow","rightarrow","rightarrow","leftarrow","rightarrow"],"horizon":10,"forced_choices":["leftarrow","leftarrow","leftarrow","rightarrow"],"right_color":"lightblue","left_color":"orange","left_mu":40,"right_mu":44,"left_numbers":[36,25,25,34,44,34,43,45,54,35],"right_numbers":[34,58,42,50,46,52,44,44,25,56],"points_earned":414,"phase":"task","trial_type":"horizons-task","trial_index":73,"time_elapsed":830845,"internal_node_id":"0.0-69.0","task_version":"0.2"},{"response_times":[456.92999998573214,634.0299999574199,453.8949999259785,570.4150000819936,424.44000008981675],"keys_pressed":["rightarrow","rightarrow","rightarrow","leftarrow","leftarrow"],"horizon":5,"forced_choices":["rightarrow","rightarrow","rightarrow","leftarrow"],"right_color":"lightblue","left_color":"orange","left_mu":40,"right_mu":20,"left_numbers":[33,59,38,35,44],"right_numbers":[21,20,22,9,18],"points_earned":142,"phase":"task","trial_type":"horizons-task","trial_index":74,"time_elapsed":834893,"internal_node_id":"0.0-70.0","task_version":"0.2"},{"response_times":[461.94499998819083,384.5199999632314,360.98500003572553,418.55499998200685,1433.034999994561,458.37999996729195,333.90500000678,356.7449999973178,225.59499996714294,202.46000005863607],"keys_pressed":["leftarrow","leftarrow","leftarrow","rightarrow","rightarrow","rightarrow","leftarrow","rightarrow","rightarrow","rightarrow"],"horizon":10,"forced_choices":["leftarrow","leftarrow","leftarrow","rightarrow"],"right_color":"orange","left_color":"lightblue","left_mu":40,"right_mu":70,"left_numbers":[39,44,38,31,47,47,34,40,17,51],"right_numbers":[70,66,71,62,56,60,78,73,70,68],"points_earned":544,"phase":"task","trial_type":"horizons-task","trial_index":75,"time_elapsed":841038,"internal_node_id":"0.0-71.0","task_version":"0.2"},{"response_times":[524.9099999200553,372.40999995265156,486.03000002913177,646.1500000441447,717.464999994263,700.3849999746308,406.2250000424683,194.5849999319762,591.3149999687448,161.240000044927],"keys_pressed":["leftarrow","rightarrow","rightarrow","leftarrow","leftarrow","rightarrow","leftarrow","leftarrow","leftarrow","leftarrow"],"horizon":10,"forced_choices":["leftarrow","rightarrow","rightarrow","leftarrow"],"right_color":"lightblue","left_color":"orange","left_mu":60,"right_mu":40,"left_numbers":[54,62,47,61,74,70,54,61,55,56],"right_numbers":[43,40,39,50,38,45,32,48,38,25],"points_earned":539,"phase":"task","trial_type":"horizons-task","trial_index":76,"time_elapsed":847345,"internal_node_id":"0.0-72.0","task_version":"0.2"},{"response_times":[378.0549999792129,375.1349999802187,371.9849999761209,444.54499997664243,543.5150000266731],"keys_pressed":["leftarrow","leftarrow","rightarrow","leftarrow","leftarrow"],"horizon":5,"forced_choices":["leftarrow","leftarrow","rightarrow","leftarrow"],"right_color":"orange","left_color":"lightblue","left_mu":40,"right_mu":36,"left_numbers":[57,33,36,43,40],"right_numbers":[43,46,22,45,44],"points_earned":195,"phase":"task","trial_type":"horizons-task","trial_index":77,"time_elapsed":850966,"internal_node_id":"0.0-73.0","task_version":"0.2"},{"response_times":[394.03999992646277,373.8049999810755,451.60499995108694,439.52499993611127,1020.3299999702722,349.9950000550598,414.41000008489937,373.3350000111386,422.8400000138208,205.420000012964],"keys_pressed":["leftarrow","leftarrow","rightarrow","rightarrow","leftarrow","leftarrow","leftarrow","leftarrow","rightarrow","leftarrow"],"horizon":10,"forced_choices":["leftarrow","leftarrow","rightarrow","rightarrow"],"right_color":"lightblue","left_color":"orange","left_mu":40,"right_mu":10,"left_numbers":[43,40,49,45,52,49,26,35,40,45],"right_numbers":[10,19,10,5,14,2,11,5,9,12],"points_earned":314,"phase":"task","trial_type":"horizons-task","trial_index":78,"time_elapsed":856918,"internal_node_id":"0.0-74.0","task_version":"0.2"},{"response_times":[451.1149999452755,426.65999999735504,632.8349999384955,402.08499995060265,580.7999999960884],"keys_pressed":["leftarrow","rightarrow","rightarrow","rightarrow","rightarrow"],"horizon":5,"forced_choices":["leftarrow","rightarrow","rightarrow","rightarrow"],"right_color":"orange","left_color":"lightblue","left_mu":60,"right_mu":68,"left_numbers":[57,43,65,62,51],"right_numbers":[74,69,73,72,65],"points_earned":336,"phase":"task","trial_type":"horizons-task","trial_index":79,"time_elapsed":860917,"internal_node_id":"0.0-75.0","task_version":"0.2"},{"response_times":[689.3649999983609,333.2749999826774,413.4949999861419,409.6900000004098,1020.6600000383332,375.5700000328943,468.2549999561161,516.7600000277162,353.8549999939278,164.3149999435991],"keys_pressed":["leftarrow","leftarrow","rightarrow","rightarrow","leftarrow","rightarrow","leftarrow","rightarrow","leftarrow","leftarrow"],"horizon":10,"forced_choices":["leftarrow","leftarrow","rightarrow","rightarrow"],"right_color":"lightblue","left_color":"orange","left_mu":40,"right_mu":28,"left_numbers":[39,41,41,31,45,44,31,35,35,47],"right_numbers":[26,25,30,39,19,26,24,24,33,30],"points_earned":357,"phase":"task","trial_type":"horizons-task","trial_index":80,"time_elapsed":867169,"internal_node_id":"0.0-76.0","task_version":"0.2"},{"response_times":[536.420000018552,356.9150000112131,380.31999999657273,1131.3550000777468,679.270000080578],"keys_pressed":["rightarrow","leftarrow","rightarrow","leftarrow","rightarrow"],"horizon":5,"forced_choices":["rightarrow","leftarrow","rightarrow","leftarrow"],"right_color":"lightblue","left_color":"orange","left_mu":60,"right_mu":64,"left_numbers":[41,55,64,58,61],"right_numbers":[69,55,64,57,49],"points_earned":295,"phase":"task","trial_type":"horizons-task","trial_index":81,"time_elapsed":871762,"internal_node_id":"0.0-77.0","task_version":"0.2"},{"response_times":[677.9749999986961,381.95499998982996,366.72499997075647,435.47000002581626,2961.669999989681,415.2349999640137,331.20999997481704,442.2999999951571,251.57000008039176,232.87000006530434],"keys_pressed":["leftarrow","rightarrow","leftarrow","rightarrow","leftarrow","leftarrow","rightarrow","leftarrow","leftarrow","leftarrow"],"horizon":10,"forced_choices":["leftarrow","rightarrow","leftarrow","rightarrow"],"right_color":"lightblue","left_color":"orange","left_mu":40,"right_mu":32,"left_numbers":[53,34,37,23,42,40,27,44,39,39],"right_numbers":[37,32,40,34,33,25,35,37,36,38],"points_earned":395,"phase":"task","trial_type":"horizons-task","trial_index":82,"time_elapsed":879763,"internal_node_id":"0.0-78.0","task_version":"0.2"},{"response_times":[477.62000001966953,391.78499998524785,362.6899999799207,701.4000000199303,696.2550000753254],"keys_pressed":["rightarrow","rightarrow","leftarrow","rightarrow","rightarrow"],"horizon":5,"forced_choices":["rightarrow","rightarrow","leftarrow","rightarrow"],"right_color":"orange","left_color":"lightblue","left_mu":60,"right_mu":56,"left_numbers":[70,72,44,66,47],"right_numbers":[49,56,64,67,44],"points_earned":260,"phase":"task","trial_type":"horizons-task","trial_index":83,"time_elapsed":883902,"internal_node_id":"0.0-79.0","task_version":"0.2"},{"response_times":[469.25500000361353,321.86499994713813,473.4049999387935,369.6650000056252,1731.7800000309944,866.6250000242144,216.46999998483807,346.3450000854209,325.30500006396323,372.3600000375882],"keys_pressed":["leftarrow","rightarrow","rightarrow","leftarrow","rightarrow","leftarrow","rightarrow","rightarrow","rightarrow","rightarrow"],"horizon":10,"forced_choices":["leftarrow","rightarrow","rightarrow","leftarrow"],"right_color":"orange","left_color":"lightblue","left_mu":60,"right_mu":80,"left_numbers":[74,73,59,64,57,63,73,65,67,47],"right_numbers":[79,78,79,78,100,63,84,76,99,65],"points_earned":782,"phase":"task","trial_type":"horizons-task","trial_index":84,"time_elapsed":890901,"internal_node_id":"0.0-80.0","task_version":"0.2"},{"response_times":[427.08500009030104,364.01999997906387,445.65999996848404,795.2899999218062,534.3400000128895],"keys_pressed":["rightarrow","leftarrow","leftarrow","rightarrow","rightarrow"],"horizon":5,"forced_choices":["rightarrow","leftarrow","leftarrow","rightarrow"],"right_color":"orange","left_color":"lightblue","left_mu":60,"right_mu":90,"left_numbers":[56,69,66,53,60],"right_numbers":[74,76,77,92,114],"points_earned":415,"phase":"task","trial_type":"horizons-task","trial_index":85,"time_elapsed":894979,"internal_node_id":"0.0-81.0","task_version":"0.2"},{"response_times":[694.9550000717863,392.8349999478087,439.33000008109957,405.570000060834,662.6649999525398],"keys_pressed":["rightarrow","leftarrow","leftarrow","leftarrow","leftarrow"],"horizon":5,"forced_choices":["rightarrow","leftarrow","leftarrow","leftarrow"],"right_color":"lightblue","left_color":"orange","left_mu":60,"right_mu":30,"left_numbers":[55,61,59,65,57],"right_numbers":[23,28,32,32,24],"points_earned":265,"phase":"task","trial_type":"horizons-task","trial_index":86,"time_elapsed":899082,"internal_node_id":"0.0-82.0","task_version":"0.2"},{"response_times":[360.7049999991432,322.7300000144169,453.719999990426,469.84999999403954,807.1500000078231,475.7749999407679,516.3700000848621,428.8149999920279,282.52000000793487,211.77500009071082],"keys_pressed":["rightarrow","leftarrow","leftarrow","rightarrow","rightarrow","rightarrow","rightarrow","rightarrow","rightarrow","rightarrow"],"horizon":10,"forced_choices":["rightarrow","leftarrow","leftarrow","rightarrow"],"right_color":"orange","left_color":"lightblue","left_mu":60,"right_mu":90,"left_numbers":[73,64,51,49,59,63,58,59,69,68],"right_numbers":[89,73,96,79,82,93,90,87,98,82],"points_earned":815,"phase":"task","trial_type":"horizons-task","trial_index":87,"time_elapsed":904919,"internal_node_id":"0.0-83.0","task_version":"0.2"},{"response_times":[1231.2099999981,469.0999999875203,547.3100000526756,511.4649999886751,527.1649999776855],"keys_pressed":["leftarrow","rightarrow","rightarrow","leftarrow","leftarrow"],"horizon":5,"forced_choices":["leftarrow","rightarrow","rightarrow","leftarrow"],"right_color":"lightblue","left_color":"orange","left_mu":60,"right_mu":52,"left_numbers":[58,64,61,61,63],"right_numbers":[54,56,50,45,38],"points_earned":288,"phase":"task","trial_type":"horizons-task","trial_index":88,"time_elapsed":909713,"internal_node_id":"0.0-84.0","task_version":"0.2"},{"response_times":[451.0400000726804,340.9699999028817,1137.73499999661,457.05500000622123,1393.9249999821186,427.38000000827014,500.31499995384365,432.6349999755621,668.790000025183,241.80499999783933],"keys_pressed":["rightarrow","leftarrow","leftarrow","rightarrow","leftarrow","rightarrow","leftarrow","rightarrow","rightarrow","rightarrow"],"horizon":10,"forced_choices":["rightarrow","leftarrow","leftarrow","rightarrow"],"right_color":"lightblue","left_color":"orange","left_mu":40,"right_mu":44,"left_numbers":[39,34,38,36,46,37,38,42,47,28],"right_numbers":[46,51,36,41,43,41,41,55,42,41],"points_earned":422,"phase":"task","trial_type":"horizons-task","trial_index":89,"time_elapsed":917275,"internal_node_id":"0.0-85.0","task_version":"0.2"},{"response_times":[690.7549999887124,439.61499992292374,657.8750000335276,379.66999993659556,352.82499995082617],"keys_pressed":["rightarrow","rightarrow","leftarrow","rightarrow","rightarrow"],"horizon":5,"forced_choices":["rightarrow","rightarrow","leftarrow","rightarrow"],"right_color":"orange","left_color":"lightblue","left_mu":60,"right_mu":80,"left_numbers":[67,72,53,63,50],"right_numbers":[86,75,84,80,71],"points_earned":365,"phase":"task","trial_type":"horizons-task","trial_index":90,"time_elapsed":921302,"internal_node_id":"0.0-86.0","task_version":"0.2"},{"response_times":[443.0949999950826,340.65500006545335,363.16499998793006,424.9149999814108,1199.7800000244752],"keys_pressed":["leftarrow","rightarrow","leftarrow","rightarrow","rightarrow"],"horizon":5,"forced_choices":["leftarrow","rightarrow","leftarrow","rightarrow"],"right_color":"orange","left_color":"lightblue","left_mu":40,"right_mu":52,"left_numbers":[37,24,49,43,43],"right_numbers":[42,57,36,43,41],"points_earned":227,"phase":"task","trial_type":"horizons-task","trial_index":91,"time_elapsed":925578,"internal_node_id":"0.0-87.0","task_version":"0.2"},{"rt":19844.85999995377,"responses":{"age":"18","gender-categorical":"Other","gender-free-response":"non-binary","ethnicity":"Hispanic or Latino","race":["White"],"language":"No","fluency":"Very well"},"survey":"demographics","trial_type":"survey-demo","trial_index":92,"time_elapsed":945428,"internal_node_id":"0.0-88.0","task_version":"0.2"},{"rt":37744.390000007115,"responses":{"difficulty":"4","fun":"4","clarity":"5","strategy":"I just played on gut feelings and instincts","feedback":""},"survey":"debrief","trial_type":"survey-debrief","trial_index":93,"time_elapsed":983177,"internal_node_id":"0.0-89.0","task_version":"0.2","interactions":"[{\"event\":\"blur\",\"trial\":51,\"time\":604486},{\"event\":\"focus\",\"trial\":51,\"time\":697017}]"}]