[{"view_history":"[{\"page_index\":0,\"viewing_time\":4697.694999995292}]","rt":4698.374999992666,"trial_type":"instructions","trial_index":0,"time_elapsed":4703,"internal_node_id":"0.0-0.0","task_version":"0.2"},{"item_order":[12,7,5,11,2,8,1,3,6,9,10,4,0],"responses":{"Q13":"4","Q08":"3","Q06":"0","Q12":"3","Q03":"3","Q09":"3","Q02":"4","Q04":"3","Q07":"3","Q10":"3","Q11":"2","Q05":"3","Q01":"3"},"radio_events":[3916.3449999905424,7853.784999999334,15667.799999995623,20624.66499999573,25946.209999994608,29796.629999997094,36346.59499999543,41458.559999999125,45118.69499999739,48020.94499999657,51288.36500000034,57043.35500000161,63244.98999999196,65889.58999999159],"key_events":[],"mouse_events":[0.23999999393709004,3494.269999995595,3916.3449999905424,7853.784999999334,15667.799999995623,20624.66499999573,25946.209999994608,29796.629999997094,36346.59499999543,41458.559999999125,45118.69499999739,48020.94499999657,51288.36500000034,57043.35500000161,63244.98999999196,65889.58999999159,66819.65499999933],"rt":66821.85999999638,"survey":"ius12","trial_type":"survey-template","trial_index":1,"time_elapsed":71530,"internal_node_id":"0.0-1.0","task_version":"0.2"},{"item_order":[12,15,9,0,5,13,8,10,7,6,14,3,11,4,1,2],"responses":{"Q13":"4","Q16":"5","Q10":"4","Q01":"4","Q06":"4","Q14":"1","Q09":"4","Q11":"3","Q08":"5","Q07":"5","Q15":"4","Q04":"4","Q12":"4","Q05":"5","Q02":"2","Q03":"4"},"radio_events":[3709.920000008424,11426.035000011325,13850.734999999986,16674.76500000339,24322.78500001121,30388.554999997723,34417.2499999986,41913.21500000777,45193.410000007134,48839.280000000144,52863.82500000764,57288.97500000312,61211.43999999913,66829.25999999861,70757.7200000087,74778.27500000421,80734.40000000119],"key_events":[],"mouse_events":[3709.920000008424,7882.96000000264,11426.035000011325,13850.734999999986,16674.76500000339,24322.78500001121,30388.554999997723,34417.2499999986,41913.21500000777,44727.46000000916,45193.410000007134,47988.97000000579,48839.280000000144,52863.82500000764,57288.97500000312,61211.43999999913,66097.55500000028,66829.25999999861,70757.7200000087,74778.27500000421,75605.47500000393,80734.40000000119,82882.71000000532],"rt":82885.45000000158,"survey":"nfc","trial_type":"survey-template","trial_index":2,"time_elapsed":154420,"internal_node_id":"0.0-2.0","task_version":"0.2"},{"item_order":[11,3,6,2,15,10,12,9,5,1,4,13,8,16,7,14,0],"responses":{"Q12":"3","Q04":"4","Q07":"4","Q03":"4","Q16":"3","Q11":"1","Q13":"3","Q10":"4","Q06":"3","Q02":"3","Q05":"3","Q14":"2","Q09":"1","Q17":"0","Q08":"3","Q15":"3","Q01":"3"},"radio_events":[3896.280000000843,7822.729999999865,9827.259999990929,12504.289999997127,15232.795000003534,19518.21999999811,23348.715000000084,26435.154999999213,27997.354999999516,29968.5349999927,33163.36500000034,37784.62500000023,43601.39499999059,46705.764999991516,49413.220000002184,52143.7750000041,57929.30000000342,60251.55000000086],"key_events":[],"mouse_events":[3896.280000000843,7822.729999999865,9827.259999990929,12504.289999997127,15232.795000003534,19131.710000001476,19518.21999999811,23348.715000000084,26435.154999999213,27997.354999999516,29968.5349999927,33163.36500000034,37784.62500000023,43601.39499999059,46705.764999991516,49413.220000002184,52143.7750000041,57929.30000000342,60251.55000000086,61295.87499999616],"rt":61298.20999999356,"survey":"pswq","trial_type":"survey-template","trial_index":3,"time_elapsed":215722,"internal_node_id":"0.0-3.0","task_version":"0.2"},{"view_history":"[{\"page_index\":0,\"viewing_time\":4514.2849999974715},{\"page_index\":1,\"viewing_time\":5460.814999998547},{\"page_index\":2,\"viewing_time\":9234.165000001667},{\"page_index\":3,\"viewing_time\":7825.754999998026},{\"page_index\":4,\"viewing_time\":4073.260000004666},{\"page_index\":5,\"viewing_time\":2726.620000001276},{\"page_index\":6,\"viewing_time\":6118.84499998996},{\"page_index\":7,\"viewing_time\":17540.60500000196},{\"page_index\":8,\"viewing_time\":6571.51999999769},{\"page_index\":9,\"viewing_time\":9330.249999999069}]","rt":73396.79499999329,"trial_type":"instructions","trial_index":4,"time_elapsed":289121,"internal_node_id":"0.0-4.0-0.0","task_version":"0.2"},{"response_times":[5890.834999998333,1094.0799999953015,1497.4499999952968,1590.2550000027986,1476.0450000030687],"keys_pressed":["rightarrow","leftarrow","rightarrow","rightarrow","leftarrow"],"horizon":5,"forced_choices":["rightarrow","leftarrow","rightarrow","rightarrow"],"right_color":"lightblue","left_color":"orange","left_mu":40,"right_mu":20,"left_numbers":[41,51,32,45,37],"right_numbers":[17,26,19,22,18],"points_earned":146,"phase":"practice","trial_type":"horizons-task","trial_index":5,"time_elapsed":302181,"internal_node_id":"0.0-4.0-1.0","task_version":"0.2"},{"response_times":[1309.3800000060583,1105.279999988852,1066.2500000034925,1493.9999999915017,4192.540000003646,1978.4300000028452,3243.9850000082515,2568.2549999910407,1828.3050000027288,871.1400000029244],"keys_pressed":["leftarrow","leftarrow","rightarrow","rightarrow","rightarrow","rightarrow","rightarrow","rightarrow","rightarrow","rightarrow"],"horizon":10,"forced_choices":["leftarrow","leftarrow","rightarrow","rightarrow"],"right_color":"orange","left_color":"lightblue","left_mu":60,"right_mu":70,"left_numbers":[62,73,53,53,56,73,51,63,62,47],"right_numbers":[69,56,71,74,84,60,74,64,80,67],"points_earned":709,"phase":"practice","trial_type":"horizons-task","trial_index":6,"time_elapsed":323346,"internal_node_id":"0.0-4.0-2.0","task_version":"0.2"},{"view_history":"[{\"page_index\":0,\"viewing_time\":3422.724999996717},{\"page_index\":1,\"viewing_time\":2962.8650000086054},{\"page_index\":2,\"viewing_time\":4120.964999994612},{\"page_index\":3,\"viewing_time\":2722.410000002128}]","rt":13229.200000001583,"trial_type":"instructions","trial_index":7,"time_elapsed":336575,"internal_node_id":"0.0-4.0-3.0","task_version":"0.2"},{"responses":["true","false","true"],"num_errors":0,"rt":20748.494999992545,"trial_type":"horizons-comprehension","trial_index":8,"time_elapsed":357326,"internal_node_id":"0.0-4.0-4.0","task_version":"0.2"},{"trial_type":"call-function","trial_index":9,"time_elapsed":357328,"internal_node_id":"0.0-5.0","task_version":"0.2"},{"view_history":"[{\"page_index\":0,\"viewing_time\":6892.964999991818},{\"page_index\":1,\"viewing_time\":3781.510000000708}]","rt":10674.809999996796,"trial_type":"instructions","trial_index":10,"time_elapsed":368004,"internal_node_id":"0.0-6.0","task_version":"0.2"},{"response_times":[1639.7449999931268,532.0700000011129,794.9899999948684,1175.020000009681,833.2400000072084],"keys_pressed":["leftarrow","rightarrow","rightarrow","leftarrow","rightarrow"],"horizon":5,"forced_choices":["leftarrow","rightarrow","rightarrow","leftarrow"],"right_color":"orange","left_color":"lightblue","left_mu":60,"right_mu":90,"left_numbers":[46,69,65,58,70],"right_numbers":[79,92,102,84,92],"points_earned":390,"phase":"task","trial_type":"horizons-task","trial_index":11,"time_elapsed":374488,"internal_node_id":"0.0-7.0","task_version":"0.2"},{"response_times":[1572.439999989001,538.2449999888195,740.0199999974575,718.0499999958556,1798.2049999991432,1693.345000006957,1623.9150000037625,670.0699999928474,641.1899999948218,604.9350000103004],"keys_pressed":["rightarrow","leftarrow","leftarrow","rightarrow","rightarrow","rightarrow","rightarrow","rightarrow","rightarrow","rightarrow"],"horizon":10,"forced_choices":["rightarrow","leftarrow","leftarrow","rightarrow"],"right_color":"lightblue","left_color":"orange","left_mu":40,"right_mu":44,"left_numbers":[38,34,40,41,46,51,36,26,34,50],"right_numbers":[47,39,46,49,45,38,39,53,39,54],"points_earned":438,"phase":"task","trial_type":"horizons-task","trial_index":12,"time_elapsed":386594,"internal_node_id":"0.0-8.0","task_version":"0.2"},{"response_times":[1228.7100000103237,794.3399999930989,500.6800000119256,837.0549999963259,2163.3850000071106],"keys_pressed":["leftarrow","leftarrow","rightarrow","leftarrow","leftarrow"],"horizon":5,"forced_choices":["leftarrow","leftarrow","rightarrow","leftarrow"],"right_color":"orange","left_color":"lightblue","left_mu":60,"right_mu":52,"left_numbers":[62,60,60,59,59],"right_numbers":[47,49,56,48,54],"points_earned":296,"phase":"task","trial_type":"horizons-task","trial_index":13,"time_elapsed":393624,"internal_node_id":"0.0-9.0","task_version":"0.2"},{"response_times":[1304.279999996652,680.1199999899836,776.9249999983003,772.0850000041537,937.2799999982817],"keys_pressed":["leftarrow","rightarrow","rightarrow","rightarrow","leftarrow"],"horizon":5,"forced_choices":["leftarrow","rightarrow","rightarrow","rightarrow"],"right_color":"lightblue","left_color":"orange","left_mu":60,"right_mu":30,"left_numbers":[53,60,59,51,75],"right_numbers":[33,31,29,32,25],"points_earned":220,"phase":"task","trial_type":"horizons-task","trial_index":14,"time_elapsed":399599,"internal_node_id":"0.0-10.0","task_version":"0.2"},{"response_times":[1082.2299999999814,560.6000000116182,644.0650000004098,688.0749999982072,1129.144999998971,1433.2350000040606,834.0650000027381,784.1650000045775,1025.1450000068871,825.0949999928707],"keys_pressed":["leftarrow","leftarrow","rightarrow","rightarrow","leftarrow","leftarrow","leftarrow","leftarrow","leftarrow","leftarrow"],"horizon":10,"forced_choices":["leftarrow","leftarrow","rightarrow","rightarrow"],"right_color":"orange","left_color":"lightblue","left_mu":40,"right_mu":32,"left_numbers":[40,50,51,46,27,38,47,31,37,49],"right_numbers":[25,28,23,25,28,48,39,34,19,37],"points_earned":367,"phase":"task","trial_type":"horizons-task","trial_index":15,"time_elapsed":410115,"internal_node_id":"0.0-11.0","task_version":"0.2"},{"response_times":[1301.2799999996787,885.695000004489,724.2799999949057,685.989999998128,1080.1700000010896],"keys_pressed":["rightarrow","rightarrow","leftarrow","leftarrow","leftarrow"],"horizon":5,"forced_choices":["rightarrow","rightarrow","leftarrow","leftarrow"],"right_color":"orange","left_color":"lightblue","left_mu":60,"right_mu":40,"left_numbers":[65,54,56,75,68],"right_numbers":[36,56,36,58,41],"points_earned":291,"phase":"task","trial_type":"horizons-task","trial_index":16,"time_elapsed":416303,"internal_node_id":"0.0-12.0","task_version":"0.2"},{"response_times":[799.4849999959115,646.1350000026869,723.1000000028871,646.020000000135,2833.664999998291,2116.8349999934435,1900.2500000060536,536.1399999965215,617.99999998766,577.980000001844],"keys_pressed":["leftarrow","rightarrow","leftarrow","leftarrow","rightarrow","leftarrow","leftarrow","rightarrow","rightarrow","rightarrow"],"horizon":10,"forced_choices":["leftarrow","rightarrow","leftarrow","leftarrow"],"right_color":"lightblue","left_color":"orange","left_mu":40,"right_mu":44,"left_numbers":[54,43,50,26,21,43,27,48,45,47],"right_numbers":[52,50,49,35,46,44,36,50,55,42],"points_earned":443,"phase":"task","trial_type":"horizons-task","trial_index":17,"time_elapsed":429206,"internal_node_id":"0.0-13.0","task_version":"0.2"},{"response_times":[657.9800000035902,662.6399999950081,510.28500001120847,736.8249999999534,1933.3699999988312,606.4400000032037,568.72999999905,645.9049999975832,1590.1599999924656,505.9750000073109],"keys_pressed":["rightarrow","leftarrow","rightarrow","leftarrow","leftarrow","leftarrow","leftarrow","leftarrow","leftarrow","leftarrow"],"horizon":10,"forced_choices":["rightarrow","leftarrow","rightarrow","leftarrow"],"right_color":"lightblue","left_color":"orange","left_mu":40,"right_mu":36,"left_numbers":[25,28,57,43,41,55,44,32,32,33],"right_numbers":[26,33,23,39,29,53,23,34,31,49],"points_earned":357,"phase":"task","trial_type":"horizons-task","trial_index":18,"time_elapsed":439129,"internal_node_id":"0.0-14.0","task_version":"0.2"},{"response_times":[809.1549999953713,561.0400000005029,616.1299999948824,705.0949999975273,1991.6899999952875],"keys_pressed":["rightarrow","leftarrow","rightarrow","leftarrow","leftarrow"],"horizon":5,"forced_choices":["rightarrow","leftarrow","rightarrow","leftarrow"],"right_color":"lightblue","left_color":"orange","left_mu":40,"right_mu":36,"left_numbers":[46,40,35,49,50],"right_numbers":[37,32,39,57,24],"points_earned":215,"phase":"task","trial_type":"horizons-task","trial_index":19,"time_elapsed":445319,"internal_node_id":"0.0-15.0","task_version":"0.2"},{"response_times":[669.6499999961816,552.0649999962188,550.0100000062957,614.0349999914179,2179.279999996652,2928.8700000033714,606.5349999989849,1041.3400000106776,1211.8900000059512,646.1549999949057],"keys_pressed":["rightarrow","rightarrow","leftarrow","rightarrow","leftarrow","leftarrow","rightarrow","rightarrow","rightarrow","leftarrow"],"horizon":10,"forced_choices":["rightarrow","rightarrow","leftarrow","rightarrow"],"right_color":"lightblue","left_color":"orange","left_mu":40,"right_mu":36,"left_numbers":[42,35,37,34,43,34,50,39,27,30],"right_numbers":[42,40,34,28,41,33,31,30,36,34],"points_earned":351,"phase":"task","trial_type":"horizons-task","trial_index":20,"time_elapsed":457825,"internal_node_id":"0.0-16.0","task_version":"0.2"},{"response_times":[576.9599999912316,616.8550000002142,468.05000001040753,1905.2749999973457,1537.5550000026124],"keys_pressed":["rightarrow","rightarrow","leftarrow","leftarrow","rightarrow"],"horizon":5,"forced_choices":["rightarrow","rightarrow","leftarrow","leftarrow"],"right_color":"orange","left_color":"lightblue","left_mu":60,"right_mu":68,"left_numbers":[68,57,59,69,52],"right_numbers":[63,77,61,86,51],"points_earned":319,"phase":"task","trial_type":"horizons-task","trial_index":21,"time_elapsed":464434,"internal_node_id":"0.0-17.0","task_version":"0.2"},{"response_times":[766.300000002957,503.80500000028405,546.0999999922933,888.9649999910034,1592.3000000038883,737.0349999982864,898.0000000010477,741.2799999874551,1484.890000006999,477.12999999930616],"keys_pressed":["rightarrow","leftarrow","rightarrow","rightarrow","leftarrow","leftarrow","leftarrow","leftarrow","leftarrow","leftarrow"],"horizon":10,"forced_choices":["rightarrow","leftarrow","rightarrow","rightarrow"],"right_color":"orange","left_color":"lightblue","left_mu":40,"right_mu":28,"left_numbers":[40,44,36,42,48,37,35,40,45,47],"right_numbers":[36,31,28,16,19,21,27,29,35,22],"points_earned":376,"phase":"task","trial_type":"horizons-task","trial_index":22,"time_elapsed":474576,"internal_node_id":"0.0-18.0","task_version":"0.2"},{"response_times":[580.9300000109943,551.0550000035437,630.9699999983422,711.1949999962235,2063.624999995227,658.6450000031618,606.0100000031525,492.93999999645166,576.2749999994412,704.8500000091735],"keys_pressed":["rightarrow","leftarrow","leftarrow","leftarrow","leftarrow","leftarrow","leftarrow","leftarrow","leftarrow","leftarrow"],"horizon":10,"forced_choices":["rightarrow","leftarrow","leftarrow","leftarrow"],"right_color":"orange","left_color":"lightblue","left_mu":60,"right_mu":40,"left_numbers":[39,63,57,63,67,59,62,77,49,50],"right_numbers":[41,39,44,47,34,34,42,48,33,37],"points_earned":588,"phase":"task","trial_type":"horizons-task","trial_index":23,"time_elapsed":483658,"internal_node_id":"0.0-19.0","task_version":"0.2"},{"response_times":[657.2549999982584,548.4850000066217,843.3850000001257,778.2449999940582,742.8249999938998],"keys_pressed":["leftarrow","rightarrow","rightarrow","leftarrow","rightarrow"],"horizon":5,"forced_choices":["leftarrow","rightarrow","rightarrow","leftarrow"],"right_color":"orange","left_color":"lightblue","left_mu":40,"right_mu":70,"left_numbers":[37,41,46,44,31],"right_numbers":[64,83,73,77,61],"points_earned":298,"phase":"task","trial_type":"horizons-task","trial_index":24,"time_elapsed":488734,"internal_node_id":"0.0-20.0","task_version":"0.2"},{"response_times":[530.7549999997718,524.7950000048149,637.3250000033295,1038.2050000043819,746.8099999969127],"keys_pressed":["rightarrow","leftarrow","leftarrow","rightarrow","rightarrow"],"horizon":5,"forced_choices":["rightarrow","leftarrow","leftarrow","rightarrow"],"right_color":"orange","left_color":"lightblue","left_mu":60,"right_mu":64,"left_numbers":[57,45,39,72,53],"right_numbers":[66,72,48,64,75],"points_earned":289,"phase":"task","trial_type":"horizons-task","trial_index":25,"time_elapsed":493717,"internal_node_id":"0.0-21.0","task_version":"0.2"},{"response_times":[508.4449999994831,581.0849999979837,682.2200000024168,567.8900000057183,913.234999999986,524.955000000773,651.4549999992596,723.7650000024587,1040.9099999960745,473.2999999978347],"keys_pressed":["rightarrow","rightarrow","rightarrow","leftarrow","leftarrow","leftarrow","leftarrow","leftarrow","leftarrow","leftarrow"],"horizon":10,"forced_choices":["rightarrow","rightarrow","rightarrow","leftarrow"],"right_color":"orange","left_color":"lightblue","left_mu":40,"right_mu":10,"left_numbers":[38,38,38,43,37,37,46,46,41,40],"right_numbers":[17,0,9,10,13,19,4,12,2,15],"points_earned":316,"phase":"task","trial_type":"horizons-task","trial_index":26,"time_elapsed":501890,"internal_node_id":"0.0-22.0","task_version":"0.2"},{"response_times":[617.629999993369,507.2500000096625,553.0949999956647,720.8150000078604,2300.3699999972014,940.1999999972759,1734.8650000058115,565.1899999938905,626.0550000006333,553.2000000093831],"keys_pressed":["leftarrow","rightarrow","rightarrow","leftarrow","leftarrow","leftarrow","leftarrow","leftarrow","leftarrow","leftarrow"],"horizon":10,"forced_choices":["leftarrow","rightarrow","rightarrow","leftarrow"],"right_color":"lightblue","left_color":"orange","left_mu":60,"right_mu":56,"left_numbers":[66,63,67,80,62,55,61,54,52,48],"right_numbers":[50,46,58,52,52,57,40,63,56,53],"points_earned":582,"phase":"task","trial_type":"horizons-task","trial_index":27,"time_elapsed":512513,"internal_node_id":"0.0-23.0","task_version":"0.2"},{"response_times":[600.4450000036741,604.5549999980722,532.9250000067987,844.1299999976764,1851.620000001276,689.8000000073807,820.979999989504,1048.0200000019977,506.11999999091495,552.2449999989476],"keys_pressed":["rightarrow","leftarrow","leftarrow","rightarrow","leftarrow","leftarrow","leftarrow","leftarrow","leftarrow","leftarrow"],"horizon":10,"forced_choices":["rightarrow","leftarrow","leftarrow","rightarrow"],"right_color":"orange","left_color":"lightblue","left_mu":60,"right_mu":64,"left_numbers":[58,49,63,54,45,61,69,65,63,68],"right_numbers":[57,66,51,51,73,66,73,62,70,56],"points_earned":591,"phase":"task","trial_type":"horizons-task","trial_index":28,"time_elapsed":522069,"internal_node_id":"0.0-24.0","task_version":"0.2"},{"response_times":[553.4950000001118,471.0650000051828,419.38500000105705,1409.7150000015972,763.1149999942863],"keys_pressed":["rightarrow","leftarrow","rightarrow","leftarrow","rightarrow"],"horizon":5,"forced_choices":["rightarrow","leftarrow","rightarrow","leftarrow"],"right_color":"lightblue","left_color":"orange","left_mu":40,"right_mu":60,"left_numbers":[40,35,40,39,44],"right_numbers":[61,65,65,65,56],"points_earned":256,"phase":"task","trial_type":"horizons-task","trial_index":29,"time_elapsed":527192,"internal_node_id":"0.0-25.0","task_version":"0.2"},{"response_times":[537.994999991497,552.4750000040513,517.9099999950267,750.0850000069477,916.1549999989802,516.3299999985611,470.6350000051316,520.9999999933643,495.10500000906177,540.0300000037532],"keys_pressed":["leftarrow","leftarrow","rightarrow","leftarrow","leftarrow","leftarrow","leftarrow","leftarrow","leftarrow","leftarrow"],"horizon":10,"forced_choices":["leftarrow","leftarrow","rightarrow","leftarrow"],"right_color":"orange","left_color":"lightblue","left_mu":60,"right_mu":52,"left_numbers":[53,62,49,50,62,71,63,70,61,67],"right_numbers":[48,65,33,57,62,47,58,43,51,56],"points_earned":592,"phase":"task","trial_type":"horizons-task","trial_index":30,"time_elapsed":534515,"internal_node_id":"0.0-26.0","task_version":"0.2"},{"response_times":[498.23000001197215,445.50999999046326,593.1050000071991,510.09999999951106,1005.9750000073109],"keys_pressed":["rightarrow","rightarrow","rightarrow","leftarrow","leftarrow"],"horizon":5,"forced_choices":["rightarrow","rightarrow","rightarrow","leftarrow"],"right_color":"orange","left_color":"lightblue","left_mu":40,"right_mu":10,"left_numbers":[46,43,48,43,40],"right_numbers":[8,20,0,0,9],"points_earned":111,"phase":"task","trial_type":"horizons-task","trial_index":31,"time_elapsed":539073,"internal_node_id":"0.0-27.0","task_version":"0.2"},{"response_times":[752.7000000118278,529.8749999928987,644.1999999951804,535.1550000050338,1408.9450000028592],"keys_pressed":["leftarrow","leftarrow","leftarrow","rightarrow","rightarrow"],"horizon":5,"forced_choices":["leftarrow","leftarrow","leftarrow","rightarrow"],"right_color":"orange","left_color":"lightblue","left_mu":40,"right_mu":70,"left_numbers":[48,33,39,37,46],"right_numbers":[76,59,75,75,73],"points_earned":268,"phase":"task","trial_type":"horizons-task","trial_index":32,"time_elapsed":544449,"internal_node_id":"0.0-28.0","task_version":"0.2"},{"response_times":[581.9349999947008,408.72000000672415,516.0299999988638,515.1000000041677,1910.5100000015227,726.8000000040047,557.2499999980209,860.9799999976531,658.980000007432,483.98000000452157],"keys_pressed":["leftarrow","leftarrow","rightarrow","rightarrow","rightarrow","rightarrow","rightarrow","rightarrow","rightarrow","rightarrow"],"horizon":10,"forced_choices":["leftarrow","leftarrow","rightarrow","rightarrow"],"right_color":"lightblue","left_color":"orange","left_mu":60,"right_mu":72,"left_numbers":[55,63,64,59,56,65,56,62,67,55],"right_numbers":[78,85,68,65,70,77,86,64,63,54],"points_earned":665,"phase":"task","trial_type":"horizons-task","trial_index":33,"time_elapsed":553176,"internal_node_id":"0.0-29.0","task_version":"0.2"},{"response_times":[591.9850000063889,600.0400000048103,530.0500000012107,800.2699999924516,722.7200000052107,689.0149999962887,487.46000000392087,536.7849999893224,503.97000000521075,476.20000000461005],"keys_pressed":["leftarrow","rightarrow","rightarrow","rightarrow","leftarrow","leftarrow","leftarrow","leftarrow","leftarrow","leftarrow"],"horizon":10,"forced_choices":["leftarrow","rightarrow","rightarrow","rightarrow"],"right_color":"lightblue","left_color":"orange","left_mu":60,"right_mu":30,"left_numbers":[50,54,88,60,61,59,61,56,58,51],"right_numbers":[48,24,28,19,24,33,17,15,14,32],"points_earned":467,"phase":"task","trial_type":"horizons-task","trial_index":34,"time_elapsed":560619,"internal_node_id":"0.0-30.0","task_version":"0.2"},{"response_times":[512.0499999902677,420.01999999047257,493.0199999944307,456.14999999816064,1339.0349999972386,576.214999993681,634.0499999932945,815.1999999972759,660.9599999937927,563.9850000006845],"keys_pressed":["leftarrow","leftarrow","leftarrow","rightarrow","rightarrow","rightarrow","rightarrow","rightarrow","rightarrow","rightarrow"],"horizon":10,"forced_choices":["leftarrow","leftarrow","leftarrow","rightarrow"],"right_color":"orange","left_color":"lightblue","left_mu":60,"right_mu":90,"left_numbers":[62,57,57,56,71,60,53,49,55,63],"right_numbers":[79,79,90,100,99,108,94,89,99,88],"points_earned":853,"phase":"task","trial_type":"horizons-task","trial_index":35,"time_elapsed":568596,"internal_node_id":"0.0-31.0","task_version":"0.2"},{"response_times":[540.0050000025658,484.14499999489635,553.8499999966007,780.2299999893876,2090.219999998226],"keys_pressed":["rightarrow","leftarrow","leftarrow","leftarrow","leftarrow"],"horizon":5,"forced_choices":["rightarrow","leftarrow","leftarrow","leftarrow"],"right_color":"orange","left_color":"lightblue","left_mu":60,"right_mu":40,"left_numbers":[59,41,64,62,63],"right_numbers":[32,47,34,48,34],"points_earned":262,"phase":"task","trial_type":"horizons-task","trial_index":36,"time_elapsed":574550,"internal_node_id":"0.0-32.0","task_version":"0.2"},{"response_times":[642.3050000012154,395.07499999308493,526.3750000012806,807.7650000050198,4905.735000007553],"keys_pressed":["leftarrow","leftarrow","rightarrow","leftarrow","rightarrow"],"horizon":5,"forced_choices":["leftarrow","leftarrow","rightarrow","leftarrow"],"right_color":"orange","left_color":"lightblue","left_mu":60,"right_mu":68,"left_numbers":[53,52,52,65,62],"right_numbers":[76,65,62,41,72],"points_earned":304,"phase":"task","trial_type":"horizons-task","trial_index":37,"time_elapsed":583331,"internal_node_id":"0.0-33.0","task_version":"0.2"},{"response_times":[523.4350000100676,542.2249999974156,701.8899999966379,590.8250000065891,902.1100000099977,679.0749999927357,527.155000003404,432.1850000123959,530.8599999989383,491.2600000097882],"keys_pressed":["leftarrow","rightarrow","rightarrow","leftarrow","rightarrow","rightarrow","rightarrow","rightarrow","rightarrow","rightarrow"],"horizon":10,"forced_choices":["leftarrow","rightarrow","rightarrow","leftarrow"],"right_color":"orange","left_color":"lightblue","left_mu":60,"right_mu":90,"left_numbers":[68,59,58,64,68,79,72,73,61,60],"right_numbers":[82,110,86,92,75,93,81,92,93,96],"points_earned":858,"phase":"task","trial_type":"horizons-task","trial_index":38,"time_elapsed":590758,"internal_node_id":"0.0-34.0","task_version":"0.2"},{"response_times":[743.5100000002421,754.0250000020023,855.0799999939045,600.0400000048103,7357.285000005504,1485.2550000068732,602.6850000052946,1067.3850000021048,1211.859999995795,618.0750000057742],"keys_pressed":["rightarrow","leftarrow","leftarrow","rightarrow","rightarrow","leftarrow","leftarrow","leftarrow","leftarrow","leftarrow"],"horizon":10,"forced_choices":["rightarrow","leftarrow","leftarrow","rightarrow"],"right_color":"orange","left_color":"lightblue","left_mu":60,"right_mu":52,"left_numbers":[71,62,49,64,70,64,50,60,60,58],"right_numbers":[53,50,57,45,49,58,47,52,53,61],"points_earned":550,"phase":"task","trial_type":"horizons-task","trial_index":39,"time_elapsed":607558,"internal_node_id":"0.0-35.0","task_version":"0.2"},{"response_times":[508.91000000410713,452.1099999983562,478.1349999975646,968.235000007553,1135.2899999910733],"keys_pressed":["leftarrow","leftarrow","rightarrow","rightarrow","leftarrow"],"horizon":5,"forced_choices":["leftarrow","leftarrow","rightarrow","rightarrow"],"right_color":"orange","left_color":"lightblue","left_mu":40,"right_mu":32,"left_numbers":[37,31,38,49,34],"right_numbers":[33,28,27,26,46],"points_earned":155,"phase":"task","trial_type":"horizons-task","trial_index":40,"time_elapsed":612606,"internal_node_id":"0.0-36.0","task_version":"0.2"},{"response_times":[593.9150000049267,729.2250000027707,482.4099999968894,541.494999997667,1272.0850000041537],"keys_pressed":["leftarrow","leftarrow","rightarrow","rightarrow","leftarrow"],"horizon":5,"forced_choices":["leftarrow","leftarrow","rightarrow","rightarrow"],"right_color":"lightblue","left_color":"orange","left_mu":60,"right_mu":48,"left_numbers":[60,62,57,71,65],"right_numbers":[52,46,50,39,44],"points_earned":276,"phase":"task","trial_type":"horizons-task","trial_index":41,"time_elapsed":617732,"internal_node_id":"0.0-37.0","task_version":"0.2"},{"response_times":[692.8349999943748,469.7300000116229,501.6250000044238,510.67000000330154,569.8649999976624,499.1250000020955,503.84499999927357,435.3549999941606,489.95499999728054,405.880000005709],"keys_pressed":["leftarrow","rightarrow","rightarrow","leftarrow","rightarrow","rightarrow","rightarrow","rightarrow","rightarrow","rightarrow"],"horizon":10,"forced_choices":["leftarrow","rightarrow","rightarrow","leftarrow"],"right_color":"orange","left_color":"lightblue","left_mu":40,"right_mu":70,"left_numbers":[30,29,33,43,44,30,42,49,35,42],"right_numbers":[68,74,70,83,62,83,71,71,71,71],"points_earned":646,"phase":"task","trial_type":"horizons-task","trial_index":42,"time_elapsed":624317,"internal_node_id":"0.0-38.0","task_version":"0.2"},{"response_times":[541.6249999980209,442.8100000077393,541.110000005574,730.0800000084564,1813.4250000002794,5221.555000010994,711.9199999870034,613.1949999980861,442.8500000067288,496.04999998700805],"keys_pressed":["leftarrow","leftarrow","rightarrow","leftarrow","rightarrow","leftarrow","rightarrow","rightarrow","rightarrow","rightarrow"],"horizon":10,"forced_choices":["leftarrow","leftarrow","rightarrow","leftarrow"],"right_color":"lightblue","left_color":"orange","left_mu":40,"right_mu":48,"left_numbers":[43,44,44,50,38,38,30,37,31,42],"right_numbers":[48,49,45,55,44,60,51,45,47,58],"points_earned":465,"phase":"task","trial_type":"horizons-task","trial_index":43,"time_elapsed":637378,"internal_node_id":"0.0-39.0","task_version":"0.2"},{"response_times":[542.1449999994365,509.17499999923166,487.94000000634696,884.2250000016065,5687.614999988],"keys_pressed":["leftarrow","rightarrow","leftarrow","rightarrow","rightarrow"],"horizon":5,"forced_choices":["leftarrow","rightarrow","leftarrow","rightarrow"],"right_color":"lightblue","left_color":"orange","left_mu":40,"right_mu":52,"left_numbers":[39,40,48,41,35],"right_numbers":[49,55,59,39,49],"points_earned":230,"phase":"task","trial_type":"horizons-task","trial_index":44,"time_elapsed":646994,"internal_node_id":"0.0-40.0","task_version":"0.2"},{"response_times":[679.8899999994319,444.999999992433,567.0650000101887,580.3149999992456,2555.0749999965774,1198.019999996177,587.0149999973364,637.1000000071945,872.799999997369,630.7399999932386],"keys_pressed":["rightarrow","leftarrow","leftarrow","leftarrow","leftarrow","rightarrow","leftarrow","leftarrow","leftarrow","leftarrow"],"horizon":10,"forced_choices":["rightarrow","leftarrow","leftarrow","leftarrow"],"right_color":"lightblue","left_color":"orange","left_mu":40,"right_mu":20,"left_numbers":[46,40,48,38,38,43,37,50,35,53],"right_numbers":[20,41,15,26,21,14,17,20,12,25],"points_earned":373,"phase":"task","trial_type":"horizons-task","trial_index":45,"time_elapsed":657252,"internal_node_id":"0.0-41.0","task_version":"0.2"},{"response_times":[743.1249999935972,507.08000001031905,547.1000000106869,829.9100000003818,1226.135000004433],"keys_pressed":["rightarrow","rightarrow","leftarrow","rightarrow","leftarrow"],"horizon":5,"forced_choices":["rightarrow","rightarrow","leftarrow","rightarrow"],"right_color":"lightblue","left_color":"orange","left_mu":40,"right_mu":36,"left_numbers":[46,49,44,40,36],"right_numbers":[23,38,43,41,33],"points_earned":182,"phase":"task","trial_type":"horizons-task","trial_index":46,"time_elapsed":662611,"internal_node_id":"0.0-42.0","task_version":"0.2"},{"response_times":[779.4500000018161,732.9999999928987,503.0499999993481,793.1099999987055,3655.5700000026263],"keys_pressed":["rightarrow","leftarrow","rightarrow","rightarrow","leftarrow"],"horizon":5,"forced_choices":["rightarrow","leftarrow","rightarrow","rightarrow"],"right_color":"orange","left_color":"lightblue","left_mu":40,"right_mu":28,"left_numbers":[40,35,31,52,46],"right_numbers":[34,26,24,46,34],"points_earned":185,"phase":"task","trial_type":"horizons-task","trial_index":47,"time_elapsed":670580,"internal_node_id":"0.0-43.0","task_version":"0.2"},{"response_times":[524.425000010524,414.86999999324325,592.000000004191,443.10000000405125,1111.030000000028,523.9850000070874,470.07500000472646,444.019999995362,493.0449999956181,442.0499999978347],"keys_pressed":["rightarrow","rightarrow","leftarrow","leftarrow","leftarrow","leftarrow","leftarrow","leftarrow","leftarrow","leftarrow"],"horizon":10,"forced_choices":["rightarrow","rightarrow","leftarrow","leftarrow"],"right_color":"orange","left_color":"lightblue","left_mu":60,"right_mu":40,"left_numbers":[71,56,67,55,66,66,54,58,57,61],"right_numbers":[32,35,34,26,38,54,33,42,55,42],"points_earned":551,"phase":"task","trial_type":"horizons-task","trial_index":48,"time_elapsed":677544,"internal_node_id":"0.0-44.0","task_version":"0.2"},{"response_times":[545.060000004014,480.1900000020396,519.0750000037951,834.0150000003632,2358.15499999444],"keys_pressed":["leftarrow","rightarrow","rightarrow","rightarrow","rightarrow"],"horizon":5,"forced_choices":["leftarrow","rightarrow","rightarrow","rightarrow"],"right_color":"lightblue","left_color":"orange","left_mu":60,"right_mu":56,"left_numbers":[50,69,60,67,66],"right_numbers":[53,57,63,52,43],"points_earned":265,"phase":"task","trial_type":"horizons-task","trial_index":49,"time_elapsed":683785,"internal_node_id":"0.0-45.0","task_version":"0.2"},{"response_times":[608.8749999908032,391.14999999583233,572.9500000015832,856.5399999934016,531.6250000032596,1684.5049999974435,441.5699999954086,833.3099999872502,753.8950000016484,474.1749999957392],"keys_pressed":["leftarrow","leftarrow","rightarrow","leftarrow","rightarrow","rightarrow","rightarrow","rightarrow","rightarrow","rightarrow"],"horizon":10,"forced_choices":["leftarrow","leftarrow","rightarrow","leftarrow"],"right_color":"orange","left_color":"lightblue","left_mu":60,"right_mu":68,"left_numbers":[50,65,55,65,68,48,78,45,60,64],"right_numbers":[64,77,72,59,80,66,73,85,76,59],"points_earned":691,"phase":"task","trial_type":"horizons-task","trial_index":50,"time_elapsed":692439,"internal_node_id":"0.0-46.0","task_version":"0.2"},{"view_history":"[{\"page_index\":0,\"viewing_time\":2488.8649999920744},{\"page_index\":1,\"viewing_time\":3089.545000009821}]","rt":5578.924999994342,"trial_type":"instructions","trial_index":51,"time_elapsed":698019,"internal_node_id":"0.0-47.0","task_version":"0.2"},{"response_times":[2165.6049999874085,524.7999999992317,560.2750000107335,695.0750000105472,1286.8799999996554,613.4250000031898,474.62999999697786,422.5750000041444,386.5500000101747,412.3400000098627],"keys_pressed":["leftarrow","rightarrow","rightarrow","rightarrow","rightarrow","rightarrow","rightarrow","rightarrow","rightarrow","rightarrow"],"horizon":10,"forced_choices":["leftarrow","rightarrow","rightarrow","rightarrow"],"right_color":"lightblue","left_color":"orange","left_mu":60,"right_mu":72,"left_numbers":[53,60,65,63,56,64,44,49,64,61],"right_numbers":[57,67,61,93,67,77,65,74,73,75],"points_earned":705,"phase":"task","trial_type":"horizons-task","trial_index":52,"time_elapsed":707070,"internal_node_id":"0.0-48.0","task_version":"0.2"},{"response_times":[498.9799999893876,509.9600000103237,488.2099999958882,607.9749999917112,562.0300000009593],"keys_pressed":["leftarrow","rightarrow","leftarrow","rightarrow","rightarrow"],"horizon":5,"forced_choices":["leftarrow","rightarrow","leftarrow","rightarrow"],"right_color":"orange","left_color":"lightblue","left_mu":60,"right_mu":80,"left_numbers":[46,63,51,55,46],"right_numbers":[80,80,79,77,78],"points_earned":332,"phase":"task","trial_type":"horizons-task","trial_index":53,"time_elapsed":711243,"internal_node_id":"0.0-49.0","task_version":"0.2"},{"response_times":[497.0599999942351,420.750000004773,456.3699999998789,554.7200000000885,2633.3400000003166,3289.41000001214,1275.3149999916786,673.8749999931315,398.98500000708736,614.224999997532],"keys_pressed":["rightarrow","rightarrow","leftarrow","rightarrow","leftarrow","rightarrow","rightarrow","rightarrow","rightarrow","rightarrow"],"horizon":10,"forced_choices":["rightarrow","rightarrow","leftarrow","rightarrow"],"right_color":"orange","left_color":"lightblue","left_mu":60,"right_mu":64,"left_numbers":[47,59,67,61,63,67,53,57,52,57],"right_numbers":[56,68,60,71,59,67,73,56,48,63],"points_earned":632,"phase":"task","trial_type":"horizons-task","trial_index":54,"time_elapsed":723562,"internal_node_id":"0.0-50.0","task_version":"0.2"},{"response_times":[605.0099999993108,404.4750000030035,512.2600000031525,690.8849999890663,1434.3650000082562],"keys_pressed":["leftarrow","leftarrow","rightarrow","leftarrow","rightarrow"],"horizon":5,"forced_choices":["leftarrow","leftarrow","rightarrow","leftarrow"],"right_color":"lightblue","left_color":"orange","left_mu":40,"right_mu":48,"left_numbers":[40,37,51,37,40],"right_numbers":[49,56,40,41,44],"points_earned":198,"phase":"task","trial_type":"horizons-task","trial_index":55,"time_elapsed":728713,"internal_node_id":"0.0-51.0","task_version":"0.2"},{"response_times":[575.0849999894854,1013.1050000054529,674.0399999980582,925.3250000037951,627.9999999969732],"keys_pressed":["leftarrow","rightarrow","leftarrow","leftarrow","rightarrow"],"horizon":5,"forced_choices":["leftarrow","rightarrow","leftarrow","leftarrow"],"right_color":"lightblue","left_color":"orange","left_mu":40,"right_mu":44,"left_numbers":[35,32,39,30,36],"right_numbers":[55,43,43,52,34],"points_earned":181,"phase":"task","trial_type":"horizons-task","trial_index":56,"time_elapsed":734034,"internal_node_id":"0.0-52.0","task_version":"0.2"},{"response_times":[494.154999993043,414.1400000080466,544.0700000035577,713.4100000112085,4071.1000000010245],"keys_pressed":["rightarrow","leftarrow","leftarrow","leftarrow","leftarrow"],"horizon":5,"forced_choices":["rightarrow","leftarrow","leftarrow","leftarrow"],"right_color":"lightblue","left_color":"orange","left_mu":60,"right_mu":48,"left_numbers":[74,49,60,47,60],"right_numbers":[47,44,43,35,63],"points_earned":263,"phase":"task","trial_type":"horizons-task","trial_index":57,"time_elapsed":741776,"internal_node_id":"0.0-53.0","task_version":"0.2"},{"response_times":[429.6500000054948,462.3600000049919,526.5650000073947,484.04999999911524,4450.669999991078],"keys_pressed":["leftarrow","rightarrow","rightarrow","leftarrow","rightarrow"],"horizon":5,"forced_choices":["leftarrow","rightarrow","rightarrow","leftarrow"],"right_color":"lightblue","left_color":"orange","left_mu":60,"right_mu":56,"left_numbers":[53,56,46,55,57],"right_numbers":[68,66,54,60,63],"points_earned":291,"phase":"task","trial_type":"horizons-task","trial_index":58,"time_elapsed":749634,"internal_node_id":"0.0-54.0","task_version":"0.2"},{"response_times":[519.0900000015972,425.94000000099186,425.0800000008894,488.1100000056904,650.9450000012293],"keys_pressed":["rightarrow","leftarrow","rightarrow","leftarrow","leftarrow"],"horizon":5,"forced_choices":["rightarrow","leftarrow","rightarrow","leftarrow"],"right_color":"lightblue","left_color":"orange","left_mu":60,"right_mu":30,"left_numbers":[52,61,55,68,64],"right_numbers":[20,25,14,18,28],"points_earned":227,"phase":"task","trial_type":"horizons-task","trial_index":59,"time_elapsed":753649,"internal_node_id":"0.0-55.0","task_version":"0.2"},{"response_times":[469.11000000545755,448.87999999627937,421.77000000083353,454.02499999909196,3136.4599999942584,490.1350000000093,453.92500000889413,406.989999988582,478.12499999417923,506.24499999685213],"keys_pressed":["rightarrow","rightarrow","leftarrow","rightarrow","rightarrow","rightarrow","rightarrow","rightarrow","rightarrow","rightarrow"],"horizon":10,"forced_choices":["rightarrow","rightarrow","leftarrow","rightarrow"],"right_color":"lightblue","left_color":"orange","left_mu":40,"right_mu":52,"left_numbers":[30,33,41,37,25,31,35,39,30,36],"right_numbers":[54,46,67,56,58,58,38,58,59,49],"points_earned":517,"phase":"task","trial_type":"horizons-task","trial_index":60,"time_elapsed":762421,"internal_node_id":"0.0-56.0","task_version":"0.2"},{"response_times":[468.3199999999488,403.01500000350643,434.16000000433996,428.0750000034459,1832.3249999957625,615.8599999907892,536.0599999985425,602.5049999880139,455.74499999929685,445.91500000387896],"keys_pressed":["leftarrow","rightarrow","leftarrow","rightarrow","leftarrow","leftarrow","leftarrow","leftarrow","leftarrow","leftarrow"],"horizon":10,"forced_choices":["leftarrow","rightarrow","leftarrow","rightarrow"],"right_color":"orange","left_color":"lightblue","left_mu":40,"right_mu":10,"left_numbers":[34,29,46,40,37,50,53,46,47,44],"right_numbers":[15,10,6,4,9,20,9,5,10,0],"points_earned":371,"phase":"task","trial_type":"horizons-task","trial_index":61,"time_elapsed":770148,"internal_node_id":"0.0-57.0","task_version":"0.2"},{"response_times":[510.36000000021886,402.96000000671484,369.1450000042096,444.92999999783933,598.0500000005122,459.48000000498723,388.53999999992084,407.13000000687316,390.1800000021467,431.1900000029709],"keys_pressed":["rightarrow","leftarrow","rightarrow","leftarrow","leftarrow","leftarrow","leftarrow","leftarrow","leftarrow","leftarrow"],"horizon":10,"forced_choices":["rightarrow","leftarrow","rightarrow","leftarrow"],"right_color":"lightblue","left_color":"orange","left_mu":60,"right_mu":30,"left_numbers":[59,59,59,56,57,62,67,65,65,73],"right_numbers":[20,33,25,12,41,23,34,27,20,33],"points_earned":549,"phase":"task","trial_type":"horizons-task","trial_index":62,"time_elapsed":776056,"internal_node_id":"0.0-58.0","task_version":"0.2"},{"response_times":[543.9550000010058,470.0649999867892,399.120000001858,704.9499999993714,679.0999999939231,640.8700000029057,445.0300000025891,501.09999999403954,515.0550000107614,494.80499999481253],"keys_pressed":["leftarrow","rightarrow","leftarrow","leftarrow","rightarrow","rightarrow","rightarrow","rightarrow","rightarrow","rightarrow"],"horizon":10,"forced_choices":["leftarrow","rightarrow","leftarrow","leftarrow"],"right_color":"lightblue","left_color":"orange","left_mu":40,"right_mu":60,"left_numbers":[47,42,21,21,38,45,40,48,45,45],"right_numbers":[69,57,44,63,53,67,55,67,59,56],"points_earned":503,"phase":"task","trial_type":"horizons-task","trial_index":63,"time_elapsed":782956,"internal_node_id":"0.0-59.0","task_version":"0.2"},{"response_times":[604.9500000081025,449.945000000298,614.38499999349,508.9200000074925,1088.9549999992596],"keys_pressed":["leftarrow","leftarrow","leftarrow","rightarrow","rightarrow"],"horizon":5,"forced_choices":["leftarrow","leftarrow","leftarrow","rightarrow"],"right_color":"orange","left_color":"lightblue","left_mu":60,"right_mu":90,"left_numbers":[55,59,60,58,73],"right_numbers":[81,76,83,85,101],"points_earned":360,"phase":"task","trial_type":"horizons-task","trial_index":64,"time_elapsed":787728,"internal_node_id":"0.0-60.0","task_version":"0.2"},{"response_times":[537.5050000002375,420.97999999532476,518.0550000077346,639.8950000002515,2328.3750000118744,753.210000009858,668.8700000086101,1085.2849999937462,572.0149999979185,452.9449999972712],"keys_pressed":["leftarrow","leftarrow","rightarrow","rightarrow","leftarrow","leftarrow","leftarrow","leftarrow","leftarrow","leftarrow"],"horizon":10,"forced_choices":["leftarrow","leftarrow","rightarrow","rightarrow"],"right_color":"lightblue","left_color":"orange","left_mu":60,"right_mu":48,"left_numbers":[54,55,62,56,59,58,54,61,57,59],"right_numbers":[47,42,40,57,56,48,41,53,43,49],"points_earned":554,"phase":"task","trial_type":"horizons-task","trial_index":65,"time_elapsed":797210,"internal_node_id":"0.0-61.0","task_version":"0.2"},{"response_times":[524.7650000092108,454.8650000069756,446.3149999937741,551.8400000000838,3072.2900000109803],"keys_pressed":["leftarrow","rightarrow","leftarrow","rightarrow","rightarrow"],"horizon":5,"forced_choices":["leftarrow","rightarrow","leftarrow","rightarrow"],"right_color":"lightblue","left_color":"orange","left_mu":40,"right_mu":48,"left_numbers":[34,48,41,23,41],"right_numbers":[46,67,49,37,39],"points_earned":218,"phase":"task","trial_type":"horizons-task","trial_index":66,"time_elapsed":803765,"internal_node_id":"0.0-62.0","task_version":"0.2"},{"response_times":[589.7850000037579,427.1500000031665,1218.5299999982817,706.5549999970244,820.0300000025891],"keys_pressed":["leftarrow","leftarrow","rightarrow","rightarrow","rightarrow"],"horizon":5,"forced_choices":["leftarrow","leftarrow","rightarrow","rightarrow"],"right_color":"lightblue","left_color":"orange","left_mu":60,"right_mu":72,"left_numbers":[75,53,56,59,49],"right_numbers":[75,76,75,82,67],"points_earned":352,"phase":"task","trial_type":"horizons-task","trial_index":67,"time_elapsed":809031,"internal_node_id":"0.0-63.0","task_version":"0.2"},{"response_times":[635.5399999883957,401.83499999693595,474.05000000435393,514.0899999969406,1131.0099999973318,582.1199999918463,497.1150000055786,459.90500001062173,857.239999997546,675.0500000052853],"keys_pressed":["rightarrow","leftarrow","leftarrow","rightarrow","leftarrow","leftarrow","leftarrow","leftarrow","leftarrow","leftarrow"],"horizon":10,"forced_choices":["rightarrow","leftarrow","leftarrow","rightarrow"],"right_color":"orange","left_color":"lightblue","left_mu":40,"right_mu":28,"left_numbers":[38,40,41,42,42,42,25,37,25,46],"right_numbers":[35,31,30,13,22,26,25,36,13,34],"points_earned":346,"phase":"task","trial_type":"horizons-task","trial_index":68,"time_elapsed":816768,"internal_node_id":"0.0-64.0","task_version":"0.2"},{"response_times":[726.7900000006193,458.054999995511,467.1200000011595,603.9400000008754,899.1150000074413],"keys_pressed":["rightarrow","rightarrow","leftarrow","leftarrow","leftarrow"],"horizon":5,"forced_choices":["rightarrow","rightarrow","leftarrow","leftarrow"],"right_color":"lightblue","left_color":"orange","left_mu":40,"right_mu":20,"left_numbers":[38,25,41,34,22],"right_numbers":[24,16,16,15,18],"points_earned":137,"phase":"task","trial_type":"horizons-task","trial_index":69,"time_elapsed":821429,"internal_node_id":"0.0-65.0","task_version":"0.2"},{"response_times":[662.8099999943515,480.40000000037253,507.6950000075158,771.1699999927077,812.2000000003027],"keys_pressed":["rightarrow","rightarrow","leftarrow","rightarrow","rightarrow"],"horizon":5,"forced_choices":["rightarrow","rightarrow","leftarrow","rightarrow"],"right_color":"orange","left_color":"lightblue","left_mu":60,"right_mu":64,"left_numbers":[61,61,61,78,77],"right_numbers":[74,66,65,68,61],"points_earned":330,"phase":"task","trial_type":"horizons-task","trial_index":70,"time_elapsed":826168,"internal_node_id":"0.0-66.0","task_version":"0.2"},{"response_times":[468.13999999722,554.8350000026403,424.44000000250526,490.6300000002375,3019.444999998086,767.9349999962142,977.1350000082748,994.5350000052713,520.7699999882607,535.9900000039488],"keys_pressed":["leftarrow","rightarrow","leftarrow","rightarrow","leftarrow","leftarrow","leftarrow","leftarrow","leftarrow","leftarrow"],"horizon":10,"forced_choices":["leftarrow","rightarrow","leftarrow","rightarrow"],"right_color":"lightblue","left_color":"orange","left_mu":40,"right_mu":48,"left_numbers":[44,32,33,42,52,40,32,38,37,45],"right_numbers":[38,33,53,37,62,65,50,56,50,36],"points_earned":391,"phase":"task","trial_type":"horizons-task","trial_index":71,"time_elapsed":836429,"internal_node_id":"0.0-67.0","task_version":"0.2"},{"response_times":[521.6050000017276,409.19999999459833,516.0699999978533,492.32499999925494,872.7549999894109],"keys_pressed":["rightarrow","rightarrow","rightarrow","leftarrow","rightarrow"],"horizon":5,"forced_choices":["rightarrow","rightarrow","rightarrow","leftarrow"],"right_color":"orange","left_color":"lightblue","left_mu":60,"right_mu":80,"left_numbers":[67,62,65,54,66],"right_numbers":[92,68,84,76,78],"points_earned":376,"phase":"task","trial_type":"horizons-task","trial_index":72,"time_elapsed":840746,"internal_node_id":"0.0-68.0","task_version":"0.2"},{"response_times":[509.6049999992829,402.13999999105,532.9349999956321,493.53000000701286,1467.8399999975227,567.1399999991991,886.8900000088615,371.1449999973411,369.9049999995623,441.04999999399297],"keys_pressed":["leftarrow","leftarrow","leftarrow","rightarrow","rightarrow","rightarrow","rightarrow","rightarrow","rightarrow","rightarrow"],"horizon":10,"forced_choices":["leftarrow","leftarrow","leftarrow","rightarrow"],"right_color":"orange","left_color":"lightblue","left_mu":40,"right_mu":70,"left_numbers":[36,17,39,36,50,42,37,53,18,51],"right_numbers":[78,69,72,79,75,79,67,64,64,86],"points_earned":606,"phase":"task","trial_type":"horizons-task","trial_index":73,"time_elapsed":848293,"internal_node_id":"0.0-69.0","task_version":"0.2"},{"response_times":[514.8599999956787,366.2600000097882,447.7599999954691,722.9300000035437,1138.8050000095973],"keys_pressed":["rightarrow","leftarrow","leftarrow","leftarrow","leftarrow"],"horizon":5,"forced_choices":["rightarrow","leftarrow","leftarrow","leftarrow"],"right_color":"lightblue","left_color":"orange","left_mu":40,"right_mu":20,"left_numbers":[55,25,55,32,35],"right_numbers":[12,14,16,5,19],"points_earned":159,"phase":"task","trial_type":"horizons-task","trial_index":74,"time_elapsed":852988,"internal_node_id":"0.0-70.0","task_version":"0.2"},{"response_times":[498.80999999004416,392.7750000002561,490.2399999991758,639.8049999988871,889.2899999918882],"keys_pressed":["rightarrow","leftarrow","leftarrow","rightarrow","leftarrow"],"horizon":5,"forced_choices":["rightarrow","leftarrow","leftarrow","rightarrow"],"right_color":"orange","left_color":"lightblue","left_mu":40,"right_mu":28,"left_numbers":[45,32,39,38,39],"right_numbers":[23,22,37,21,34],"points_earned":154,"phase":"task","trial_type":"horizons-task","trial_index":75,"time_elapsed":857404,"internal_node_id":"0.0-71.0","task_version":"0.2"},{"response_times":[520.2600000047823,454.28499999979977,436.9849999930011,811.7899999924703,705.4399999906309],"keys_pressed":["leftarrow","rightarrow","leftarrow","rightarrow","leftarrow"],"horizon":5,"forced_choices":["leftarrow","rightarrow","leftarrow","rightarrow"],"right_color":"orange","left_color":"lightblue","left_mu":40,"right_mu":10,"left_numbers":[44,32,61,33,29],"right_numbers":[8,21,8,7,26],"points_earned":162,"phase":"task","trial_type":"horizons-task","trial_index":76,"time_elapsed":861838,"internal_node_id":"0.0-72.0","task_version":"0.2"},{"response_times":[500.1500000071246,461.2199999974109,411.59499999776017,678.0750000034459,398.4550000022864],"keys_pressed":["leftarrow","rightarrow","leftarrow","leftarrow","rightarrow"],"horizon":5,"forced_choices":["leftarrow","rightarrow","leftarrow","leftarrow"],"right_color":"lightblue","left_color":"orange","left_mu":40,"right_mu":60,"left_numbers":[39,54,36,32,47],"right_numbers":[56,64,53,63,49],"points_earned":220,"phase":"task","trial_type":"horizons-task","trial_index":77,"time_elapsed":865793,"internal_node_id":"0.0-73.0","task_version":"0.2"},{"response_times":[514.6000000095228,430.209999991348,407.8000000008615,422.49000001174863,1010.7649999990826,661.0899999941466,596.2199999921722,488.7499999895226,507.15499999932945,741.0400000080699],"keys_pressed":["rightarrow","leftarrow","rightarrow","leftarrow","rightarrow","rightarrow","rightarrow","rightarrow","rightarrow","rightarrow"],"horizon":10,"forced_choices":["rightarrow","leftarrow","rightarrow","leftarrow"],"right_color":"lightblue","left_color":"orange","left_mu":40,"right_mu":60,"left_numbers":[47,29,51,33,33,50,40,35,57,48],"right_numbers":[62,59,47,59,56,68,54,50,60,75],"points_earned":534,"phase":"task","trial_type":"horizons-task","trial_index":78,"time_elapsed":873078,"internal_node_id":"0.0-74.0","task_version":"0.2"},{"response_times":[475.10500000498723,465.7749999896623,607.8599999891594,559.385000000475,3819.224999999278,846.5949999954319,736.5350000036415,550.0099999917438,443.0850000062492,404.2300000000978],"keys_pressed":["leftarrow","rightarrow","rightarrow","rightarrow","leftarrow","leftarrow","leftarrow","leftarrow","leftarrow","leftarrow"],"horizon":10,"forced_choices":["leftarrow","rightarrow","rightarrow","rightarrow"],"right_color":"lightblue","left_color":"orange","left_mu":60,"right_mu":56,"left_numbers":[63,69,72,65,66,61,56,60,50,60],"right_numbers":[47,44,65,59,53,53,57,56,59,66],"points_earned":584,"phase":"task","trial_type":"horizons-task","trial_index":79,"time_elapsed":883492,"internal_node_id":"0.0-75.0","task_version":"0.2"},{"response_times":[460.55499999783933,402.8099999995902,431.2099999951897,491.7249999998603,1787.2650000063004,1905.4449999966891,764.0550000069197,1222.2449999972014,639.694999990752,593.1300000083866],"keys_pressed":["leftarrow","rightarrow","leftarrow","rightarrow","rightarrow","rightarrow","rightarrow","rightarrow","rightarrow","rightarrow"],"horizon":10,"forced_choices":["leftarrow","rightarrow","leftarrow","rightarrow"],"right_color":"lightblue","left_color":"orange","left_mu":40,"right_mu":52,"left_numbers":[30,45,49,43,31,52,34,52,43,32],"right_numbers":[38,64,49,48,36,58,49,42,60,57],"points_earned":493,"phase":"task","trial_type":"horizons-task","trial_index":80,"time_elapsed":893693,"internal_node_id":"0.0-76.0","task_version":"0.2"},{"response_times":[511.5399999922374,400.13000000908505,519.7649999900023,603.2100000011269,950.0050000060583],"keys_pressed":["rightarrow","leftarrow","leftarrow","rightarrow","leftarrow"],"horizon":5,"forced_choices":["rightarrow","leftarrow","leftarrow","rightarrow"],"right_color":"orange","left_color":"lightblue","left_mu":60,"right_mu":52,"left_numbers":[89,71,51,59,70],"right_numbers":[49,50,38,46,32],"points_earned":287,"phase":"task","trial_type":"horizons-task","trial_index":81,"time_elapsed":898182,"internal_node_id":"0.0-77.0","task_version":"0.2"},{"response_times":[503.0149999947753,442.8749999933643,421.8799999944167,440.2350000018487,611.2649999995483,568.0500000016764,499.9799999932293,549.0450000070268,444.0000000031432,461.8300000001909],"keys_pressed":["leftarrow","rightarrow","leftarrow","rightarrow","rightarrow","rightarrow","rightarrow","rightarrow","rightarrow","rightarrow"],"horizon":10,"forced_choices":["leftarrow","rightarrow","leftarrow","rightarrow"],"right_color":"orange","left_color":"lightblue","left_mu":60,"right_mu":80,"left_numbers":[61,63,71,59,50,63,57,46,81,55],"right_numbers":[76,80,81,75,82,74,93,71,82,74],"points_earned":763,"phase":"task","trial_type":"horizons-task","trial_index":82,"time_elapsed":904630,"internal_node_id":"0.0-78.0","task_version":"0.2"},{"response_times":[537.6700000051642,523.5749999992549,425.82499999844003,821.3799999939511,1342.0400000031805],"keys_pressed":["rightarrow","rightarrow","leftarrow","rightarrow","rightarrow"],"horizon":5,"forced_choices":["rightarrow","rightarrow","leftarrow","rightarrow"],"right_color":"lightblue","left_color":"orange","left_mu":40,"right_mu":52,"left_numbers":[36,37,49,43,49],"right_numbers":[49,55,59,54,51],"points_earned":258,"phase":"task","trial_type":"horizons-task","trial_index":83,"time_elapsed":909785,"internal_node_id":"0.0-79.0","task_version":"0.2"},{"response_times":[466.2900000112131,425.745000000461,372.4849999998696,683.164999994915,3852.1750000072643,639.9749999982305,1613.230000002659,678.2700000039767,933.8799999968614,661.1399999965215],"keys_pressed":["rightarrow","leftarrow","rightarrow","rightarrow","leftarrow","rightarrow","rightarrow","leftarrow","leftarrow","leftarrow"],"horizon":10,"forced_choices":["rightarrow","leftarrow","rightarrow","rightarrow"],"right_color":"orange","left_color":"lightblue","left_mu":40,"right_mu":32,"left_numbers":[36,44,40,37,34,38,41,42,53,59],"right_numbers":[41,44,20,45,30,28,26,21,18,23],"points_earned":392,"phase":"task","trial_type":"horizons-task","trial_index":84,"time_elapsed":921618,"internal_node_id":"0.0-80.0","task_version":"0.2"},{"response_times":[532.2849999938626,424.5599999994738,512.2100000007777,467.9000000032829,1451.279999993858,590.8049999998184,627.2650000028079,439.8350000119535,392.04500000050757,447.215000007418],"keys_pressed":["rightarrow","rightarrow","leftarrow","leftarrow","leftarrow","leftarrow","leftarrow","leftarrow","leftarrow","leftarrow"],"horizon":10,"forced_choices":["rightarrow","rightarrow","leftarrow","leftarrow"],"right_color":"lightblue","left_color":"orange","left_mu":40,"right_mu":20,"left_numbers":[17,56,47,36,32,34,34,38,54,32],"right_numbers":[19,23,26,16,21,14,19,25,14,9],"points_earned":349,"phase":"task","trial_type":"horizons-task","trial_index":85,"time_elapsed":929008,"internal_node_id":"0.0-81.0","task_version":"0.2"},{"response_times":[539.6700000128476,445.4100000002654,588.8100000011036,848.8499999948544,869.764999995823],"keys_pressed":["leftarrow","rightarrow","rightarrow","rightarrow","rightarrow"],"horizon":5,"forced_choices":["leftarrow","rightarrow","rightarrow","rightarrow"],"right_color":"lightblue","left_color":"orange","left_mu":60,"right_mu":72,"left_numbers":[61,67,51,59,48],"right_numbers":[72,57,85,92,88],"points_earned":383,"phase":"task","trial_type":"horizons-task","trial_index":86,"time_elapsed":933806,"internal_node_id":"0.0-82.0","task_version":"0.2"},{"response_times":[491.79000000003725,381.02999998955056,464.01999999943655,501.9949999987148,1574.609999996028,686.7649999912828,544.3899999954738,385.82000001042616,398.0699999956414,427.784999992582],"keys_pressed":["rightarrow","rightarrow","rightarrow","leftarrow","rightarrow","rightarrow","rightarrow","rightarrow","rightarrow","rightarrow"],"horizon":10,"forced_choices":["rightarrow","rightarrow","rightarrow","leftarrow"],"right_color":"orange","left_color":"lightblue","left_mu":60,"right_mu":80,"left_numbers":[68,70,57,58,65,43,44,63,64,65],"right_numbers":[82,70,83,86,85,83,68,78,77,70],"points_earned":754,"phase":"task","trial_type":"horizons-task","trial_index":87,"time_elapsed":941168,"internal_node_id":"0.0-83.0","task_version":"0.2"},{"response_times":[724.7099999949569,492.5749999965774,563.5650000040187,945.0650000071619,1828.2100000069477],"keys_pressed":["rightarrow","leftarrow","leftarrow","rightarrow","rightarrow"],"horizon":5,"forced_choices":["rightarrow","leftarrow","leftarrow","rightarrow"],"right_color":"lightblue","left_color":"orange","left_mu":40,"right_mu":44,"left_numbers":[36,33,52,56,32],"right_numbers":[49,49,36,50,37],"points_earned":221,"phase":"task","trial_type":"horizons-task","trial_index":88,"time_elapsed":947227,"internal_node_id":"0.0-84.0","task_version":"0.2"},{"response_times":[465.31999998842366,458.31500001077075,411.7699999915203,649.9750000075437,1830.2700000058394,570.9700000006706,461.0299999912968,428.3750000031432,420.8249999937834,431.960000001709],"keys_pressed":["rightarrow","leftarrow","leftarrow","leftarrow","leftarrow","leftarrow","leftarrow","leftarrow","leftarrow","leftarrow"],"horizon":10,"forced_choices":["rightarrow","leftarrow","leftarrow","leftarrow"],"right_color":"lightblue","left_color":"orange","left_mu":60,"right_mu":48,"left_numbers":[53,76,43,56,52,52,82,54,51,41],"right_numbers":[47,59,64,49,49,43,49,44,58,52],"points_earned":554,"phase":"task","trial_type":"horizons-task","trial_index":89,"time_elapsed":954861,"internal_node_id":"0.0-85.0","task_version":"0.2"},{"response_times":[487.97499999636784,409.70000000379514,481.9699999934528,459.05499999935273,2343.2949999987613,2033.2300000009127,1692.3450000031153,570.1750000007451,487.7649999980349,483.9849999989383],"keys_pressed":["rightarrow","rightarrow","leftarrow","leftarrow","leftarrow","leftarrow","rightarrow","rightarrow","rightarrow","rightarrow"],"horizon":10,"forced_choices":["rightarrow","rightarrow","leftarrow","leftarrow"],"right_color":"orange","left_color":"lightblue","left_mu":60,"right_mu":68,"left_numbers":[55,48,61,63,49,49,58,65,58,68],"right_numbers":[52,66,71,52,71,63,70,74,73,66],"points_earned":623,"phase":"task","trial_type":"horizons-task","trial_index":90,"time_elapsed":965816,"internal_node_id":"0.0-86.0","task_version":"0.2"},{"response_times":[591.1099999939324,397.0899999985704,499.21500000345986,559.6300000033807,595.1399999903515],"keys_pressed":["rightarrow","leftarrow","rightarrow","rightarrow","leftarrow"],"horizon":5,"forced_choices":["rightarrow","leftarrow","rightarrow","rightarrow"],"right_color":"orange","left_color":"lightblue","left_mu":40,"right_mu":32,"left_numbers":[46,42,37,40,42],"right_numbers":[34,26,31,27,25],"points_earned":176,"phase":"task","trial_type":"horizons-task","trial_index":91,"time_elapsed":969963,"internal_node_id":"0.0-87.0","task_version":"0.2"},{"rt":17561.824999997043,"responses":{"age":"36","gender-categorical":"Female","gender-free-response":"","ethnicity":"Not Hispanic or Latino","race":["White"],"language":"Yes","fluency":"Very well"},"survey":"demographics","trial_type":"survey-demo","trial_index":92,"time_elapsed":987527,"internal_node_id":"0.0-88.0","task_version":"0.2"},{"rt":102521.86999999685,"responses":{"difficulty":"5","fun":"5","clarity":"5","strategy":"One side would have a number that was lower than one or both on the other side and i would choose the higher one. i would sometimes check the other if i had a couple bad draws lower than the initial low number","feedback":"Thank you"},"survey":"debrief","trial_type":"survey-debrief","trial_index":93,"time_elapsed":1090050,"internal_node_id":"0.0-89.0","task_version":"0.2","interactions":"[]"}]