[{"view_history":"[{\"page_index\":0,\"viewing_time\":22007}]","rt":22007,"trial_type":"instructions","trial_index":0,"time_elapsed":22011,"internal_node_id":"0.0-0.0","task_version":"0.2"},{"item_order":[10,2,3,14,12,1,9,8,0,5,13,11,15,7,4,6],"responses":{"Q11":"3","Q03":"4","Q04":"3","Q15":"3","Q13":"4","Q02":"3","Q10":"4","Q09":"3","Q01":"3","Q06":"4","Q14":"3","Q12":"4","Q16":"3","Q08":"4","Q05":"3","Q07":"4"},"radio_events":[3476,5132,6055,12558,13309,15531,16297,19299,20981,21684,43164,43836,44978,47323,47965,48841],"key_events":[],"mouse_events":[0,1448,2013,3476,4367,4813,5132,6055,6805,7386,7971,8684,12558,13309,13966,14491,15531,16297,18322,18799,19299,20059,20529,20981,21684,43164,43836,44978,45510,47323,47965,48841,50025],"rt":50025,"survey":"nfc","trial_type":"survey-template","trial_index":1,"time_elapsed":72046,"internal_node_id":"0.0-1.0","task_version":"0.2"},{"item_order":[4,8,12,3,16,0,5,1,7,2,9,10,13,14,6,15,11],"responses":{"Q05":"2","Q09":"3","Q13":"2","Q04":"3","Q17":"3","Q01":"2","Q06":"3","Q02":"2","Q08":"1","Q03":"1","Q10":"2","Q11":"1","Q14":"2","Q15":"3","Q07":"2","Q16":"3","Q12":"2"},"radio_events":[2865,3850,5000,5954,8191,9247,10601,12478,13487,15052,16568,19917,21770,22631,23701,24390,25836],"key_events":[],"mouse_events":[1316,2239,2865,3498,3850,4594,5000,5602,5954,6674,7268,8191,8895,9247,10601,11735,12478,13222,13487,15052,15936,16568,19917,21238,21770,22631,23381,23701,24390,25101,25836,27034],"rt":27034,"survey":"pswq","trial_type":"survey-template","trial_index":2,"time_elapsed":99087,"internal_node_id":"0.0-2.0","task_version":"0.2"},{"item_order":[6,12,0,4,7,8,2,10,9,3,1,5,11],"responses":{"Q07":"3","Q13":"2","Q01":"3","Q05":"2","Q08":"3","Q09":"2","Q03":"3","Q11":"2","Q10":"3","Q04":"2","Q02":"3","Q06":"2","Q12":"3"},"radio_events":[1912,3720,7497,8561,9297,9517,11003,11752,13138,14263,15609,17244,19230,19895,20091],"key_events":[],"mouse_events":[1170,1912,2524,2827,3720,4345,6895,7497,8272,8561,9297,9517,10032,10425,10729,11003,11752,12808,13138,13850,14263,15024,15337,15609,16328,17244,18409,18746,19230,19895,20091,21227],"rt":21227,"survey":"ius12","trial_type":"survey-template","trial_index":3,"time_elapsed":120317,"internal_node_id":"0.0-3.0","task_version":"0.2"},{"view_history":"[{\"page_index\":0,\"viewing_time\":2382},{\"page_index\":1,\"viewing_time\":4030},{\"page_index\":2,\"viewing_time\":2628},{\"page_index\":3,\"viewing_time\":1558},{\"page_index\":4,\"viewing_time\":751},{\"page_index\":5,\"viewing_time\":2745},{\"page_index\":6,\"viewing_time\":1944},{\"page_index\":7,\"viewing_time\":1749},{\"page_index\":8,\"viewing_time\":2221},{\"page_index\":9,\"viewing_time\":5296}]","rt":25304,"trial_type":"instructions","trial_index":4,"time_elapsed":145623,"internal_node_id":"0.0-4.0-0.0","task_version":"0.2"},{"response_times":[2137,1054,424,884,624],"keys_pressed":["rightarrow","leftarrow","rightarrow","rightarrow","leftarrow"],"horizon":5,"forced_choices":["rightarrow","leftarrow","rightarrow","rightarrow"],"right_color":"lightblue","left_color":"orange","left_mu":40,"right_mu":20,"left_numbers":[41,51,37,48,45],"right_numbers":[27,21,19,30,28],"points_earned":172,"phase":"practice","trial_type":"horizons-task","trial_index":5,"time_elapsed":152250,"internal_node_id":"0.0-4.0-1.0","task_version":"0.2"},{"response_times":[758,844,589,876,445,392,311,384,321,539],"keys_pressed":["leftarrow","leftarrow","rightarrow","rightarrow","leftarrow","rightarrow","leftarrow","leftarrow","rightarrow","leftarrow"],"horizon":10,"forced_choices":["leftarrow","leftarrow","rightarrow","rightarrow"],"right_color":"orange","left_color":"lightblue","left_mu":60,"right_mu":70,"left_numbers":[54,73,49,56,60,45,70,64,63,64],"right_numbers":[87,69,80,66,81,60,53,64,67,81],"points_earned":658,"phase":"practice","trial_type":"horizons-task","trial_index":6,"time_elapsed":159210,"internal_node_id":"0.0-4.0-2.0","task_version":"0.2"},{"view_history":"[{\"page_index\":0,\"viewing_time\":3530},{\"page_index\":1,\"viewing_time\":1064},{\"page_index\":2,\"viewing_time\":580},{\"page_index\":3,\"viewing_time\":537}]","rt":5711,"trial_type":"instructions","trial_index":7,"time_elapsed":164923,"internal_node_id":"0.0-4.0-3.0","task_version":"0.2"},{"responses":["true","false","true"],"num_errors":0,"rt":21483,"trial_type":"horizons-comprehension","trial_index":8,"time_elapsed":186410,"internal_node_id":"0.0-4.0-4.0","task_version":"0.2"},{"trial_type":"call-function","trial_index":9,"time_elapsed":186413,"internal_node_id":"0.0-5.0","task_version":"0.2"},{"view_history":"[{\"page_index\":0,\"viewing_time\":1348},{\"page_index\":1,\"viewing_time\":3067}]","rt":4415,"trial_type":"instructions","trial_index":10,"time_elapsed":190828,"internal_node_id":"0.0-6.0","task_version":"0.2"},{"response_times":[1434,288,347,242,239,200,430,241,214,220],"keys_pressed":["leftarrow","rightarrow","leftarrow","rightarrow","leftarrow","rightarrow","leftarrow","rightarrow","leftarrow","rightarrow"],"horizon":10,"forced_choices":["leftarrow","rightarrow","leftarrow","rightarrow"],"right_color":"orange","left_color":"lightblue","left_mu":60,"right_mu":52,"left_numbers":[60,63,54,55,55,64,65,62,60,61],"right_numbers":[47,68,37,63,57,75,49,43,52,54],"points_earned":597,"phase":"task","trial_type":"horizons-task","trial_index":11,"time_elapsed":196191,"internal_node_id":"0.0-7.0","task_version":"0.2"},{"response_times":[2074,424,194,368,166],"keys_pressed":["rightarrow","rightarrow","leftarrow","leftarrow","rightarrow"],"horizon":5,"forced_choices":["rightarrow","rightarrow","leftarrow","leftarrow"],"right_color":"orange","left_color":"lightblue","left_mu":60,"right_mu":40,"left_numbers":[49,62,63,75,53],"right_numbers":[42,40,37,51,39],"points_earned":259,"phase":"task","trial_type":"horizons-task","trial_index":12,"time_elapsed":200921,"internal_node_id":"0.0-8.0","task_version":"0.2"},{"response_times":[20221,473,1115,449,198],"keys_pressed":["leftarrow","leftarrow","rightarrow","rightarrow","leftarrow"],"horizon":5,"forced_choices":["leftarrow","leftarrow","rightarrow","rightarrow"],"right_color":"lightblue","left_color":"orange","left_mu":60,"right_mu":30,"left_numbers":[42,54,60,60,54],"right_numbers":[24,28,38,34,32],"points_earned":222,"phase":"task","trial_type":"horizons-task","trial_index":13,"time_elapsed":224880,"internal_node_id":"0.0-9.0","task_version":"0.2"},{"response_times":[1704,244,420,401,181],"keys_pressed":["rightarrow","leftarrow","leftarrow","leftarrow","rightarrow"],"horizon":5,"forced_choices":["rightarrow","leftarrow","leftarrow","leftarrow"],"right_color":"lightblue","left_color":"orange","left_mu":60,"right_mu":64,"left_numbers":[46,59,46,47,48],"right_numbers":[73,46,83,56,70],"points_earned":295,"phase":"task","trial_type":"horizons-task","trial_index":14,"time_elapsed":229334,"internal_node_id":"0.0-10.0","task_version":"0.2"},{"response_times":[1586,204,68,130,169,106,179,147,142,765],"keys_pressed":["rightarrow","leftarrow","rightarrow","leftarrow","rightarrow","leftarrow","rightarrow","leftarrow","rightarrow","leftarrow"],"horizon":10,"forced_choices":["rightarrow","leftarrow","rightarrow","leftarrow"],"right_color":"orange","left_color":"lightblue","left_mu":60,"right_mu":48,"left_numbers":[67,59,69,49,64,53,59,56,47,67],"right_numbers":[51,41,56,36,55,51,59,44,38,44],"points_earned":543,"phase":"task","trial_type":"horizons-task","trial_index":15,"time_elapsed":234332,"internal_node_id":"0.0-11.0","task_version":"0.2"},{"response_times":[738,178,663,135,210],"keys_pressed":["rightarrow","leftarrow","leftarrow","rightarrow","leftarrow"],"horizon":5,"forced_choices":["rightarrow","leftarrow","leftarrow","rightarrow"],"right_color":"lightblue","left_color":"orange","left_mu":40,"right_mu":10,"left_numbers":[56,53,27,43,37],"right_numbers":[0,6,12,19,15],"points_earned":136,"phase":"task","trial_type":"horizons-task","trial_index":16,"time_elapsed":237758,"internal_node_id":"0.0-12.0","task_version":"0.2"},{"response_times":[458,59,442,284,225],"keys_pressed":["leftarrow","rightarrow","rightarrow","rightarrow","leftarrow"],"horizon":5,"forced_choices":["leftarrow","rightarrow","rightarrow","rightarrow"],"right_color":"orange","left_color":"lightblue","left_mu":40,"right_mu":28,"left_numbers":[34,33,38,44,27],"right_numbers":[29,32,27,38,24],"points_earned":158,"phase":"task","trial_type":"horizons-task","trial_index":17,"time_elapsed":240729,"internal_node_id":"0.0-13.0","task_version":"0.2"},{"response_times":[411,272,130,144,157],"keys_pressed":["leftarrow","leftarrow","rightarrow","leftarrow","rightarrow"],"horizon":5,"forced_choices":["leftarrow","leftarrow","rightarrow","leftarrow"],"right_color":"orange","left_color":"lightblue","left_mu":40,"right_mu":44,"left_numbers":[33,47,40,34,34],"right_numbers":[54,32,61,46,35],"points_earned":210,"phase":"task","trial_type":"horizons-task","trial_index":18,"time_elapsed":243345,"internal_node_id":"0.0-14.0","task_version":"0.2"},{"response_times":[385,21,343,151,130,173,143,138,128,126],"keys_pressed":["leftarrow","rightarrow","rightarrow","leftarrow","rightarrow","leftarrow","rightarrow","leftarrow","rightarrow","leftarrow"],"horizon":10,"forced_choices":["leftarrow","rightarrow","rightarrow","leftarrow"],"right_color":"orange","left_color":"lightblue","left_mu":60,"right_mu":72,"left_numbers":[53,69,59,63,36,55,51,64,48,56],"right_numbers":[63,90,79,63,68,62,60,62,63,61],"points_earned":651,"phase":"task","trial_type":"horizons-task","trial_index":19,"time_elapsed":246588,"internal_node_id":"0.0-15.0","task_version":"0.2"},{"response_times":[323,284,250,107,184],"keys_pressed":["rightarrow","rightarrow","rightarrow","leftarrow","rightarrow"],"horizon":5,"forced_choices":["rightarrow","rightarrow","rightarrow","leftarrow"],"right_color":"lightblue","left_color":"orange","left_mu":40,"right_mu":52,"left_numbers":[40,36,43,43,45],"right_numbers":[59,48,42,53,55],"points_earned":247,"phase":"task","trial_type":"horizons-task","trial_index":20,"time_elapsed":249238,"internal_node_id":"0.0-16.0","task_version":"0.2"},{"response_times":[759,280,239,398,272,267,148,138,216,26],"keys_pressed":["leftarrow","leftarrow","rightarrow","rightarrow","rightarrow","leftarrow","rightarrow","leftarrow","leftarrow","rightarrow"],"horizon":10,"forced_choices":["leftarrow","leftarrow","rightarrow","rightarrow"],"right_color":"orange","left_color":"lightblue","left_mu":40,"right_mu":70,"left_numbers":[39,39,43,44,48,39,35,28,39,30],"right_numbers":[76,86,80,63,52,81,63,69,65,68],"points_earned":510,"phase":"task","trial_type":"horizons-task","trial_index":21,"time_elapsed":253484,"internal_node_id":"0.0-17.0","task_version":"0.2"},{"response_times":[502,369,407,141,171,89,156,133,134,165],"keys_pressed":["rightarrow","rightarrow","rightarrow","leftarrow","rightarrow","leftarrow","rightarrow","leftarrow","rightarrow","leftarrow"],"horizon":10,"forced_choices":["rightarrow","rightarrow","rightarrow","leftarrow"],"right_color":"lightblue","left_color":"orange","left_mu":60,"right_mu":30,"left_numbers":[65,57,60,54,58,73,62,59,49,69],"right_numbers":[28,41,38,33,30,35,31,24,30,43],"points_earned":453,"phase":"task","trial_type":"horizons-task","trial_index":22,"time_elapsed":257252,"internal_node_id":"0.0-18.0","task_version":"0.2"},{"response_times":[437,19,158,359,504],"keys_pressed":["rightarrow","leftarrow","leftarrow","rightarrow","rightarrow"],"horizon":5,"forced_choices":["rightarrow","leftarrow","leftarrow","rightarrow"],"right_color":"lightblue","left_color":"orange","left_mu":60,"right_mu":64,"left_numbers":[73,67,60,63,61],"right_numbers":[59,65,63,64,66],"points_earned":316,"phase":"task","trial_type":"horizons-task","trial_index":23,"time_elapsed":260230,"internal_node_id":"0.0-19.0","task_version":"0.2"},{"response_times":[1066,208,145,289,148],"keys_pressed":["leftarrow","rightarrow","leftarrow","leftarrow","rightarrow"],"horizon":5,"forced_choices":["leftarrow","rightarrow","leftarrow","leftarrow"],"right_color":"orange","left_color":"lightblue","left_mu":40,"right_mu":32,"left_numbers":[39,36,37,41,39],"right_numbers":[28,29,29,20,32],"points_earned":178,"phase":"task","trial_type":"horizons-task","trial_index":24,"time_elapsed":263588,"internal_node_id":"0.0-20.0","task_version":"0.2"},{"response_times":[441,283,134,324,105],"keys_pressed":["leftarrow","leftarrow","rightarrow","rightarrow","leftarrow"],"horizon":5,"forced_choices":["leftarrow","leftarrow","rightarrow","rightarrow"],"right_color":"lightblue","left_color":"orange","left_mu":60,"right_mu":80,"left_numbers":[63,52,56,60,51],"right_numbers":[87,79,88,77,90],"points_earned":331,"phase":"task","trial_type":"horizons-task","trial_index":25,"time_elapsed":266376,"internal_node_id":"0.0-21.0","task_version":"0.2"},{"response_times":[413,200,165,249,135,248,67,159,175,167],"keys_pressed":["leftarrow","leftarrow","rightarrow","rightarrow","leftarrow","rightarrow","leftarrow","rightarrow","leftarrow","rightarrow"],"horizon":10,"forced_choices":["leftarrow","leftarrow","rightarrow","rightarrow"],"right_color":"lightblue","left_color":"orange","left_mu":60,"right_mu":30,"left_numbers":[61,56,57,53,47,52,62,59,61,58],"right_numbers":[41,39,34,40,28,19,37,28,28,31],"points_earned":439,"phase":"task","trial_type":"horizons-task","trial_index":26,"time_elapsed":269857,"internal_node_id":"0.0-22.0","task_version":"0.2"},{"response_times":[399,105,390,385,216],"keys_pressed":["leftarrow","rightarrow","rightarrow","leftarrow","rightarrow"],"horizon":5,"forced_choices":["leftarrow","rightarrow","rightarrow","leftarrow"],"right_color":"orange","left_color":"lightblue","left_mu":40,"right_mu":44,"left_numbers":[63,37,31,47,43],"right_numbers":[37,62,43,32,38],"points_earned":253,"phase":"task","trial_type":"horizons-task","trial_index":27,"time_elapsed":272853,"internal_node_id":"0.0-23.0","task_version":"0.2"},{"response_times":[378,282,696,2257,403],"keys_pressed":["leftarrow","rightarrow","rightarrow","rightarrow","leftarrow"],"horizon":5,"forced_choices":["leftarrow","rightarrow","rightarrow","rightarrow"],"right_color":"orange","left_color":"lightblue","left_mu":60,"right_mu":52,"left_numbers":[71,65,52,55,48],"right_numbers":[53,49,50,44,54],"points_earned":262,"phase":"task","trial_type":"horizons-task","trial_index":28,"time_elapsed":278375,"internal_node_id":"0.0-24.0","task_version":"0.2"},{"response_times":[242,246,334,338,118,155,165,137,154,155],"keys_pressed":["rightarrow","leftarrow","leftarrow","leftarrow","rightarrow","leftarrow","rightarrow","leftarrow","rightarrow","leftarrow"],"horizon":10,"forced_choices":["rightarrow","leftarrow","leftarrow","leftarrow"],"right_color":"orange","left_color":"lightblue","left_mu":40,"right_mu":36,"left_numbers":[30,51,40,48,38,33,51,62,33,35],"right_numbers":[53,33,26,41,39,42,37,35,33,33],"points_earned":431,"phase":"task","trial_type":"horizons-task","trial_index":29,"time_elapsed":281920,"internal_node_id":"0.0-25.0","task_version":"0.2"},{"response_times":[389,118,262,93,143,111,164,154,148,105],"keys_pressed":["leftarrow","rightarrow","rightarrow","leftarrow","rightarrow","leftarrow","rightarrow","leftarrow","rightarrow","leftarrow"],"horizon":10,"forced_choices":["leftarrow","rightarrow","rightarrow","leftarrow"],"right_color":"orange","left_color":"lightblue","left_mu":40,"right_mu":28,"left_numbers":[44,46,54,43,34,48,42,35,41,38],"right_numbers":[38,17,29,22,21,34,44,29,30,38],"points_earned":349,"phase":"task","trial_type":"horizons-task","trial_index":30,"time_elapsed":285109,"internal_node_id":"0.0-26.0","task_version":"0.2"},{"response_times":[491,341,125,264,171],"keys_pressed":["rightarrow","rightarrow","leftarrow","leftarrow","rightarrow"],"horizon":5,"forced_choices":["rightarrow","rightarrow","leftarrow","leftarrow"],"right_color":"orange","left_color":"lightblue","left_mu":40,"right_mu":36,"left_numbers":[37,37,36,53,50],"right_numbers":[24,16,32,36,36],"points_earned":165,"phase":"task","trial_type":"horizons-task","trial_index":31,"time_elapsed":288004,"internal_node_id":"0.0-27.0","task_version":"0.2"},{"response_times":[35,295,161,314,128],"keys_pressed":["leftarrow","leftarrow","rightarrow","rightarrow","leftarrow"],"horizon":5,"forced_choices":["leftarrow","leftarrow","rightarrow","rightarrow"],"right_color":"orange","left_color":"lightblue","left_mu":40,"right_mu":70,"left_numbers":[41,40,31,40,35],"right_numbers":[70,71,78,84,81],"points_earned":278,"phase":"task","trial_type":"horizons-task","trial_index":32,"time_elapsed":290438,"internal_node_id":"0.0-28.0","task_version":"0.2"},{"response_times":[307,475,128,192,163],"keys_pressed":["rightarrow","rightarrow","leftarrow","leftarrow","rightarrow"],"horizon":5,"forced_choices":["rightarrow","rightarrow","leftarrow","leftarrow"],"right_color":"lightblue","left_color":"orange","left_mu":60,"right_mu":90,"left_numbers":[63,74,67,73,54],"right_numbers":[100,90,90,88,88],"points_earned":418,"phase":"task","trial_type":"horizons-task","trial_index":33,"time_elapsed":293204,"internal_node_id":"0.0-29.0","task_version":"0.2"},{"response_times":[300,167,470,341,162,158,154,160,167,171],"keys_pressed":["leftarrow","rightarrow","rightarrow","rightarrow","leftarrow","rightarrow","leftarrow","rightarrow","leftarrow","rightarrow"],"horizon":10,"forced_choices":["leftarrow","rightarrow","rightarrow","rightarrow"],"right_color":"orange","left_color":"lightblue","left_mu":60,"right_mu":72,"left_numbers":[54,67,47,62,73,63,45,61,55,53],"right_numbers":[76,79,72,80,58,75,87,60,68,83],"points_earned":676,"phase":"task","trial_type":"horizons-task","trial_index":34,"time_elapsed":296955,"internal_node_id":"0.0-30.0","task_version":"0.2"},{"response_times":[384,415,1001,317,525],"keys_pressed":["rightarrow","leftarrow","leftarrow","leftarrow","rightarrow"],"horizon":5,"forced_choices":["rightarrow","leftarrow","leftarrow","leftarrow"],"right_color":"orange","left_color":"lightblue","left_mu":60,"right_mu":48,"left_numbers":[51,53,44,46,56],"right_numbers":[51,47,42,48,39],"points_earned":233,"phase":"task","trial_type":"horizons-task","trial_index":35,"time_elapsed":301100,"internal_node_id":"0.0-31.0","task_version":"0.2"},{"response_times":[7382,116,158,127,108,140,125,144,138,135],"keys_pressed":["rightarrow","leftarrow","rightarrow","leftarrow","rightarrow","leftarrow","rightarrow","leftarrow","rightarrow","leftarrow"],"horizon":10,"forced_choices":["rightarrow","leftarrow","rightarrow","leftarrow"],"right_color":"lightblue","left_color":"orange","left_mu":40,"right_mu":52,"left_numbers":[43,48,43,26,39,40,26,47,46,33],"right_numbers":[49,55,56,38,52,55,39,58,65,48],"points_earned":455,"phase":"task","trial_type":"horizons-task","trial_index":36,"time_elapsed":311175,"internal_node_id":"0.0-32.0","task_version":"0.2"},{"response_times":[707,245,157,253,156,164,101,118,139,139],"keys_pressed":["rightarrow","rightarrow","leftarrow","leftarrow","rightarrow","leftarrow","rightarrow","leftarrow","rightarrow","leftarrow"],"horizon":10,"forced_choices":["rightarrow","rightarrow","leftarrow","leftarrow"],"right_color":"orange","left_color":"lightblue","left_mu":40,"right_mu":36,"left_numbers":[42,52,48,34,41,45,42,32,34,42],"right_numbers":[36,35,33,37,32,40,44,40,28,38],"points_earned":376,"phase":"task","trial_type":"horizons-task","trial_index":37,"time_elapsed":314855,"internal_node_id":"0.0-33.0","task_version":"0.2"},{"response_times":[407,71,310,121,114],"keys_pressed":["leftarrow","rightarrow","rightarrow","leftarrow","rightarrow"],"horizon":5,"forced_choices":["leftarrow","rightarrow","rightarrow","leftarrow"],"right_color":"orange","left_color":"lightblue","left_mu":40,"right_mu":28,"left_numbers":[39,26,36,36,36],"right_numbers":[24,32,9,33,12],"points_earned":128,"phase":"task","trial_type":"horizons-task","trial_index":38,"time_elapsed":317380,"internal_node_id":"0.0-34.0","task_version":"0.2"},{"response_times":[259,83,281,148,142,134,161,121,147,116],"keys_pressed":["leftarrow","rightarrow","rightarrow","leftarrow","rightarrow","leftarrow","rightarrow","leftarrow","rightarrow","leftarrow"],"horizon":10,"forced_choices":["leftarrow","rightarrow","rightarrow","leftarrow"],"right_color":"orange","left_color":"lightblue","left_mu":40,"right_mu":44,"left_numbers":[31,35,40,35,42,55,35,52,39,34],"right_numbers":[45,49,57,50,48,25,48,23,44,42],"points_earned":453,"phase":"task","trial_type":"horizons-task","trial_index":39,"time_elapsed":320475,"internal_node_id":"0.0-35.0","task_version":"0.2"},{"response_times":[456,145,277,130,141,163,121,161,149,111],"keys_pressed":["rightarrow","leftarrow","leftarrow","rightarrow","leftarrow","rightarrow","leftarrow","rightarrow","leftarrow","rightarrow"],"horizon":10,"forced_choices":["rightarrow","leftarrow","leftarrow","rightarrow"],"right_color":"orange","left_color":"lightblue","left_mu":60,"right_mu":68,"left_numbers":[58,52,66,55,50,58,62,69,56,59],"right_numbers":[84,63,59,66,54,62,67,61,61,58],"points_earned":617,"phase":"task","trial_type":"horizons-task","trial_index":40,"time_elapsed":323832,"internal_node_id":"0.0-36.0","task_version":"0.2"},{"response_times":[1209,115,166,177,155,92,142,146,135,1339],"keys_pressed":["leftarrow","rightarrow","leftarrow","rightarrow","leftarrow","rightarrow","leftarrow","rightarrow","leftarrow","rightarrow"],"horizon":10,"forced_choices":["leftarrow","rightarrow","leftarrow","rightarrow"],"right_color":"orange","left_color":"lightblue","left_mu":40,"right_mu":32,"left_numbers":[32,48,44,28,49,39,35,35,42,51],"right_numbers":[29,39,36,25,40,35,26,34,33,48],"points_earned":383,"phase":"task","trial_type":"horizons-task","trial_index":41,"time_elapsed":329012,"internal_node_id":"0.0-37.0","task_version":"0.2"},{"response_times":[459,57,377,610,173,141,129,114,174,264],"keys_pressed":["rightarrow","leftarrow","rightarrow","rightarrow","leftarrow","rightarrow","leftarrow","rightarrow","leftarrow","rightarrow"],"horizon":10,"forced_choices":["rightarrow","leftarrow","rightarrow","rightarrow"],"right_color":"lightblue","left_color":"orange","left_mu":60,"right_mu":80,"left_numbers":[68,66,66,60,57,58,57,59,66,58],"right_numbers":[62,75,81,91,84,77,75,75,85,77],"points_earned":709,"phase":"task","trial_type":"horizons-task","trial_index":42,"time_elapsed":333012,"internal_node_id":"0.0-38.0","task_version":"0.2"},{"response_times":[334,320,119,144,102,158,125,116,134,132],"keys_pressed":["rightarrow","rightarrow","leftarrow","rightarrow","leftarrow","rightarrow","leftarrow","rightarrow","leftarrow","rightarrow"],"horizon":10,"forced_choices":["rightarrow","rightarrow","leftarrow","rightarrow"],"right_color":"lightblue","left_color":"orange","left_mu":60,"right_mu":56,"left_numbers":[55,55,58,62,44,52,50,60,63,65],"right_numbers":[44,51,61,61,59,50,53,63,40,53],"points_earned":537,"phase":"task","trial_type":"horizons-task","trial_index":43,"time_elapsed":336198,"internal_node_id":"0.0-39.0","task_version":"0.2"},{"response_times":[485,326,247,187,20],"keys_pressed":["rightarrow","rightarrow","leftarrow","rightarrow","leftarrow"],"horizon":5,"forced_choices":["rightarrow","rightarrow","leftarrow","rightarrow"],"right_color":"lightblue","left_color":"orange","left_mu":60,"right_mu":56,"left_numbers":[58,55,56,68,63],"right_numbers":[58,48,59,56,52],"points_earned":281,"phase":"task","trial_type":"horizons-task","trial_index":44,"time_elapsed":338965,"internal_node_id":"0.0-40.0","task_version":"0.2"},{"response_times":[344,12,202,151,162],"keys_pressed":["rightarrow","leftarrow","leftarrow","rightarrow","leftarrow"],"horizon":5,"forced_choices":["rightarrow","leftarrow","leftarrow","rightarrow"],"right_color":"lightblue","left_color":"orange","left_mu":60,"right_mu":56,"left_numbers":[44,55,50,54,66],"right_numbers":[52,42,60,48,60],"points_earned":271,"phase":"task","trial_type":"horizons-task","trial_index":45,"time_elapsed":341341,"internal_node_id":"0.0-41.0","task_version":"0.2"},{"response_times":[393,272,225,13,193],"keys_pressed":["leftarrow","leftarrow","rightarrow","leftarrow","rightarrow"],"horizon":5,"forced_choices":["leftarrow","leftarrow","rightarrow","leftarrow"],"right_color":"lightblue","left_color":"orange","left_mu":40,"right_mu":48,"left_numbers":[48,36,33,40,44],"right_numbers":[59,47,56,47,40],"points_earned":220,"phase":"task","trial_type":"horizons-task","trial_index":46,"time_elapsed":343940,"internal_node_id":"0.0-42.0","task_version":"0.2"},{"response_times":[5875,82,300,112,138],"keys_pressed":["rightarrow","leftarrow","rightarrow","leftarrow","rightarrow"],"horizon":5,"forced_choices":["rightarrow","leftarrow","rightarrow","leftarrow"],"right_color":"lightblue","left_color":"orange","left_mu":40,"right_mu":20,"left_numbers":[23,39,40,51,47],"right_numbers":[25,24,34,18,14],"points_earned":163,"phase":"task","trial_type":"horizons-task","trial_index":47,"time_elapsed":351949,"internal_node_id":"0.0-43.0","task_version":"0.2"},{"response_times":[465,224,271,109,132,121,109,138,117,121],"keys_pressed":["rightarrow","rightarrow","rightarrow","leftarrow","rightarrow","leftarrow","rightarrow","leftarrow","rightarrow","leftarrow"],"horizon":10,"forced_choices":["rightarrow","rightarrow","rightarrow","leftarrow"],"right_color":"lightblue","left_color":"orange","left_mu":40,"right_mu":52,"left_numbers":[38,36,37,44,30,44,40,52,46,53],"right_numbers":[36,43,50,50,49,42,52,57,46,55],"points_earned":469,"phase":"task","trial_type":"horizons-task","trial_index":48,"time_elapsed":355260,"internal_node_id":"0.0-44.0","task_version":"0.2"},{"response_times":[297,21,168,248,148,135,118,128,130,112],"keys_pressed":["leftarrow","rightarrow","leftarrow","leftarrow","rightarrow","leftarrow","rightarrow","leftarrow","rightarrow","leftarrow"],"horizon":10,"forced_choices":["leftarrow","rightarrow","leftarrow","leftarrow"],"right_color":"lightblue","left_color":"orange","left_mu":40,"right_mu":60,"left_numbers":[37,43,26,42,37,47,55,34,41,55],"right_numbers":[48,53,68,65,59,52,64,57,60,57],"points_earned":477,"phase":"task","trial_type":"horizons-task","trial_index":49,"time_elapsed":358266,"internal_node_id":"0.0-45.0","task_version":"0.2"},{"response_times":[293,116,160,242,133],"keys_pressed":["leftarrow","rightarrow","leftarrow","leftarrow","rightarrow"],"horizon":5,"forced_choices":["leftarrow","rightarrow","leftarrow","leftarrow"],"right_color":"lightblue","left_color":"orange","left_mu":40,"right_mu":60,"left_numbers":[48,52,49,48,35],"right_numbers":[70,59,75,50,48],"points_earned":252,"phase":"task","trial_type":"horizons-task","trial_index":50,"time_elapsed":360712,"internal_node_id":"0.0-46.0","task_version":"0.2"},{"view_history":"[{\"page_index\":0,\"viewing_time\":292},{\"page_index\":1,\"viewing_time\":2892}]","rt":3184,"trial_type":"instructions","trial_index":51,"time_elapsed":363898,"internal_node_id":"0.0-47.0","task_version":"0.2"},{"response_times":[1653,332,89,109,156,213,26,121,124,148],"keys_pressed":["leftarrow","leftarrow","rightarrow","leftarrow","rightarrow","leftarrow","rightarrow","leftarrow","rightarrow","leftarrow"],"horizon":10,"forced_choices":["leftarrow","leftarrow","rightarrow","leftarrow"],"right_color":"lightblue","left_color":"orange","left_mu":40,"right_mu":48,"left_numbers":[44,44,29,40,42,45,43,42,44,36],"right_numbers":[51,62,44,35,51,52,60,46,35,49],"points_earned":441,"phase":"task","trial_type":"horizons-task","trial_index":52,"time_elapsed":368376,"internal_node_id":"0.0-48.0","task_version":"0.2"},{"response_times":[8,139,140,129,112],"keys_pressed":["leftarrow","rightarrow","leftarrow","rightarrow","leftarrow"],"horizon":5,"forced_choices":["leftarrow","rightarrow","leftarrow","rightarrow"],"right_color":"orange","left_color":"lightblue","left_mu":40,"right_mu":32,"left_numbers":[41,61,33,50,30],"right_numbers":[24,19,44,23,26],"points_earned":146,"phase":"task","trial_type":"horizons-task","trial_index":53,"time_elapsed":370408,"internal_node_id":"0.0-49.0","task_version":"0.2"},{"response_times":[241,232,129,248,119,153,203,132,82,154],"keys_pressed":["leftarrow","leftarrow","rightarrow","rightarrow","leftarrow","rightarrow","leftarrow","rightarrow","leftarrow","rightarrow"],"horizon":10,"forced_choices":["leftarrow","leftarrow","rightarrow","rightarrow"],"right_color":"lightblue","left_color":"orange","left_mu":60,"right_mu":80,"left_numbers":[50,49,57,64,45,70,50,59,52,65],"right_numbers":[79,78,86,74,85,77,88,98,73,66],"points_earned":647,"phase":"task","trial_type":"horizons-task","trial_index":54,"time_elapsed":373603,"internal_node_id":"0.0-50.0","task_version":"0.2"},{"response_times":[258,328,542,171,475,6,253,111,91,154],"keys_pressed":["leftarrow","leftarrow","leftarrow","rightarrow","leftarrow","rightarrow","rightarrow","leftarrow","rightarrow","leftarrow"],"horizon":10,"forced_choices":["leftarrow","leftarrow","leftarrow","rightarrow"],"right_color":"lightblue","left_color":"orange","left_mu":40,"right_mu":20,"left_numbers":[38,41,52,40,27,39,25,27,41,47],"right_numbers":[12,10,29,14,21,9,12,16,20,21],"points_earned":287,"phase":"task","trial_type":"horizons-task","trial_index":55,"time_elapsed":377495,"internal_node_id":"0.0-51.0","task_version":"0.2"},{"response_times":[363,79,277,248,230,26,177,46,194,165],"keys_pressed":["leftarrow","rightarrow","rightarrow","rightarrow","leftarrow","rightarrow","rightarrow","leftarrow","leftarrow","rightarrow"],"horizon":10,"forced_choices":["leftarrow","rightarrow","rightarrow","rightarrow"],"right_color":"orange","left_color":"lightblue","left_mu":40,"right_mu":28,"left_numbers":[24,49,43,44,37,31,21,30,42,43],"right_numbers":[30,31,25,27,23,39,21,25,3,38],"points_earned":314,"phase":"task","trial_type":"horizons-task","trial_index":56,"time_elapsed":380804,"internal_node_id":"0.0-52.0","task_version":"0.2"},{"response_times":[329,242,343,200,222],"keys_pressed":["leftarrow","leftarrow","leftarrow","rightarrow","rightarrow"],"horizon":5,"forced_choices":["leftarrow","leftarrow","leftarrow","rightarrow"],"right_color":"lightblue","left_color":"orange","left_mu":40,"right_mu":20,"left_numbers":[55,31,52,42,40],"right_numbers":[32,16,27,7,41],"points_earned":186,"phase":"task","trial_type":"horizons-task","trial_index":57,"time_elapsed":383642,"internal_node_id":"0.0-53.0","task_version":"0.2"},{"response_times":[271,193,275,381,163,36,137,32,169,17],"keys_pressed":["leftarrow","rightarrow","rightarrow","rightarrow","leftarrow","rightarrow","rightarrow","leftarrow","leftarrow","rightarrow"],"horizon":10,"forced_choices":["leftarrow","rightarrow","rightarrow","rightarrow"],"right_color":"orange","left_color":"lightblue","left_mu":60,"right_mu":52,"left_numbers":[64,70,54,64,55,70,56,69,47,62],"right_numbers":[54,50,42,53,55,41,69,60,40,39],"points_earned":529,"phase":"task","trial_type":"horizons-task","trial_index":58,"time_elapsed":386817,"internal_node_id":"0.0-54.0","task_version":"0.2"},{"response_times":[328,407,16,206,253,130,240,205,243,2532],"keys_pressed":["rightarrow","rightarrow","leftarrow","leftarrow","leftarrow","rightarrow","rightarrow","rightarrow","rightarrow","leftarrow"],"horizon":10,"forced_choices":["rightarrow","rightarrow","leftarrow","leftarrow"],"right_color":"lightblue","left_color":"orange","left_mu":60,"right_mu":90,"left_numbers":[57,64,51,51,76,70,58,55,55,61],"right_numbers":[69,77,89,89,88,75,91,90,95,90],"points_earned":736,"phase":"task","trial_type":"horizons-task","trial_index":59,"time_elapsed":392880,"internal_node_id":"0.0-55.0","task_version":"0.2"},{"response_times":[635,182,209,231,93,177,129,168,116,154],"keys_pressed":["leftarrow","leftarrow","rightarrow","leftarrow","rightarrow","leftarrow","rightarrow","leftarrow","rightarrow","leftarrow"],"horizon":10,"forced_choices":["leftarrow","leftarrow","rightarrow","leftarrow"],"right_color":"orange","left_color":"lightblue","left_mu":40,"right_mu":70,"left_numbers":[39,38,57,30,37,36,50,31,39,38],"right_numbers":[87,73,82,64,73,81,80,79,71,71],"points_earned":518,"phase":"task","trial_type":"horizons-task","trial_index":60,"time_elapsed":396477,"internal_node_id":"0.0-56.0","task_version":"0.2"},{"response_times":[480,585,354,134,150],"keys_pressed":["leftarrow","rightarrow","rightarrow","leftarrow","rightarrow"],"horizon":5,"forced_choices":["leftarrow","rightarrow","rightarrow","leftarrow"],"right_color":"orange","left_color":"lightblue","left_mu":60,"right_mu":72,"left_numbers":[67,65,47,62,79],"right_numbers":[67,67,76,80,69],"points_earned":341,"phase":"task","trial_type":"horizons-task","trial_index":61,"time_elapsed":399681,"internal_node_id":"0.0-57.0","task_version":"0.2"},{"response_times":[379,158,252,183,139,158,135,151,148,132],"keys_pressed":["leftarrow","leftarrow","leftarrow","rightarrow","leftarrow","rightarrow","leftarrow","rightarrow","leftarrow","rightarrow"],"horizon":10,"forced_choices":["leftarrow","leftarrow","leftarrow","rightarrow"],"right_color":"lightblue","left_color":"orange","left_mu":60,"right_mu":90,"left_numbers":[73,58,69,62,61,61,50,71,72,53],"right_numbers":[83,94,86,84,75,84,77,83,92,81],"points_earned":715,"phase":"task","trial_type":"horizons-task","trial_index":62,"time_elapsed":403023,"internal_node_id":"0.0-58.0","task_version":"0.2"},{"response_times":[371,553,106,286,199,114,245,160,200,150],"keys_pressed":["rightarrow","rightarrow","leftarrow","leftarrow","rightarrow","leftarrow","leftarrow","rightarrow","leftarrow","rightarrow"],"horizon":10,"forced_choices":["rightarrow","rightarrow","leftarrow","leftarrow"],"right_color":"orange","left_color":"lightblue","left_mu":60,"right_mu":40,"left_numbers":[52,52,51,69,65,58,37,61,58,63],"right_numbers":[32,44,50,31,59,36,39,31,49,40],"points_earned":479,"phase":"task","trial_type":"horizons-task","trial_index":63,"time_elapsed":406911,"internal_node_id":"0.0-59.0","task_version":"0.2"},{"response_times":[379,396,240,121,174],"keys_pressed":["rightarrow","rightarrow","rightarrow","leftarrow","rightarrow"],"horizon":5,"forced_choices":["rightarrow","rightarrow","rightarrow","leftarrow"],"right_color":"lightblue","left_color":"orange","left_mu":60,"right_mu":30,"left_numbers":[52,50,58,57,53],"right_numbers":[34,23,20,30,27],"points_earned":161,"phase":"task","trial_type":"horizons-task","trial_index":64,"time_elapsed":409723,"internal_node_id":"0.0-60.0","task_version":"0.2"},{"response_times":[337,34,402,163,146,102,156,114,143,129],"keys_pressed":["rightarrow","leftarrow","rightarrow","leftarrow","rightarrow","leftarrow","rightarrow","leftarrow","rightarrow","leftarrow"],"horizon":10,"forced_choices":["rightarrow","leftarrow","rightarrow","leftarrow"],"right_color":"lightblue","left_color":"orange","left_mu":40,"right_mu":20,"left_numbers":[27,39,37,34,54,44,39,37,36,38],"right_numbers":[23,17,24,13,29,6,35,12,32,16],"points_earned":335,"phase":"task","trial_type":"horizons-task","trial_index":65,"time_elapsed":412951,"internal_node_id":"0.0-61.0","task_version":"0.2"},{"response_times":[288,151,132,134,142],"keys_pressed":["rightarrow","rightarrow","leftarrow","rightarrow","leftarrow"],"horizon":5,"forced_choices":["rightarrow","rightarrow","leftarrow","rightarrow"],"right_color":"orange","left_color":"lightblue","left_mu":60,"right_mu":40,"left_numbers":[58,67,66,50,56],"right_numbers":[44,40,43,40,39],"points_earned":246,"phase":"task","trial_type":"horizons-task","trial_index":66,"time_elapsed":415300,"internal_node_id":"0.0-62.0","task_version":"0.2"},{"response_times":[306,5,171,133,134,115,150,139,181,173],"keys_pressed":["rightarrow","leftarrow","leftarrow","rightarrow","leftarrow","rightarrow","leftarrow","rightarrow","leftarrow","rightarrow"],"horizon":10,"forced_choices":["rightarrow","leftarrow","leftarrow","rightarrow"],"right_color":"lightblue","left_color":"orange","left_mu":40,"right_mu":10,"left_numbers":[33,38,38,51,34,36,27,28,38,51],"right_numbers":[10,17,10,11,0,7,24,13,16,18],"points_earned":234,"phase":"task","trial_type":"horizons-task","trial_index":67,"time_elapsed":418309,"internal_node_id":"0.0-63.0","task_version":"0.2"},{"response_times":[279,27,341,69,185],"keys_pressed":["leftarrow","rightarrow","leftarrow","rightarrow","rightarrow"],"horizon":5,"forced_choices":["leftarrow","rightarrow","leftarrow","rightarrow"],"right_color":"lightblue","left_color":"orange","left_mu":40,"right_mu":60,"left_numbers":[38,45,39,42,38],"right_numbers":[50,60,55,68,56],"points_earned":261,"phase":"task","trial_type":"horizons-task","trial_index":68,"time_elapsed":420713,"internal_node_id":"0.0-64.0","task_version":"0.2"},{"response_times":[301,388,92,203,224,233,12,223,190,149],"keys_pressed":["leftarrow","leftarrow","rightarrow","leftarrow","rightarrow","leftarrow","rightarrow","leftarrow","rightarrow","leftarrow"],"horizon":10,"forced_choices":["leftarrow","leftarrow","rightarrow","leftarrow"],"right_color":"orange","left_color":"lightblue","left_mu":40,"right_mu":44,"left_numbers":[29,45,34,37,39,41,42,27,30,38],"right_numbers":[48,30,43,39,40,37,47,57,57,43],"points_earned":404,"phase":"task","trial_type":"horizons-task","trial_index":69,"time_elapsed":424230,"internal_node_id":"0.0-65.0","task_version":"0.2"},{"response_times":[295,217,281,273,145],"keys_pressed":["leftarrow","rightarrow","rightarrow","rightarrow","leftarrow"],"horizon":5,"forced_choices":["leftarrow","rightarrow","rightarrow","rightarrow"],"right_color":"orange","left_color":"lightblue","left_mu":60,"right_mu":72,"left_numbers":[58,64,56,51,57],"right_numbers":[71,69,69,67,70],"points_earned":320,"phase":"task","trial_type":"horizons-task","trial_index":70,"time_elapsed":426944,"internal_node_id":"0.0-66.0","task_version":"0.2"},{"response_times":[366,196,115,114,145],"keys_pressed":["leftarrow","rightarrow","leftarrow","rightarrow","leftarrow"],"horizon":5,"forced_choices":["leftarrow","rightarrow","leftarrow","rightarrow"],"right_color":"lightblue","left_color":"orange","left_mu":40,"right_mu":48,"left_numbers":[44,47,27,26,45],"right_numbers":[61,52,52,52,50],"points_earned":220,"phase":"task","trial_type":"horizons-task","trial_index":71,"time_elapsed":429379,"internal_node_id":"0.0-67.0","task_version":"0.2"},{"response_times":[270,23,205,291,135,124,129,209,182,209],"keys_pressed":["rightarrow","leftarrow","rightarrow","rightarrow","leftarrow","rightarrow","leftarrow","leftarrow","rightarrow","leftarrow"],"horizon":10,"forced_choices":["rightarrow","leftarrow","rightarrow","rightarrow"],"right_color":"lightblue","left_color":"orange","left_mu":40,"right_mu":10,"left_numbers":[45,33,38,47,36,41,53,33,33,42],"right_numbers":[2,12,5,10,8,10,18,8,0,19],"points_earned":224,"phase":"task","trial_type":"horizons-task","trial_index":72,"time_elapsed":432657,"internal_node_id":"0.0-68.0","task_version":"0.2"},{"response_times":[298,409,447,59,194],"keys_pressed":["leftarrow","leftarrow","leftarrow","rightarrow","rightarrow"],"horizon":5,"forced_choices":["leftarrow","leftarrow","leftarrow","rightarrow"],"right_color":"lightblue","left_color":"orange","left_mu":60,"right_mu":90,"left_numbers":[59,66,64,58,47],"right_numbers":[90,89,95,76,104],"points_earned":369,"phase":"task","trial_type":"horizons-task","trial_index":73,"time_elapsed":435565,"internal_node_id":"0.0-69.0","task_version":"0.2"},{"response_times":[281,47,1381,444,55,234,179,38,255,776],"keys_pressed":["leftarrow","rightarrow","leftarrow","leftarrow","rightarrow","leftarrow","rightarrow","leftarrow","leftarrow","rightarrow"],"horizon":10,"forced_choices":["leftarrow","rightarrow","leftarrow","leftarrow"],"right_color":"orange","left_color":"lightblue","left_mu":40,"right_mu":32,"left_numbers":[40,51,34,27,46,34,43,34,47,40],"right_numbers":[26,31,35,17,33,17,26,39,39,27],"points_earned":333,"phase":"task","trial_type":"horizons-task","trial_index":74,"time_elapsed":440757,"internal_node_id":"0.0-70.0","task_version":"0.2"},{"response_times":[265,27,381,283,137,123,137,206,72,155],"keys_pressed":["rightarrow","leftarrow","leftarrow","leftarrow","rightarrow","leftarrow","rightarrow","leftarrow","rightarrow","leftarrow"],"horizon":10,"forced_choices":["rightarrow","leftarrow","leftarrow","leftarrow"],"right_color":"orange","left_color":"lightblue","left_mu":60,"right_mu":48,"left_numbers":[59,61,49,53,69,72,64,70,52,64],"right_numbers":[51,46,53,47,48,52,46,51,53,48],"points_earned":567,"phase":"task","trial_type":"horizons-task","trial_index":75,"time_elapsed":444045,"internal_node_id":"0.0-71.0","task_version":"0.2"},{"response_times":[483,297,181,122,148],"keys_pressed":["rightarrow","rightarrow","leftarrow","rightarrow","leftarrow"],"horizon":5,"forced_choices":["rightarrow","rightarrow","leftarrow","rightarrow"],"right_color":"orange","left_color":"lightblue","left_mu":60,"right_mu":68,"left_numbers":[66,64,63,60,70],"right_numbers":[68,66,71,74,68],"points_earned":341,"phase":"task","trial_type":"horizons-task","trial_index":76,"time_elapsed":446778,"internal_node_id":"0.0-72.0","task_version":"0.2"},{"response_times":[261,299,118,132,136],"keys_pressed":["leftarrow","leftarrow","rightarrow","leftarrow","rightarrow"],"horizon":5,"forced_choices":["leftarrow","leftarrow","rightarrow","leftarrow"],"right_color":"orange","left_color":"lightblue","left_mu":40,"right_mu":70,"left_numbers":[55,30,36,41,38],"right_numbers":[84,75,75,62,68],"points_earned":269,"phase":"task","trial_type":"horizons-task","trial_index":77,"time_elapsed":449225,"internal_node_id":"0.0-73.0","task_version":"0.2"},{"response_times":[304,170,139,134,106],"keys_pressed":["leftarrow","rightarrow","leftarrow","rightarrow","leftarrow"],"horizon":5,"forced_choices":["leftarrow","rightarrow","leftarrow","rightarrow"],"right_color":"orange","left_color":"lightblue","left_mu":60,"right_mu":52,"left_numbers":[53,41,76,58,59],"right_numbers":[53,59,58,48,44],"points_earned":295,"phase":"task","trial_type":"horizons-task","trial_index":78,"time_elapsed":451578,"internal_node_id":"0.0-74.0","task_version":"0.2"},{"response_times":[1521,13,270,308,135],"keys_pressed":["rightarrow","leftarrow","leftarrow","leftarrow","rightarrow"],"horizon":5,"forced_choices":["rightarrow","leftarrow","leftarrow","leftarrow"],"right_color":"orange","left_color":"lightblue","left_mu":40,"right_mu":36,"left_numbers":[33,35,30,36,45],"right_numbers":[46,31,34,38,48],"points_earned":195,"phase":"task","trial_type":"horizons-task","trial_index":79,"time_elapsed":455326,"internal_node_id":"0.0-75.0","task_version":"0.2"},{"response_times":[469,517,121,143,247,207,182,113,128,128],"keys_pressed":["leftarrow","rightarrow","leftarrow","rightarrow","leftarrow","rightarrow","leftarrow","rightarrow","leftarrow","rightarrow"],"horizon":10,"forced_choices":["leftarrow","rightarrow","leftarrow","rightarrow"],"right_color":"lightblue","left_color":"orange","left_mu":40,"right_mu":48,"left_numbers":[47,41,45,25,39,40,34,46,45,45],"right_numbers":[42,51,57,43,56,66,60,52,40,41],"points_earned":463,"phase":"task","trial_type":"horizons-task","trial_index":80,"time_elapsed":459089,"internal_node_id":"0.0-76.0","task_version":"0.2"},{"response_times":[302,397,232,113,181,191,219,218,15,131],"keys_pressed":["rightarrow","leftarrow","leftarrow","rightarrow","leftarrow","rightarrow","rightarrow","leftarrow","rightarrow","leftarrow"],"horizon":10,"forced_choices":["rightarrow","leftarrow","leftarrow","rightarrow"],"right_color":"lightblue","left_color":"orange","left_mu":60,"right_mu":64,"left_numbers":[55,59,63,62,64,56,64,58,74,72],"right_numbers":[74,75,60,55,86,66,77,53,54,65],"points_earned":642,"phase":"task","trial_type":"horizons-task","trial_index":81,"time_elapsed":462589,"internal_node_id":"0.0-77.0","task_version":"0.2"},{"response_times":[240,45,171,395,4],"keys_pressed":["rightarrow","leftarrow","rightarrow","leftarrow","rightarrow"],"horizon":5,"forced_choices":["rightarrow","leftarrow","rightarrow","leftarrow"],"right_color":"orange","left_color":"lightblue","left_mu":60,"right_mu":48,"left_numbers":[57,61,56,54,76],"right_numbers":[42,45,38,59,48],"points_earned":243,"phase":"task","trial_type":"horizons-task","trial_index":82,"time_elapsed":464944,"internal_node_id":"0.0-78.0","task_version":"0.2"},{"response_times":[530,169,219,206,69,151,153,48,182,34],"keys_pressed":["leftarrow","rightarrow","leftarrow","rightarrow","leftarrow","leftarrow","rightarrow","leftarrow","leftarrow","rightarrow"],"horizon":10,"forced_choices":["leftarrow","rightarrow","leftarrow","rightarrow"],"right_color":"lightblue","left_color":"orange","left_mu":40,"right_mu":60,"left_numbers":[47,33,32,54,34,41,40,33,37,51],"right_numbers":[59,62,60,70,47,68,57,55,63,68],"points_earned":481,"phase":"task","trial_type":"horizons-task","trial_index":83,"time_elapsed":468208,"internal_node_id":"0.0-79.0","task_version":"0.2"},{"response_times":[267,15,166,267,3],"keys_pressed":["rightarrow","leftarrow","rightarrow","rightarrow","leftarrow"],"horizon":5,"forced_choices":["rightarrow","leftarrow","rightarrow","rightarrow"],"right_color":"lightblue","left_color":"orange","left_mu":60,"right_mu":80,"left_numbers":[49,56,60,56,51],"right_numbers":[76,78,91,111,70],"points_earned":385,"phase":"task","trial_type":"horizons-task","trial_index":84,"time_elapsed":470429,"internal_node_id":"0.0-80.0","task_version":"0.2"},{"response_times":[264,11,270,167,187],"keys_pressed":["rightarrow","leftarrow","leftarrow","rightarrow","leftarrow"],"horizon":5,"forced_choices":["rightarrow","leftarrow","leftarrow","rightarrow"],"right_color":"orange","left_color":"lightblue","left_mu":60,"right_mu":68,"left_numbers":[54,55,59,46,47],"right_numbers":[83,67,57,72,72],"points_earned":316,"phase":"task","trial_type":"horizons-task","trial_index":85,"time_elapsed":472829,"internal_node_id":"0.0-81.0","task_version":"0.2"},{"response_times":[175,208,17,460,179],"keys_pressed":["rightarrow","leftarrow","rightarrow","rightarrow","leftarrow"],"horizon":5,"forced_choices":["rightarrow","leftarrow","rightarrow","rightarrow"],"right_color":"lightblue","left_color":"orange","left_mu":40,"right_mu":10,"left_numbers":[45,53,34,38,34],"right_numbers":[0,24,15,12,9],"points_earned":114,"phase":"task","trial_type":"horizons-task","trial_index":86,"time_elapsed":475369,"internal_node_id":"0.0-82.0","task_version":"0.2"},{"response_times":[219,217,86,139,192,200,26,417,5,218],"keys_pressed":["rightarrow","rightarrow","leftarrow","rightarrow","leftarrow","rightarrow","leftarrow","leftarrow","rightarrow","leftarrow"],"horizon":10,"forced_choices":["rightarrow","rightarrow","leftarrow","rightarrow"],"right_color":"orange","left_color":"lightblue","left_mu":60,"right_mu":68,"left_numbers":[43,63,55,58,71,58,57,58,65,62],"right_numbers":[73,58,56,64,61,58,62,56,80,77],"points_earned":636,"phase":"task","trial_type":"horizons-task","trial_index":87,"time_elapsed":478590,"internal_node_id":"0.0-83.0","task_version":"0.2"},{"response_times":[442,20,216,132,43,214,359,262,11,206],"keys_pressed":["rightarrow","leftarrow","leftarrow","leftarrow","rightarrow","rightarrow","leftarrow","rightarrow","leftarrow","rightarrow"],"horizon":10,"forced_choices":["rightarrow","leftarrow","leftarrow","leftarrow"],"right_color":"lightblue","left_color":"orange","left_mu":60,"right_mu":64,"left_numbers":[64,64,63,52,54,56,46,60,54,56],"right_numbers":[60,61,57,67,58,76,50,76,65,66],"points_earned":615,"phase":"task","trial_type":"horizons-task","trial_index":88,"time_elapsed":481998,"internal_node_id":"0.0-84.0","task_version":"0.2"},{"response_times":[342,49,147,36,190,13,169,242,173,26],"keys_pressed":["rightarrow","leftarrow","leftarrow","rightarrow","rightarrow","leftarrow","leftarrow","leftarrow","leftarrow","rightarrow"],"horizon":10,"forced_choices":["rightarrow","leftarrow","leftarrow","rightarrow"],"right_color":"lightblue","left_color":"orange","left_mu":60,"right_mu":56,"left_numbers":[55,60,50,68,65,43,70,58,67,55],"right_numbers":[48,69,46,48,60,64,59,60,52,41],"points_earned":545,"phase":"task","trial_type":"horizons-task","trial_index":89,"time_elapsed":484889,"internal_node_id":"0.0-85.0","task_version":"0.2"},{"response_times":[335,205,26,137,158,10,165,196,17,622],"keys_pressed":["rightarrow","rightarrow","leftarrow","rightarrow","rightarrow","leftarrow","leftarrow","leftarrow","rightarrow","leftarrow"],"horizon":10,"forced_choices":["rightarrow","rightarrow","leftarrow","rightarrow"],"right_color":"orange","left_color":"lightblue","left_mu":60,"right_mu":40,"left_numbers":[64,62,78,51,50,67,62,53,70,58],"right_numbers":[34,49,46,32,27,52,45,43,42,43],"points_earned":502,"phase":"task","trial_type":"horizons-task","trial_index":90,"time_elapsed":488264,"internal_node_id":"0.0-86.0","task_version":"0.2"},{"response_times":[1028,7,193,7,157],"keys_pressed":["rightarrow","leftarrow","rightarrow","leftarrow","rightarrow"],"horizon":5,"forced_choices":["rightarrow","leftarrow","rightarrow","leftarrow"],"right_color":"lightblue","left_color":"orange","left_mu":40,"right_mu":52,"left_numbers":[38,39,43,48,42],"right_numbers":[60,50,37,57,52],"points_earned":236,"phase":"task","trial_type":"horizons-task","trial_index":91,"time_elapsed":491158,"internal_node_id":"0.0-87.0","task_version":"0.2"},{"rt":17189,"responses":{"age":"41","gender-categorical":"Male","gender-free-response":"","ethnicity":"Not Hispanic or Latino","race":["White"],"language":"Yes","fluency":"Very well"},"survey":"demographics","trial_type":"survey-demo","trial_index":92,"time_elapsed":508358,"internal_node_id":"0.0-88.0","task_version":"0.2"},{"rt":16234,"responses":{"difficulty":"5","fun":"5","clarity":"5","strategy":"No","feedback":""},"survey":"debrief","trial_type":"survey-debrief","trial_index":93,"time_elapsed":524595,"internal_node_id":"0.0-89.0","task_version":"0.2","interactions":"[{\"event\":\"focus\",\"trial\":0,\"time\":0}]"}]