[{"view_history":"[{\"page_index\":0,\"viewing_time\":9465.720000000147}]","rt":9466.549999997369,"trial_type":"instructions","trial_index":0,"time_elapsed":9486,"internal_node_id":"0.0-0.0","task_version":"0.2"},{"item_order":[7,4,6,15,10,5,13,1,3,14,0,12,8,9,11,2],"responses":{"Q08":"5","Q05":"4","Q07":"5","Q16":"5","Q11":"4","Q06":"4","Q14":"4","Q02":"4","Q04":"4","Q15":"4","Q01":"4","Q13":"4","Q09":"4","Q10":"4","Q12":"4","Q03":"4"},"radio_events":[4352.630000001227,8025.9750000041095,13041.409999997995,15253.515000003972,18310.669999998936,20744.635000002745,26055.76000000292,31313.755000002857,33598.760000000766,35352.160000002186,41037.32000000309,41882.8050000011,51101.03499999968,55420.51499999798,55761.65000000037,63270.94500000385,64633.30000000133],"key_events":[],"mouse_events":[0.09500000305706635,4352.630000001227,8025.9750000041095,9559.375000004366,13041.409999997995,15253.515000003972,18310.669999998936,20744.635000002745,26055.76000000292,28725.035000003118,31313.755000002857,33598.760000000766,35352.160000002186,39088.739999999234,40206.624999998894,41037.32000000309,41882.8050000011,51101.03499999968,55420.51499999798,55761.65000000037,62299.550000003364,63270.94500000385,64633.30000000133,65567.97499999811],"rt":65571.179999999,"survey":"nfc","trial_type":"survey-template","trial_index":1,"time_elapsed":75062,"internal_node_id":"0.0-1.0","task_version":"0.2"},{"item_order":[8,12,6,5,0,4,3,10,1,7,9,11,2],"responses":{"Q09":"1","Q13":"4","Q07":"2","Q06":"0","Q01":"0","Q05":"2","Q04":"3","Q11":"4","Q02":"3","Q08":"3","Q10":"1","Q12":"3","Q03":"1"},"radio_events":[4063.289999998233,6235.419999997248,14294.17999999714,19808.359999995446,22171.054999998887,26753.719999993336,33065.06999999692,36750.764999997045,39678.554999998596,52386.124999997264,67789.89000000001,89696.81999999739,91963.06499999628],"key_events":[],"mouse_events":[4063.289999998233,6235.419999997248,14294.17999999714,19808.359999995446,22171.054999998887,26753.719999993336,33065.06999999692,36750.764999997045,39678.554999998596,52386.124999997264,67789.89000000001,89696.81999999739,91963.06499999628,93220.91499999806],"rt":93222.93999999965,"survey":"ius12","trial_type":"survey-template","trial_index":2,"time_elapsed":168292,"internal_node_id":"0.0-2.0","task_version":"0.2"},{"item_order":[14,12,7,3,10,9,1,6,2,8,13,11,5,15,0,4,16],"responses":{"Q15":"1","Q13":"0","Q08":"1","Q04":"0","Q11":"0","Q10":"3","Q02":"0","Q07":"0","Q03":"4","Q09":"3","Q14":"0","Q12":"0","Q06":"2","Q16":"2","Q01":"3","Q05":"0","Q17":"0"},"radio_events":[5648.235000000568,8998.715000001539,12186.890000004496,14082.740000005288,22675.954999998794,34614.2800000016,38189.525000001595,42858.970000001136,44269.56500000233,52876.7399999997,90302.01500000112,99399.8900000006,100983.14000000391,103044.65000000346,120740.08500000491,127134.98500000424,128508.01499999943],"key_events":[],"mouse_events":[5648.235000000568,8998.715000001539,12186.890000004496,14082.740000005288,21913.939999998547,22675.954999998794,34614.2800000016,38189.525000001595,42033.67000000435,42858.970000001136,43546.47500000283,44269.56500000233,52876.7399999997,90302.01500000112,97582.70500000071,99399.8900000006,100983.14000000391,103044.65000000346,120740.08500000491,127134.98500000424,128508.01499999943,130191.11500000145],"rt":130193.61500000377,"survey":"pswq","trial_type":"survey-template","trial_index":3,"time_elapsed":298491,"internal_node_id":"0.0-3.0","task_version":"0.2"},{"view_history":"[{\"page_index\":0,\"viewing_time\":25518.315000001166},{\"page_index\":1,\"viewing_time\":19946.81000000128},{\"page_index\":2,\"viewing_time\":21299.254999998084},{\"page_index\":3,\"viewing_time\":17371.455000000424},{\"page_index\":4,\"viewing_time\":43244.92499999906},{\"page_index\":5,\"viewing_time\":4524.7700000036275},{\"page_index\":6,\"viewing_time\":152344.26499999972},{\"page_index\":7,\"viewing_time\":6051.924999999814},{\"page_index\":8,\"viewing_time\":8595.389999994892},{\"page_index\":9,\"viewing_time\":44917.39000000234}]","rt":343814.84500000085,"trial_type":"instructions","trial_index":4,"time_elapsed":642306,"internal_node_id":"0.0-4.0-0.0","task_version":"0.2"},{"response_times":[6237.054999997723,4276.599999997416,1544.0850000013597,1762.0699999970384,2228.4149999978254],"keys_pressed":["rightarrow","leftarrow","rightarrow","rightarrow","rightarrow"],"horizon":5,"forced_choices":["rightarrow","leftarrow","rightarrow","rightarrow"],"right_color":"lightblue","left_color":"orange","left_mu":40,"right_mu":20,"left_numbers":[32,37,47,45,34],"right_numbers":[17,39,18,15,29],"points_earned":116,"phase":"practice","trial_type":"horizons-task","trial_index":5,"time_elapsed":659899,"internal_node_id":"0.0-4.0-1.0","task_version":"0.2"},{"response_times":[2515.769999998156,1036.030000002822,1183.8199999984354,1343.540000001667,1004.900000007241,715.7300000034738,558.564999999362,610.5249999964144,444.7450000005774,437.3300000006566],"keys_pressed":["leftarrow","leftarrow","rightarrow","rightarrow","rightarrow","rightarrow","rightarrow","rightarrow","rightarrow","rightarrow"],"horizon":10,"forced_choices":["leftarrow","leftarrow","rightarrow","rightarrow"],"right_color":"orange","left_color":"lightblue","left_mu":60,"right_mu":70,"left_numbers":[67,70,58,51,55,50,52,69,57,52],"right_numbers":[74,71,69,80,66,73,58,76,65,68],"points_earned":692,"phase":"practice","trial_type":"horizons-task","trial_index":6,"time_elapsed":671255,"internal_node_id":"0.0-4.0-2.0","task_version":"0.2"},{"view_history":"[{\"page_index\":0,\"viewing_time\":4961.955000006128},{\"page_index\":1,\"viewing_time\":3115.829999995185},{\"page_index\":2,\"viewing_time\":3273.059999999474},{\"page_index\":3,\"viewing_time\":3875.25000000454}]","rt":15226.425000000745,"trial_type":"instructions","trial_index":7,"time_elapsed":686483,"internal_node_id":"0.0-4.0-3.0","task_version":"0.2"},{"responses":["true","false","true"],"num_errors":0,"rt":16580.190000000526,"trial_type":"horizons-comprehension","trial_index":8,"time_elapsed":703067,"internal_node_id":"0.0-4.0-4.0","task_version":"0.2"},{"trial_type":"call-function","trial_index":9,"time_elapsed":703070,"internal_node_id":"0.0-5.0","task_version":"0.2"},{"view_history":"[{\"page_index\":0,\"viewing_time\":2074.7800000027055},{\"page_index\":1,\"viewing_time\":4284.054999996442}]","rt":6359.094999999856,"trial_type":"instructions","trial_index":10,"time_elapsed":709429,"internal_node_id":"0.0-6.0","task_version":"0.2"},{"response_times":[3364.379999998957,797.0300000015413,787.4950000040699,795.4900000040652,398.54499999643303,346.7300000047544,349.3400000005495,1103.8450000050943,657.7550000002375,826.4500000004191],"keys_pressed":["leftarrow","rightarrow","leftarrow","rightarrow","rightarrow","rightarrow","rightarrow","rightarrow","rightarrow","rightarrow"],"horizon":10,"forced_choices":["leftarrow","rightarrow","leftarrow","rightarrow"],"right_color":"orange","left_color":"lightblue","left_mu":40,"right_mu":36,"left_numbers":[38,26,32,43,36,36,45,32,43,47],"right_numbers":[34,46,30,36,35,27,26,38,41,44],"points_earned":363,"phase":"task","trial_type":"horizons-task","trial_index":11,"time_elapsed":720365,"internal_node_id":"0.0-7.0","task_version":"0.2"},{"response_times":[1632.1250000037253,1104.704999997979,1244.0199999982724,477.0550000029616,488.98499999637716],"keys_pressed":["rightarrow","leftarrow","leftarrow","leftarrow","leftarrow"],"horizon":5,"forced_choices":["rightarrow","leftarrow","leftarrow","leftarrow"],"right_color":"orange","left_color":"lightblue","left_mu":40,"right_mu":20,"left_numbers":[50,33,21,48,29],"right_numbers":[31,15,10,34,23],"points_earned":162,"phase":"task","trial_type":"horizons-task","trial_index":12,"time_elapsed":726817,"internal_node_id":"0.0-8.0","task_version":"0.2"},{"response_times":[795.350000000326,438.09000000322703,965.4450000015786,917.9549999971641,535.2399999974295,298.48499999940395,567.7300000025425,367.32499999925494,906.7550000036135,438.0550000059884],"keys_pressed":["rightarrow","leftarrow","leftarrow","rightarrow","leftarrow","rightarrow","leftarrow","rightarrow","leftarrow","rightarrow"],"horizon":10,"forced_choices":["rightarrow","leftarrow","leftarrow","rightarrow"],"right_color":"orange","left_color":"lightblue","left_mu":60,"right_mu":90,"left_numbers":[53,69,73,69,71,60,79,54,60,49],"right_numbers":[81,99,93,84,109,95,84,98,86,89],"points_earned":799,"phase":"task","trial_type":"horizons-task","trial_index":13,"time_elapsed":734552,"internal_node_id":"0.0-9.0","task_version":"0.2"},{"response_times":[1352.1299999991897,824.8400000010151,419.07999999960884,318.37500000256114,318.5799999992596],"keys_pressed":["leftarrow","rightarrow","leftarrow","rightarrow","leftarrow"],"horizon":5,"forced_choices":["leftarrow","rightarrow","leftarrow","rightarrow"],"right_color":"lightblue","left_color":"orange","left_mu":60,"right_mu":30,"left_numbers":[71,67,61,53,61],"right_numbers":[34,30,27,39,29],"points_earned":262,"phase":"task","trial_type":"horizons-task","trial_index":14,"time_elapsed":739289,"internal_node_id":"0.0-10.0","task_version":"0.2"},{"response_times":[1092.6849999960978,388.0499999941094,886.0950000016019,776.2150000053225,627.5600000008708,756.025000002468,3823.1349999987287,318.24500000220723,436.5299999990966,487.6250000016298],"keys_pressed":["leftarrow","rightarrow","rightarrow","rightarrow","rightarrow","rightarrow","rightarrow","leftarrow","rightarrow","leftarrow"],"horizon":10,"forced_choices":["leftarrow","rightarrow","rightarrow","rightarrow"],"right_color":"lightblue","left_color":"orange","left_mu":60,"right_mu":48,"left_numbers":[49,63,71,71,59,56,72,68,54,37],"right_numbers":[44,54,47,51,34,50,60,43,50,46],"points_earned":500,"phase":"task","trial_type":"horizons-task","trial_index":15,"time_elapsed":750400,"internal_node_id":"0.0-11.0","task_version":"0.2"},{"response_times":[1162.0249999978114,686.6650000009686,338.92000000190455,806.2000000063563,327.2999999971362],"keys_pressed":["leftarrow","leftarrow","rightarrow","rightarrow","leftarrow"],"horizon":5,"forced_choices":["leftarrow","leftarrow","rightarrow","rightarrow"],"right_color":"orange","left_color":"lightblue","left_mu":60,"right_mu":68,"left_numbers":[51,60,59,41,61],"right_numbers":[59,81,73,79,67],"points_earned":324,"phase":"task","trial_type":"horizons-task","trial_index":16,"time_elapsed":755224,"internal_node_id":"0.0-12.0","task_version":"0.2"},{"response_times":[1186.5299999990966,407.94499999913387,288.845000002766,576.3699999952223,439.50000000034925,307.82999999797903,388.5000000009313,298.53000000002794,407.95999999681953,298.6000000019558],"keys_pressed":["rightarrow","leftarrow","rightarrow","rightarrow","leftarrow","rightarrow","leftarrow","rightarrow","leftarrow","rightarrow"],"horizon":10,"forced_choices":["rightarrow","leftarrow","rightarrow","rightarrow"],"right_color":"lightblue","left_color":"orange","left_mu":40,"right_mu":52,"left_numbers":[50,30,33,32,43,35,41,38,40,47],"right_numbers":[54,46,63,55,58,61,42,43,62,49],"points_earned":479,"phase":"task","trial_type":"horizons-task","trial_index":17,"time_elapsed":761329,"internal_node_id":"0.0-13.0","task_version":"0.2"},{"response_times":[855.6449999960605,248.17999999504536,298.005000004312,230.30999999889173,230.28000000340398,249.9450000032084,713.4349999979604,526.8700000015087,1424.9200000049314,247.56999999959953],"keys_pressed":["leftarrow","rightarrow","leftarrow","rightarrow","leftarrow","rightarrow","rightarrow","rightarrow","leftarrow","rightarrow"],"horizon":10,"forced_choices":["leftarrow","rightarrow","leftarrow","rightarrow"],"right_color":"lightblue","left_color":"orange","left_mu":40,"right_mu":52,"left_numbers":[39,33,53,41,35,36,38,44,41,42],"right_numbers":[61,64,47,49,49,44,55,43,59,49],"points_earned":472,"phase":"task","trial_type":"horizons-task","trial_index":18,"time_elapsed":767857,"internal_node_id":"0.0-14.0","task_version":"0.2"},{"response_times":[1225.3250000067055,567.204999999376,477.70999999914784,1005.7600000000093,457.85999999498017,407.5650000013411,378.2950000022538,368.849999998929,456.7899999965448,467.31500000169035],"keys_pressed":["leftarrow","leftarrow","leftarrow","rightarrow","leftarrow","leftarrow","leftarrow","leftarrow","leftarrow","leftarrow"],"horizon":10,"forced_choices":["leftarrow","leftarrow","leftarrow","rightarrow"],"right_color":"lightblue","left_color":"orange","left_mu":40,"right_mu":70,"left_numbers":[35,28,54,39,40,30,29,47,33,48],"right_numbers":[74,74,56,83,78,72,79,70,75,72],"points_earned":427,"phase":"task","trial_type":"horizons-task","trial_index":19,"time_elapsed":775174,"internal_node_id":"0.0-15.0","task_version":"0.2"},{"response_times":[857.7199999999721,608.0549999970244,1186.2150000014808,377.200000002631,277.4400000052992,287.44499999447726,260.09000000345986,378.28499999886844,478.1749999965541,407.5200000006007],"keys_pressed":["leftarrow","rightarrow","rightarrow","rightarrow","rightarrow","rightarrow","rightarrow","rightarrow","leftarrow","rightarrow"],"horizon":10,"forced_choices":["leftarrow","rightarrow","rightarrow","rightarrow"],"right_color":"orange","left_color":"lightblue","left_mu":60,"right_mu":40,"left_numbers":[62,62,57,70,59,65,56,66,64,60],"right_numbers":[42,40,34,42,26,42,35,36,40,40],"points_earned":421,"phase":"task","trial_type":"horizons-task","trial_index":20,"time_elapsed":781795,"internal_node_id":"0.0-16.0","task_version":"0.2"},{"response_times":[1147.7000000013504,663.9599999981001,278.7800000004936,1373.6900000002934,436.8800000010524,379.67500000377186,457.28499999677297,308.42000000108965,347.3549999980023,527.6000000012573],"keys_pressed":["rightarrow","rightarrow","leftarrow","leftarrow","leftarrow","leftarrow","leftarrow","rightarrow","leftarrow","rightarrow"],"horizon":10,"forced_choices":["rightarrow","rightarrow","leftarrow","leftarrow"],"right_color":"lightblue","left_color":"orange","left_mu":40,"right_mu":48,"left_numbers":[43,35,26,44,48,39,47,28,30,45],"right_numbers":[29,46,62,43,60,32,43,47,38,40],"points_earned":396,"phase":"task","trial_type":"horizons-task","trial_index":21,"time_elapsed":789220,"internal_node_id":"0.0-17.0","task_version":"0.2"},{"response_times":[1616.200000004028,515.1049999985844,1956.6699999995762,721.6000000044005,368.2699999989709],"keys_pressed":["leftarrow","leftarrow","rightarrow","rightarrow","rightarrow"],"horizon":5,"forced_choices":["leftarrow","leftarrow","rightarrow","rightarrow"],"right_color":"orange","left_color":"lightblue","left_mu":40,"right_mu":20,"left_numbers":[39,42,32,49,36],"right_numbers":[22,15,8,23,17],"points_earned":129,"phase":"task","trial_type":"horizons-task","trial_index":22,"time_elapsed":795902,"internal_node_id":"0.0-18.0","task_version":"0.2"},{"response_times":[2705.8449999967124,671.0000000020955,1309.6250000016298,359.75000000325963,348.2149999982212,339.1349999947706,290.43000000098255,256.41999999794643,368.02000000176486,328.6299999963958],"keys_pressed":["rightarrow","rightarrow","leftarrow","rightarrow","leftarrow","rightarrow","leftarrow","rightarrow","leftarrow","rightarrow"],"horizon":10,"forced_choices":["rightarrow","rightarrow","leftarrow","rightarrow"],"right_color":"lightblue","left_color":"orange","left_mu":40,"right_mu":10,"left_numbers":[48,50,43,39,36,39,39,47,41,30],"right_numbers":[8,12,5,6,0,4,8,0,30,13],"points_earned":202,"phase":"task","trial_type":"horizons-task","trial_index":23,"time_elapsed":804384,"internal_node_id":"0.0-19.0","task_version":"0.2"},{"response_times":[618.4550000034506,406.62500000325963,906.2599999960512,406.72999999509193,288.8000000020256,268.7099999965867,309.6000000004424,319.0300000059651,278.36499999824446,298.4149999974761],"keys_pressed":["leftarrow","rightarrow","rightarrow","leftarrow","rightarrow","leftarrow","rightarrow","leftarrow","rightarrow","leftarrow"],"horizon":10,"forced_choices":["leftarrow","rightarrow","rightarrow","leftarrow"],"right_color":"lightblue","left_color":"orange","left_mu":40,"right_mu":70,"left_numbers":[36,31,31,35,45,32,48,37,47,43],"right_numbers":[78,77,68,71,85,78,71,75,69,78],"points_earned":553,"phase":"task","trial_type":"horizons-task","trial_index":24,"time_elapsed":809991,"internal_node_id":"0.0-20.0","task_version":"0.2"},{"response_times":[671.3450000024168,289.13000000466127,438.22999999974854,239.1349999960512,219.03500000189524,198.48500000080094,221.3400000036927,226.65000000409782,207.80000000377186,199.22999999835156],"keys_pressed":["rightarrow","leftarrow","leftarrow","rightarrow","leftarrow","rightarrow","leftarrow","rightarrow","leftarrow","rightarrow"],"horizon":10,"forced_choices":["rightarrow","leftarrow","leftarrow","rightarrow"],"right_color":"lightblue","left_color":"orange","left_mu":60,"right_mu":48,"left_numbers":[63,53,61,60,69,60,62,64,74,46],"right_numbers":[34,53,63,42,52,47,49,46,44,43],"points_earned":531,"phase":"task","trial_type":"horizons-task","trial_index":25,"time_elapsed":814408,"internal_node_id":"0.0-21.0","task_version":"0.2"},{"response_times":[629.1399999973364,1133.8699999978999,607.2400000047637,288.7799999952549,308.34999999939464,259.085000005085,308.73000000428874,269.0900000015972,327.83000000205357,198.275000002468],"keys_pressed":["leftarrow","leftarrow","leftarrow","rightarrow","leftarrow","rightarrow","leftarrow","rightarrow","leftarrow","rightarrow"],"horizon":10,"forced_choices":["leftarrow","leftarrow","leftarrow","rightarrow"],"right_color":"orange","left_color":"lightblue","left_mu":40,"right_mu":44,"left_numbers":[50,42,44,33,39,43,37,44,33,52],"right_numbers":[36,48,38,35,39,39,55,37,51,36],"points_earned":392,"phase":"task","trial_type":"horizons-task","trial_index":26,"time_elapsed":820243,"internal_node_id":"0.0-22.0","task_version":"0.2"},{"response_times":[777.9399999999441,318.59999999869615,219.6750000002794,228.13000000314787,200.6150000015041],"keys_pressed":["rightarrow","leftarrow","rightarrow","leftarrow","rightarrow"],"horizon":5,"forced_choices":["rightarrow","leftarrow","rightarrow","leftarrow"],"right_color":"orange","left_color":"lightblue","left_mu":60,"right_mu":52,"left_numbers":[55,50,67,64,61],"right_numbers":[61,56,43,53,57],"points_earned":275,"phase":"task","trial_type":"horizons-task","trial_index":27,"time_elapsed":823492,"internal_node_id":"0.0-23.0","task_version":"0.2"},{"response_times":[496.0349999964237,217.61999999568798,647.5349999964237,647.9600000020582,477.8099999965634],"keys_pressed":["leftarrow","rightarrow","rightarrow","rightarrow","leftarrow"],"horizon":5,"forced_choices":["leftarrow","rightarrow","rightarrow","rightarrow"],"right_color":"lightblue","left_color":"orange","left_mu":60,"right_mu":48,"left_numbers":[58,71,70,65,46],"right_numbers":[50,50,48,55,54],"points_earned":257,"phase":"task","trial_type":"horizons-task","trial_index":28,"time_elapsed":827483,"internal_node_id":"0.0-24.0","task_version":"0.2"},{"response_times":[496.4200000031851,676.579999999376,637.6700000037672,257.9750000004424,250.41000000061467],"keys_pressed":["rightarrow","rightarrow","rightarrow","leftarrow","rightarrow"],"horizon":5,"forced_choices":["rightarrow","rightarrow","rightarrow","leftarrow"],"right_color":"orange","left_color":"lightblue","left_mu":60,"right_mu":90,"left_numbers":[41,62,66,43,61],"right_numbers":[101,88,89,92,97],"points_earned":418,"phase":"task","trial_type":"horizons-task","trial_index":29,"time_elapsed":831306,"internal_node_id":"0.0-25.0","task_version":"0.2"},{"response_times":[785.2749999946682,606.2699999966426,547.7199999949662,428.0600000056438,289.49999999883585,228.06999999738764,348.53499999735504,248.7600000021048,308.4149999995716,299.4999999937136],"keys_pressed":["rightarrow","rightarrow","rightarrow","leftarrow","rightarrow","leftarrow","rightarrow","leftarrow","rightarrow","leftarrow"],"horizon":10,"forced_choices":["rightarrow","rightarrow","rightarrow","leftarrow"],"right_color":"orange","left_color":"lightblue","left_mu":60,"right_mu":90,"left_numbers":[51,68,61,59,63,69,64,54,59,71],"right_numbers":[82,99,78,88,95,86,79,85,92,103],"points_earned":778,"phase":"task","trial_type":"horizons-task","trial_index":30,"time_elapsed":836902,"internal_node_id":"0.0-26.0","task_version":"0.2"},{"response_times":[806.0100000002421,578.8499999979977,347.78000000375323,537.7999999981839,327.8700000010431],"keys_pressed":["rightarrow","rightarrow","leftarrow","leftarrow","rightarrow"],"horizon":5,"forced_choices":["rightarrow","rightarrow","leftarrow","leftarrow"],"right_color":"orange","left_color":"lightblue","left_mu":40,"right_mu":60,"left_numbers":[48,33,40,45,33],"right_numbers":[83,54,57,65,64],"points_earned":286,"phase":"task","trial_type":"horizons-task","trial_index":31,"time_elapsed":841003,"internal_node_id":"0.0-27.0","task_version":"0.2"},{"response_times":[538.3799999982584,228.61000000569038,507.8799999973271,300.19000000180677,267.464999997057],"keys_pressed":["leftarrow","rightarrow","rightarrow","leftarrow","rightarrow"],"horizon":5,"forced_choices":["leftarrow","rightarrow","rightarrow","leftarrow"],"right_color":"lightblue","left_color":"orange","left_mu":40,"right_mu":32,"left_numbers":[34,43,55,37,49],"right_numbers":[24,47,34,35,39],"points_earned":191,"phase":"task","trial_type":"horizons-task","trial_index":32,"time_elapsed":844351,"internal_node_id":"0.0-28.0","task_version":"0.2"},{"response_times":[485.76499999756925,299.8599999991711,289.23499999649357,256.84999999799766,259.66999999945983],"keys_pressed":["rightarrow","leftarrow","rightarrow","leftarrow","rightarrow"],"horizon":5,"forced_choices":["rightarrow","leftarrow","rightarrow","leftarrow"],"right_color":"lightblue","left_color":"orange","left_mu":40,"right_mu":28,"left_numbers":[45,42,28,46,44],"right_numbers":[35,32,16,28,24],"points_earned":163,"phase":"task","trial_type":"horizons-task","trial_index":33,"time_elapsed":847446,"internal_node_id":"0.0-29.0","task_version":"0.2"},{"response_times":[567.1450000008335,518.3949999992037,358.0350000048056,895.895000001532,338.35000000544824],"keys_pressed":["leftarrow","leftarrow","rightarrow","leftarrow","rightarrow"],"horizon":5,"forced_choices":["leftarrow","leftarrow","rightarrow","leftarrow"],"right_color":"lightblue","left_color":"orange","left_mu":40,"right_mu":48,"left_numbers":[40,40,32,26,32],"right_numbers":[56,49,40,45,51],"points_earned":197,"phase":"task","trial_type":"horizons-task","trial_index":34,"time_elapsed":851628,"internal_node_id":"0.0-30.0","task_version":"0.2"},{"response_times":[357.2649999987334,180.46499999752268,249.00499999779277,366.9399999999441,200.0800000022864,199.77999999537133,208.65000000060536,198.65500000014435,199.6699999945704,288.7350000018487],"keys_pressed":["leftarrow","rightarrow","leftarrow","leftarrow","rightarrow","leftarrow","rightarrow","leftarrow","rightarrow","leftarrow"],"horizon":10,"forced_choices":["leftarrow","rightarrow","leftarrow","leftarrow"],"right_color":"orange","left_color":"lightblue","left_mu":40,"right_mu":36,"left_numbers":[37,33,50,25,37,33,37,38,33,28],"right_numbers":[34,21,35,42,31,42,39,26,27,32],"points_earned":329,"phase":"task","trial_type":"horizons-task","trial_index":35,"time_elapsed":855582,"internal_node_id":"0.0-31.0","task_version":"0.2"},{"response_times":[466.08500000007916,587.4000000039814,368.46999999391846,279.560000002617,287.8649999984773],"keys_pressed":["leftarrow","leftarrow","rightarrow","leftarrow","rightarrow"],"horizon":5,"forced_choices":["leftarrow","leftarrow","rightarrow","leftarrow"],"right_color":"orange","left_color":"lightblue","left_mu":60,"right_mu":64,"left_numbers":[62,46,69,61,62],"right_numbers":[69,63,67,68,71],"points_earned":307,"phase":"task","trial_type":"horizons-task","trial_index":36,"time_elapsed":859076,"internal_node_id":"0.0-32.0","task_version":"0.2"},{"response_times":[417.92500000155997,306.6849999958649,678.0150000049034,746.8350000054343,438.2900000055088,278.4700000046287,348.4600000010105,268.45500000484753,358.5750000056578,267.83000000426546],"keys_pressed":["leftarrow","rightarrow","rightarrow","rightarrow","leftarrow","rightarrow","leftarrow","rightarrow","leftarrow","rightarrow"],"horizon":10,"forced_choices":["leftarrow","rightarrow","rightarrow","rightarrow"],"right_color":"orange","left_color":"lightblue","left_mu":60,"right_mu":72,"left_numbers":[58,60,57,56,61,59,54,65,61,72],"right_numbers":[67,63,71,73,69,77,68,74,84,78],"points_earned":670,"phase":"task","trial_type":"horizons-task","trial_index":37,"time_elapsed":864689,"internal_node_id":"0.0-33.0","task_version":"0.2"},{"response_times":[1939.640000004205,337.4850000035949,597.2500000062864,846.5999999971827,297.4949999988312,379.2249999969499,279.3000000019092,696.660000001546,279.1499999947846,447.65000000200234],"keys_pressed":["rightarrow","leftarrow","leftarrow","leftarrow","rightarrow","leftarrow","rightarrow","leftarrow","rightarrow","rightarrow"],"horizon":10,"forced_choices":["rightarrow","leftarrow","leftarrow","leftarrow"],"right_color":"lightblue","left_color":"orange","left_mu":40,"right_mu":28,"left_numbers":[30,34,42,37,48,42,40,48,44,46],"right_numbers":[17,27,18,15,25,23,17,18,38,24],"points_earned":324,"phase":"task","trial_type":"horizons-task","trial_index":38,"time_elapsed":872299,"internal_node_id":"0.0-34.0","task_version":"0.2"},{"response_times":[765.749999998603,1144.3900000012945,278.7299999981187,1086.8150000023888,317.7799999974668],"keys_pressed":["rightarrow","rightarrow","leftarrow","leftarrow","rightarrow"],"horizon":5,"forced_choices":["rightarrow","rightarrow","leftarrow","leftarrow"],"right_color":"lightblue","left_color":"orange","left_mu":40,"right_mu":48,"left_numbers":[51,41,36,37,47],"right_numbers":[45,48,43,60,51],"points_earned":217,"phase":"task","trial_type":"horizons-task","trial_index":39,"time_elapsed":877397,"internal_node_id":"0.0-35.0","task_version":"0.2"},{"response_times":[1037.0449999973644,287.29000000015367,259.7699999969918,517.5650000019232,269.0500000026077,239.16499999910593,397.8700000005774,219.60000000393484,288.2499999977881,238.98499999626074],"keys_pressed":["rightarrow","leftarrow","rightarrow","rightarrow","leftarrow","rightarrow","leftarrow","rightarrow","leftarrow","rightarrow"],"horizon":10,"forced_choices":["rightarrow","leftarrow","rightarrow","rightarrow"],"right_color":"lightblue","left_color":"orange","left_mu":40,"right_mu":32,"left_numbers":[37,27,37,38,29,37,39,31,20,43],"right_numbers":[30,36,36,33,37,40,36,9,18,29],"points_earned":292,"phase":"task","trial_type":"horizons-task","trial_index":40,"time_elapsed":882655,"internal_node_id":"0.0-36.0","task_version":"0.2"},{"response_times":[1393.0899999977555,537.2249999999767,2847.8599999945145,1253.5399999979418,1035.3849999955855],"keys_pressed":["leftarrow","rightarrow","rightarrow","rightarrow","rightarrow"],"horizon":5,"forced_choices":["leftarrow","rightarrow","rightarrow","rightarrow"],"right_color":"orange","left_color":"lightblue","left_mu":60,"right_mu":72,"left_numbers":[60,73,53,61,64],"right_numbers":[83,66,59,80,72],"points_earned":337,"phase":"task","trial_type":"horizons-task","trial_index":41,"time_elapsed":891227,"internal_node_id":"0.0-37.0","task_version":"0.2"},{"response_times":[1037.065000004135,260.92500000225846,295.98499999695923,378.1200000011595,241.15500000340398],"keys_pressed":["leftarrow","rightarrow","leftarrow","leftarrow","rightarrow"],"horizon":5,"forced_choices":["leftarrow","rightarrow","leftarrow","leftarrow"],"right_color":"lightblue","left_color":"orange","left_mu":60,"right_mu":80,"left_numbers":[46,62,58,59,50],"right_numbers":[81,83,80,79,76],"points_earned":322,"phase":"task","trial_type":"horizons-task","trial_index":42,"time_elapsed":894943,"internal_node_id":"0.0-38.0","task_version":"0.2"},{"response_times":[1033.1650000007357,1044.9450000014622,717.9000000032829,548.365000002319,406.93499999912456,379.0200000003679,378.32499999785796,378.01999999640975,364.74500000628177,1876.1050000030082],"keys_pressed":["leftarrow","rightarrow","leftarrow","rightarrow","rightarrow","rightarrow","rightarrow","rightarrow","rightarrow","rightarrow"],"horizon":10,"forced_choices":["leftarrow","rightarrow","leftarrow","rightarrow"],"right_color":"lightblue","left_color":"orange","left_mu":60,"right_mu":30,"left_numbers":[56,66,62,57,63,49,50,62,71,67],"right_numbers":[23,39,25,33,28,33,22,36,21,23],"points_earned":353,"phase":"task","trial_type":"horizons-task","trial_index":43,"time_elapsed":903576,"internal_node_id":"0.0-39.0","task_version":"0.2"},{"response_times":[557.2400000018533,438.0449999952689,198.42999999667518,120.1199999996461,159.1100000004517,79.49999999988358,178.37999999755993,90.83000000100583,528.3700000001118,138.6849999979604],"keys_pressed":["leftarrow","leftarrow","rightarrow","leftarrow","rightarrow","leftarrow","rightarrow","leftarrow","rightarrow","leftarrow"],"horizon":10,"forced_choices":["leftarrow","leftarrow","rightarrow","leftarrow"],"right_color":"orange","left_color":"lightblue","left_mu":60,"right_mu":68,"left_numbers":[47,54,56,69,67,69,58,62,61,50],"right_numbers":[73,60,82,67,63,75,63,71,74,64],"points_earned":633,"phase":"task","trial_type":"horizons-task","trial_index":44,"time_elapsed":907569,"internal_node_id":"0.0-40.0","task_version":"0.2"},{"response_times":[755.3999999945518,320.1100000005681,377.1049999996321,228.96500000206288,209.74500000011176],"keys_pressed":["leftarrow","rightarrow","rightarrow","leftarrow","rightarrow"],"horizon":5,"forced_choices":["leftarrow","rightarrow","rightarrow","leftarrow"],"right_color":"lightblue","left_color":"orange","left_mu":60,"right_mu":56,"left_numbers":[48,60,69,60,57],"right_numbers":[51,61,46,50,44],"points_earned":259,"phase":"task","trial_type":"horizons-task","trial_index":45,"time_elapsed":910965,"internal_node_id":"0.0-41.0","task_version":"0.2"},{"response_times":[754.3900000017602,399.23999999882653,209.16500000027008,169.12000000593252,179.46500000113156,189.19499999901745,159.07999999762978,208.28500000061467,180.21500000031665,227.79000000446104],"keys_pressed":["rightarrow","rightarrow","leftarrow","rightarrow","leftarrow","rightarrow","leftarrow","rightarrow","leftarrow","rightarrow"],"horizon":10,"forced_choices":["rightarrow","rightarrow","leftarrow","rightarrow"],"right_color":"lightblue","left_color":"orange","left_mu":60,"right_mu":56,"left_numbers":[64,65,61,38,57,48,64,68,62,55],"right_numbers":[51,56,48,66,41,58,62,53,64,61],"points_earned":589,"phase":"task","trial_type":"horizons-task","trial_index":46,"time_elapsed":915146,"internal_node_id":"0.0-42.0","task_version":"0.2"},{"response_times":[629.3999999980442,304.65500000002794,469.2799999974668,288.3399999991525,238.75500000582542],"keys_pressed":["leftarrow","rightarrow","rightarrow","leftarrow","rightarrow"],"horizon":5,"forced_choices":["leftarrow","rightarrow","rightarrow","leftarrow"],"right_color":"lightblue","left_color":"orange","left_mu":40,"right_mu":70,"left_numbers":[19,39,45,38,36],"right_numbers":[64,63,78,77,74],"points_earned":272,"phase":"task","trial_type":"horizons-task","trial_index":47,"time_elapsed":918582,"internal_node_id":"0.0-43.0","task_version":"0.2"},{"response_times":[1006.0499999963213,398.0250000022352,846.515000004787,707.0650000022724,308.96499999659136],"keys_pressed":["rightarrow","leftarrow","leftarrow","leftarrow","rightarrow"],"horizon":5,"forced_choices":["rightarrow","leftarrow","leftarrow","leftarrow"],"right_color":"lightblue","left_color":"orange","left_mu":60,"right_mu":30,"left_numbers":[62,57,59,79,56],"right_numbers":[28,31,25,32,17],"points_earned":240,"phase":"task","trial_type":"horizons-task","trial_index":48,"time_elapsed":923353,"internal_node_id":"0.0-44.0","task_version":"0.2"},{"response_times":[1164.8649999988265,408.0949999989243,258.1900000004098,289.5399999979418,261.06000000447966],"keys_pressed":["leftarrow","rightarrow","leftarrow","rightarrow","leftarrow"],"horizon":5,"forced_choices":["leftarrow","rightarrow","leftarrow","rightarrow"],"right_color":"lightblue","left_color":"orange","left_mu":40,"right_mu":52,"left_numbers":[46,50,50,34,17],"right_numbers":[58,54,58,57,42],"points_earned":224,"phase":"task","trial_type":"horizons-task","trial_index":49,"time_elapsed":927238,"internal_node_id":"0.0-45.0","task_version":"0.2"},{"response_times":[1273.4249999994645,407.85999999928754,218.75,189.86999999475665,179.09000000497326,177.76500000036322,190.11999999929685,199.59999999997672,208.00999999488704,268.294999994454],"keys_pressed":["leftarrow","rightarrow","leftarrow","rightarrow","leftarrow","rightarrow","leftarrow","rightarrow","leftarrow","rightarrow"],"horizon":10,"forced_choices":["leftarrow","rightarrow","leftarrow","rightarrow"],"right_color":"lightblue","left_color":"orange","left_mu":60,"right_mu":80,"left_numbers":[58,70,53,70,72,61,60,66,69,64],"right_numbers":[81,73,70,82,71,82,77,85,87,83],"points_earned":717,"phase":"task","trial_type":"horizons-task","trial_index":50,"time_elapsed":932055,"internal_node_id":"0.0-46.0","task_version":"0.2"},{"view_history":"[{\"page_index\":0,\"viewing_time\":2524.695000000065},{\"page_index\":1,\"viewing_time\":46091.285000002244}]","rt":48616.620000000694,"trial_type":"instructions","trial_index":51,"time_elapsed":980674,"internal_node_id":"0.0-47.0","task_version":"0.2"},{"response_times":[3075.5449999996927,308.7299999969546,210.39500000188127,435.89999999664724,278.98999999882653],"keys_pressed":["rightarrow","leftarrow","rightarrow","rightarrow","leftarrow"],"horizon":5,"forced_choices":["rightarrow","leftarrow","rightarrow","rightarrow"],"right_color":"lightblue","left_color":"orange","left_mu":40,"right_mu":52,"left_numbers":[38,34,36,34,32],"right_numbers":[47,43,61,47,52],"points_earned":221,"phase":"task","trial_type":"horizons-task","trial_index":52,"time_elapsed":986495,"internal_node_id":"0.0-48.0","task_version":"0.2"},{"response_times":[1475.964999997872,387.7749999957159,259.1699999975972,328.45999999693595,368.0049999966286],"keys_pressed":["rightarrow","leftarrow","rightarrow","leftarrow","leftarrow"],"horizon":5,"forced_choices":["rightarrow","leftarrow","rightarrow","leftarrow"],"right_color":"orange","left_color":"lightblue","left_mu":60,"right_mu":64,"left_numbers":[52,53,46,62,72],"right_numbers":[61,67,59,47,66],"points_earned":307,"phase":"task","trial_type":"horizons-task","trial_index":53,"time_elapsed":990817,"internal_node_id":"0.0-49.0","task_version":"0.2"},{"response_times":[498.65500000305474,288.2300000055693,258.36500000138767,159.14999999955762,188.21999999636319],"keys_pressed":["leftarrow","rightarrow","leftarrow","rightarrow","leftarrow"],"horizon":5,"forced_choices":["leftarrow","rightarrow","leftarrow","rightarrow"],"right_color":"orange","left_color":"lightblue","left_mu":40,"right_mu":36,"left_numbers":[46,25,29,50,50],"right_numbers":[45,29,43,24,33],"points_earned":178,"phase":"task","trial_type":"horizons-task","trial_index":54,"time_elapsed":993714,"internal_node_id":"0.0-50.0","task_version":"0.2"},{"response_times":[40985.31000000355,516.6150000004563,697.8000000017928,1293.6850000041304,389.1399999993155],"keys_pressed":["rightarrow","leftarrow","leftarrow","leftarrow","rightarrow"],"horizon":5,"forced_choices":["rightarrow","leftarrow","leftarrow","leftarrow"],"right_color":"lightblue","left_color":"orange","left_mu":40,"right_mu":28,"left_numbers":[34,35,44,41,28],"right_numbers":[37,20,32,26,28],"points_earned":185,"phase":"task","trial_type":"horizons-task","trial_index":55,"time_elapsed":1039099,"internal_node_id":"0.0-51.0","task_version":"0.2"},{"response_times":[2092.060000002617,736.8999999961816,388.70499999751337,298.6850000016857,456.9999999948777],"keys_pressed":["rightarrow","rightarrow","leftarrow","rightarrow","leftarrow"],"horizon":5,"forced_choices":["rightarrow","rightarrow","leftarrow","rightarrow"],"right_color":"orange","left_color":"lightblue","left_mu":60,"right_mu":52,"left_numbers":[60,45,48,37,50],"right_numbers":[57,57,55,47,31],"points_earned":259,"phase":"task","trial_type":"horizons-task","trial_index":56,"time_elapsed":1044575,"internal_node_id":"0.0-52.0","task_version":"0.2"},{"response_times":[2329.8100000030827,677.1799999987707,587.3000000065658,308.87999999686144,338.10499999509193],"keys_pressed":["leftarrow","leftarrow","leftarrow","rightarrow","leftarrow"],"horizon":5,"forced_choices":["leftarrow","leftarrow","leftarrow","rightarrow"],"right_color":"orange","left_color":"lightblue","left_mu":40,"right_mu":44,"left_numbers":[40,51,45,35,38],"right_numbers":[46,37,31,46,43],"points_earned":220,"phase":"task","trial_type":"horizons-task","trial_index":57,"time_elapsed":1050320,"internal_node_id":"0.0-53.0","task_version":"0.2"},{"response_times":[565.9100000048056,358.3100000033155,558.3750000004657,318.7800000014249,278.5950000034645],"keys_pressed":["rightarrow","leftarrow","leftarrow","rightarrow","leftarrow"],"horizon":5,"forced_choices":["rightarrow","leftarrow","leftarrow","rightarrow"],"right_color":"orange","left_color":"lightblue","left_mu":60,"right_mu":72,"left_numbers":[69,59,63,51,61],"right_numbers":[73,70,68,53,64],"points_earned":309,"phase":"task","trial_type":"horizons-task","trial_index":58,"time_elapsed":1053905,"internal_node_id":"0.0-54.0","task_version":"0.2"},{"response_times":[746.0900000005495,368.1500000022352,238.7600000000093,288.58000000030734,318.4299999992363,368.15999999828637,558.5099999953527,486.9699999981094,467.80999999446794,537.7299999962561],"keys_pressed":["rightarrow","leftarrow","rightarrow","leftarrow","rightarrow","leftarrow","rightarrow","leftarrow","rightarrow","leftarrow"],"horizon":10,"forced_choices":["rightarrow","leftarrow","rightarrow","leftarrow"],"right_color":"orange","left_color":"lightblue","left_mu":60,"right_mu":52,"left_numbers":[70,57,52,73,60,79,65,55,67,50],"right_numbers":[47,46,41,56,52,59,49,39,45,45],"points_earned":548,"phase":"task","trial_type":"horizons-task","trial_index":59,"time_elapsed":1059789,"internal_node_id":"0.0-55.0","task_version":"0.2"},{"response_times":[518.1850000007544,1223.9750000007916,437.8950000028126,987.1099999945145,476.3600000005681,736.9249999974854,705.8449999969453,419.109999995213,288.91500000469387,418.2700000021141],"keys_pressed":["leftarrow","leftarrow","rightarrow","rightarrow","leftarrow","rightarrow","rightarrow","leftarrow","rightarrow","leftarrow"],"horizon":10,"forced_choices":["leftarrow","leftarrow","rightarrow","rightarrow"],"right_color":"orange","left_color":"lightblue","left_mu":40,"right_mu":44,"left_numbers":[30,44,46,40,45,25,35,47,43,53],"right_numbers":[41,50,46,41,34,40,45,40,52,51],"points_earned":443,"phase":"task","trial_type":"horizons-task","trial_index":60,"time_elapsed":1067506,"internal_node_id":"0.0-56.0","task_version":"0.2"},{"response_times":[677.6850000023842,297.7549999996554,188.00999999791384,837.4199999962002,557.9049999942072],"keys_pressed":["rightarrow","leftarrow","rightarrow","rightarrow","rightarrow"],"horizon":5,"forced_choices":["rightarrow","leftarrow","rightarrow","rightarrow"],"right_color":"lightblue","left_color":"orange","left_mu":40,"right_mu":32,"left_numbers":[30,43,44,52,43],"right_numbers":[25,42,31,35,38],"points_earned":172,"phase":"task","trial_type":"horizons-task","trial_index":61,"time_elapsed":1071569,"internal_node_id":"0.0-57.0","task_version":"0.2"},{"response_times":[745.9699999962468,686.0699999961071,349.02499999594875,228.9149999995716,249.09500000649132],"keys_pressed":["rightarrow","rightarrow","leftarrow","rightarrow","leftarrow"],"horizon":5,"forced_choices":["rightarrow","rightarrow","leftarrow","rightarrow"],"right_color":"lightblue","left_color":"orange","left_mu":40,"right_mu":10,"left_numbers":[38,39,46,44,51],"right_numbers":[9,29,4,7,2],"points_earned":142,"phase":"task","trial_type":"horizons-task","trial_index":62,"time_elapsed":1075332,"internal_node_id":"0.0-58.0","task_version":"0.2"},{"response_times":[785.785000000149,428.4049999988638,686.2749999999069,330.2800000018906,287.14000000059605],"keys_pressed":["rightarrow","leftarrow","leftarrow","rightarrow","leftarrow"],"horizon":5,"forced_choices":["rightarrow","leftarrow","leftarrow","rightarrow"],"right_color":"orange","left_color":"lightblue","left_mu":60,"right_mu":40,"left_numbers":[60,67,68,70,49],"right_numbers":[47,43,35,33,44],"points_earned":264,"phase":"task","trial_type":"horizons-task","trial_index":63,"time_elapsed":1079353,"internal_node_id":"0.0-59.0","task_version":"0.2"},{"response_times":[848.3599999963772,686.5800000014715,318.7350000005681,608.4750000007916,338.7849999999162,318.4650000038091,377.6349999969825,357.73499999777414,279.13500000420026,647.9800000016112],"keys_pressed":["rightarrow","rightarrow","leftarrow","leftarrow","rightarrow","leftarrow","rightarrow","leftarrow","rightarrow","leftarrow"],"horizon":10,"forced_choices":["rightarrow","rightarrow","leftarrow","leftarrow"],"right_color":"lightblue","left_color":"orange","left_mu":40,"right_mu":10,"left_numbers":[47,59,45,44,42,49,18,37,39,46],"right_numbers":[0,9,8,10,2,1,0,3,7,15],"points_earned":239,"phase":"task","trial_type":"horizons-task","trial_index":64,"time_elapsed":1085639,"internal_node_id":"0.0-60.0","task_version":"0.2"},{"response_times":[1371.5850000006612,380.77000000327826,983.6450000002515,357.62000000244007,318.715000001248,249.1249999946449,267.88500000117347,309.385000000475,437.86499999975786,318.69499999447726],"keys_pressed":["leftarrow","leftarrow","rightarrow","rightarrow","rightarrow","leftarrow","leftarrow","rightarrow","rightarrow","leftarrow"],"horizon":10,"forced_choices":["leftarrow","leftarrow","rightarrow","rightarrow"],"right_color":"orange","left_color":"lightblue","left_mu":60,"right_mu":68,"left_numbers":[63,65,59,51,48,39,71,65,50,52],"right_numbers":[70,76,64,79,73,75,65,54,74,69],"points_earned":634,"phase":"task","trial_type":"horizons-task","trial_index":65,"time_elapsed":1092139,"internal_node_id":"0.0-61.0","task_version":"0.2"},{"response_times":[946.7450000012759,984.1550000056159,889.9450000026263,355.9349999995902,268.2100000020582,257.964999997057,230.17999999853782,239.27999999444,190.02499999618158,226.37000000406988],"keys_pressed":["rightarrow","leftarrow","rightarrow","leftarrow","rightarrow","leftarrow","rightarrow","leftarrow","rightarrow","leftarrow"],"horizon":10,"forced_choices":["rightarrow","leftarrow","rightarrow","leftarrow"],"right_color":"orange","left_color":"lightblue","left_mu":60,"right_mu":64,"left_numbers":[50,66,59,50,51,72,49,55,71,59],"right_numbers":[56,50,60,67,59,70,68,54,76,76],"points_earned":621,"phase":"task","trial_type":"horizons-task","trial_index":66,"time_elapsed":1098233,"internal_node_id":"0.0-62.0","task_version":"0.2"},{"response_times":[936.1149999969639,567.6999999997206,647.1349999993108,655.710000006482,318.5200000007171,389.0949999985751,417.8700000047684,338.9050000042189,328.31499999877997,388.12000000313856],"keys_pressed":["rightarrow","leftarrow","leftarrow","leftarrow","rightarrow","leftarrow","rightarrow","leftarrow","rightarrow","leftarrow"],"horizon":10,"forced_choices":["rightarrow","leftarrow","leftarrow","leftarrow"],"right_color":"orange","left_color":"lightblue","left_mu":40,"right_mu":20,"left_numbers":[34,45,39,40,26,36,43,39,38,31],"right_numbers":[30,25,26,22,21,32,7,19,13,17],"points_earned":301,"phase":"task","trial_type":"horizons-task","trial_index":67,"time_elapsed":1104725,"internal_node_id":"0.0-63.0","task_version":"0.2"},{"response_times":[1823.3349999936763,706.5599999988917,380.65500000072643,694.8250000057742,249.43000000342727,318.5599999995902,198.42999999667518,329.1800000006333,377.5549999992363,348.4650000028778],"keys_pressed":["rightarrow","rightarrow","leftarrow","leftarrow","rightarrow","leftarrow","rightarrow","leftarrow","rightarrow","leftarrow"],"horizon":10,"forced_choices":["rightarrow","rightarrow","leftarrow","leftarrow"],"right_color":"orange","left_color":"lightblue","left_mu":40,"right_mu":60,"left_numbers":[39,34,34,35,45,32,34,29,32,24],"right_numbers":[58,43,57,48,58,60,56,56,68,53],"points_earned":437,"phase":"task","trial_type":"horizons-task","trial_index":68,"time_elapsed":1111655,"internal_node_id":"0.0-64.0","task_version":"0.2"},{"response_times":[584.6799999999348,339.4400000034366,428.2050000037998,227.52000000025146,240.02000000467524,149.7700000035111,258.73500000312924,238.75000000419095,328.9299999959767,287.9899999969639],"keys_pressed":["leftarrow","rightarrow","rightarrow","leftarrow","rightarrow","leftarrow","rightarrow","leftarrow","rightarrow","leftarrow"],"horizon":10,"forced_choices":["leftarrow","rightarrow","rightarrow","leftarrow"],"right_color":"lightblue","left_color":"orange","left_mu":60,"right_mu":56,"left_numbers":[63,50,58,67,56,57,64,49,63,62],"right_numbers":[60,58,43,54,65,59,57,41,51,53],"points_earned":572,"phase":"task","trial_type":"horizons-task","trial_index":69,"time_elapsed":1116245,"internal_node_id":"0.0-65.0","task_version":"0.2"},{"response_times":[476.88499999651685,1036.5149999996647,806.5149999964051,567.6650000023656,408.0150000010617],"keys_pressed":["leftarrow","leftarrow","rightarrow","rightarrow","leftarrow"],"horizon":5,"forced_choices":["leftarrow","leftarrow","rightarrow","rightarrow"],"right_color":"orange","left_color":"lightblue","left_mu":40,"right_mu":44,"left_numbers":[49,37,37,41,46],"right_numbers":[42,49,36,43,28],"points_earned":211,"phase":"task","trial_type":"horizons-task","trial_index":70,"time_elapsed":1121045,"internal_node_id":"0.0-66.0","task_version":"0.2"},{"response_times":[803.6649999995716,578.7150000033434,118.97999999905005,1045.8900000012945,278.0299999942072],"keys_pressed":["rightarrow","rightarrow","leftarrow","leftarrow","rightarrow"],"horizon":5,"forced_choices":["rightarrow","rightarrow","leftarrow","leftarrow"],"right_color":"lightblue","left_color":"orange","left_mu":40,"right_mu":10,"left_numbers":[55,46,38,41,22],"right_numbers":[7,5,26,11,16],"points_earned":107,"phase":"task","trial_type":"horizons-task","trial_index":71,"time_elapsed":1125374,"internal_node_id":"0.0-67.0","task_version":"0.2"},{"response_times":[796.865000003716,368.410000002943,537.6900000046007,268.2799999965355,309.12499999976717],"keys_pressed":["rightarrow","leftarrow","leftarrow","rightarrow","leftarrow"],"horizon":5,"forced_choices":["rightarrow","leftarrow","leftarrow","rightarrow"],"right_color":"lightblue","left_color":"orange","left_mu":60,"right_mu":48,"left_numbers":[59,58,58,61,71],"right_numbers":[47,43,41,50,42],"points_earned":284,"phase":"task","trial_type":"horizons-task","trial_index":72,"time_elapsed":1129159,"internal_node_id":"0.0-68.0","task_version":"0.2"},{"response_times":[536.4600000029895,358.67500000307336,886.3500000005588,636.7549999996554,272.41499999933876,286.045000000624,207.69999999925494,270.52499999990687,237.77500000153668,269.0199999997858],"keys_pressed":["rightarrow","rightarrow","rightarrow","leftarrow","rightarrow","leftarrow","rightarrow","leftarrow","rightarrow","leftarrow"],"horizon":10,"forced_choices":["rightarrow","rightarrow","rightarrow","leftarrow"],"right_color":"orange","left_color":"lightblue","left_mu":40,"right_mu":60,"left_numbers":[49,35,39,24,30,48,54,48,38,47],"right_numbers":[48,60,66,47,56,75,48,51,44,55],"points_earned":489,"phase":"task","trial_type":"horizons-task","trial_index":73,"time_elapsed":1134625,"internal_node_id":"0.0-69.0","task_version":"0.2"},{"response_times":[735.3300000031013,537.3199999956414,229.68499999842606,238.71499999938533,218.65000000270084,198.99500000593252,209.15999999828637,218.68000000552274,168.40500000398606,229.71500000124797],"keys_pressed":["leftarrow","leftarrow","rightarrow","leftarrow","rightarrow","leftarrow","rightarrow","leftarrow","rightarrow","leftarrow"],"horizon":10,"forced_choices":["leftarrow","leftarrow","rightarrow","leftarrow"],"right_color":"orange","left_color":"lightblue","left_mu":60,"right_mu":64,"left_numbers":[61,72,56,49,59,66,65,63,58,47],"right_numbers":[51,68,53,73,65,56,74,48,51,73],"points_earned":601,"phase":"task","trial_type":"horizons-task","trial_index":74,"time_elapsed":1139115,"internal_node_id":"0.0-70.0","task_version":"0.2"},{"response_times":[538.5700000042561,496.40000000363216,238.88499999884516,189.06499999854714,209.02500000363216,169.35499999811873,238.82500000018626,179.19999999855645,210.00500000081956,358.5650000022724],"keys_pressed":["rightarrow","rightarrow","leftarrow","rightarrow","leftarrow","rightarrow","leftarrow","rightarrow","leftarrow","rightarrow"],"horizon":10,"forced_choices":["rightarrow","rightarrow","leftarrow","rightarrow"],"right_color":"orange","left_color":"lightblue","left_mu":60,"right_mu":52,"left_numbers":[56,51,72,57,57,60,53,54,65,59],"right_numbers":[59,62,42,38,59,45,52,65,45,44],"points_earned":560,"phase":"task","trial_type":"horizons-task","trial_index":75,"time_elapsed":1143446,"internal_node_id":"0.0-71.0","task_version":"0.2"},{"response_times":[1352.0400000053924,70.69000000040978,496.8299999963492,199.93999999854714,428.31999999913387],"keys_pressed":["rightarrow","leftarrow","leftarrow","rightarrow","rightarrow"],"horizon":5,"forced_choices":["rightarrow","leftarrow","leftarrow","rightarrow"],"right_color":"orange","left_color":"lightblue","left_mu":60,"right_mu":90,"left_numbers":[60,70,57,45,58],"right_numbers":[107,79,88,89,102],"points_earned":425,"phase":"task","trial_type":"horizons-task","trial_index":76,"time_elapsed":1147497,"internal_node_id":"0.0-72.0","task_version":"0.2"},{"response_times":[1122.4200000069104,299.67000000039116,705.5899999977555,578.269999998156,269.2900000039954,338.17500000447035,278.7300000055693,288.4249999986496,298.1499999950174,328.4350000030827],"keys_pressed":["rightarrow","leftarrow","leftarrow","leftarrow","rightarrow","leftarrow","rightarrow","leftarrow","rightarrow","leftarrow"],"horizon":10,"forced_choices":["rightarrow","leftarrow","leftarrow","leftarrow"],"right_color":"lightblue","left_color":"orange","left_mu":60,"right_mu":30,"left_numbers":[74,46,62,52,54,57,72,59,41,57],"right_numbers":[12,33,41,22,40,29,38,19,31,24],"points_earned":454,"phase":"task","trial_type":"horizons-task","trial_index":77,"time_elapsed":1153510,"internal_node_id":"0.0-73.0","task_version":"0.2"},{"response_times":[560.0599999960978,455.0549999985378,686.5250000045635,309.2049999977462,309.0249999950174,358.02500000130385,298.8400000031106,197.5750000057742,269.1899999990128,229.59999999869615],"keys_pressed":["rightarrow","leftarrow","leftarrow","rightarrow","leftarrow","rightarrow","leftarrow","rightarrow","leftarrow","rightarrow"],"horizon":10,"forced_choices":["rightarrow","leftarrow","leftarrow","rightarrow"],"right_color":"orange","left_color":"lightblue","left_mu":60,"right_mu":40,"left_numbers":[54,56,55,55,54,51,54,63,63,69],"right_numbers":[40,38,50,25,43,33,43,38,42,49],"points_earned":467,"phase":"task","trial_type":"horizons-task","trial_index":78,"time_elapsed":1158687,"internal_node_id":"0.0-74.0","task_version":"0.2"},{"response_times":[877.2649999954738,577.3350000018254,289.2050000010058,308.7900000028312,289.8700000005774,276.6150000025518,280.2349999982398,496.54999999608845,317.7700000014156,327.6049999985844],"keys_pressed":["leftarrow","leftarrow","rightarrow","leftarrow","rightarrow","leftarrow","rightarrow","rightarrow","leftarrow","rightarrow"],"horizon":10,"forced_choices":["leftarrow","leftarrow","rightarrow","leftarrow"],"right_color":"lightblue","left_color":"orange","left_mu":40,"right_mu":48,"left_numbers":[35,34,32,47,33,44,33,33,21,35],"right_numbers":[44,45,51,42,46,41,51,53,65,51],"points_earned":433,"phase":"task","trial_type":"horizons-task","trial_index":79,"time_elapsed":1164232,"internal_node_id":"0.0-75.0","task_version":"0.2"},{"response_times":[1662.66999999783,377.90999999572523,437.04499999876134,1066.7499999981374,397.8050000006333,388.5099999969825,228.22499999869615,338.88999999896623,318.2600000000093,427.9249999963213],"keys_pressed":["leftarrow","rightarrow","leftarrow","leftarrow","rightarrow","leftarrow","rightarrow","leftarrow","rightarrow","leftarrow"],"horizon":10,"forced_choices":["leftarrow","rightarrow","leftarrow","leftarrow"],"right_color":"lightblue","left_color":"orange","left_mu":60,"right_mu":80,"left_numbers":[52,59,70,67,61,63,56,62,72,54],"right_numbers":[81,86,80,79,96,78,85,86,94,71],"points_earned":729,"phase":"task","trial_type":"horizons-task","trial_index":80,"time_elapsed":1171381,"internal_node_id":"0.0-76.0","task_version":"0.2"},{"response_times":[795.4900000039488,456.85999999847263,658.5050000066403,257.9900000055786,358.3300000028685,239.00000000139698,248.67000000085682,358.6050000011455,547.1350000007078,446.89500000094995],"keys_pressed":["rightarrow","leftarrow","leftarrow","rightarrow","leftarrow","rightarrow","leftarrow","rightarrow","rightarrow","leftarrow"],"horizon":10,"forced_choices":["rightarrow","leftarrow","leftarrow","rightarrow"],"right_color":"orange","left_color":"lightblue","left_mu":60,"right_mu":72,"left_numbers":[62,63,63,49,50,60,66,57,52,47],"right_numbers":[69,75,76,78,77,69,88,66,87,82],"points_earned":658,"phase":"task","trial_type":"horizons-task","trial_index":81,"time_elapsed":1177253,"internal_node_id":"0.0-77.0","task_version":"0.2"},{"response_times":[1083.019999998156,301.5699999961071,445.3049999938812,437.55999999842606,340.7450000012759],"keys_pressed":["leftarrow","rightarrow","leftarrow","leftarrow","rightarrow"],"horizon":5,"forced_choices":["leftarrow","rightarrow","leftarrow","leftarrow"],"right_color":"orange","left_color":"lightblue","left_mu":40,"right_mu":36,"left_numbers":[49,42,42,40,50],"right_numbers":[33,29,31,34,24],"points_earned":184,"phase":"task","trial_type":"horizons-task","trial_index":82,"time_elapsed":1181367,"internal_node_id":"0.0-78.0","task_version":"0.2"},{"response_times":[785.8850000048988,536.5000000020955,219.9800000016112,278.8849999997765,516.6499999975786],"keys_pressed":["leftarrow","leftarrow","rightarrow","leftarrow","rightarrow"],"horizon":5,"forced_choices":["leftarrow","leftarrow","rightarrow","leftarrow"],"right_color":"orange","left_color":"lightblue","left_mu":60,"right_mu":68,"left_numbers":[64,68,58,64,53],"right_numbers":[83,82,73,75,70],"points_earned":339,"phase":"task","trial_type":"horizons-task","trial_index":83,"time_elapsed":1185208,"internal_node_id":"0.0-79.0","task_version":"0.2"},{"response_times":[1077.2849999994505,905.6100000017323,3774.3149999952875,367.50500000221655,180.22000000206754],"keys_pressed":["rightarrow","rightarrow","rightarrow","leftarrow","rightarrow"],"horizon":5,"forced_choices":["rightarrow","rightarrow","rightarrow","leftarrow"],"right_color":"orange","left_color":"lightblue","left_mu":40,"right_mu":60,"left_numbers":[35,44,41,46,37],"right_numbers":[61,55,61,52,61],"points_earned":284,"phase":"task","trial_type":"horizons-task","trial_index":84,"time_elapsed":1193017,"internal_node_id":"0.0-80.0","task_version":"0.2"},{"response_times":[1182.0950000039302,209.92000000108965,446.79999999771826,378.55499999574386,230.20499999984168,367.0249999994412,209.95000000391155,320.8449999948498,266.5950000009034,298.5950000002049],"keys_pressed":["leftarrow","rightarrow","rightarrow","leftarrow","rightarrow","leftarrow","rightarrow","leftarrow","rightarrow","leftarrow"],"horizon":10,"forced_choices":["leftarrow","rightarrow","rightarrow","leftarrow"],"right_color":"lightblue","left_color":"orange","left_mu":40,"right_mu":32,"left_numbers":[44,30,46,38,44,55,37,37,40,48],"right_numbers":[27,30,32,15,38,31,34,21,41,35],"points_earned":397,"phase":"task","trial_type":"horizons-task","trial_index":85,"time_elapsed":1198431,"internal_node_id":"0.0-81.0","task_version":"0.2"},{"response_times":[667.5350000006147,587.7299999995157,388.89999999827705,298.3550000062678,387.4999999969732],"keys_pressed":["rightarrow","rightarrow","leftarrow","rightarrow","leftarrow"],"horizon":5,"forced_choices":["rightarrow","rightarrow","leftarrow","rightarrow"],"right_color":"lightblue","left_color":"orange","left_mu":60,"right_mu":56,"left_numbers":[52,66,49,70,46],"right_numbers":[50,58,58,71,61],"points_earned":274,"phase":"task","trial_type":"horizons-task","trial_index":86,"time_elapsed":1202263,"internal_node_id":"0.0-82.0","task_version":"0.2"},{"response_times":[210.65500000258908,586.7949999957345,529.0150000001304,269.0749999966938,386.93000000040047],"keys_pressed":["leftarrow","leftarrow","leftarrow","rightarrow","leftarrow"],"horizon":5,"forced_choices":["leftarrow","leftarrow","leftarrow","rightarrow"],"right_color":"lightblue","left_color":"orange","left_mu":40,"right_mu":70,"left_numbers":[30,49,39,32,38],"right_numbers":[71,72,60,79,70],"points_earned":235,"phase":"task","trial_type":"horizons-task","trial_index":87,"time_elapsed":1205748,"internal_node_id":"0.0-83.0","task_version":"0.2"},{"response_times":[927.4649999933317,328.35999999940395,501.15499999793246,524.0750000011176,348.4699999971781],"keys_pressed":["leftarrow","rightarrow","rightarrow","rightarrow","leftarrow"],"horizon":5,"forced_choices":["leftarrow","rightarrow","rightarrow","rightarrow"],"right_color":"orange","left_color":"lightblue","left_mu":60,"right_mu":40,"left_numbers":[70,55,58,61,60],"right_numbers":[28,37,38,43,36],"points_earned":248,"phase":"task","trial_type":"horizons-task","trial_index":88,"time_elapsed":1209891,"internal_node_id":"0.0-84.0","task_version":"0.2"},{"response_times":[359.43499999842606,316.3600000042934,300.23500000243075,864.6299999963958,299.810000004014],"keys_pressed":["leftarrow","rightarrow","leftarrow","rightarrow","leftarrow"],"horizon":5,"forced_choices":["leftarrow","rightarrow","leftarrow","rightarrow"],"right_color":"lightblue","left_color":"orange","left_mu":60,"right_mu":80,"left_numbers":[64,59,56,59,72],"right_numbers":[73,92,75,85,88],"points_earned":369,"phase":"task","trial_type":"horizons-task","trial_index":89,"time_elapsed":1213536,"internal_node_id":"0.0-85.0","task_version":"0.2"},{"response_times":[1024.3900000059512,478.07499999925494,327.8950000021141,768.0900000049733,328.8250000041444,327.3249999983236,320.50500000314787,315.6500000040978,308.19999999925494,319.5549999945797],"keys_pressed":["leftarrow","leftarrow","rightarrow","rightarrow","leftarrow","rightarrow","leftarrow","leftarrow","rightarrow","leftarrow"],"horizon":10,"forced_choices":["leftarrow","leftarrow","rightarrow","rightarrow"],"right_color":"orange","left_color":"lightblue","left_mu":40,"right_mu":20,"left_numbers":[36,24,41,44,44,53,25,33,48,30],"right_numbers":[22,23,14,18,28,20,15,25,14,20],"points_earned":258,"phase":"task","trial_type":"horizons-task","trial_index":90,"time_elapsed":1219559,"internal_node_id":"0.0-86.0","task_version":"0.2"},{"response_times":[915.659999998752,358.65499999630265,636.9950000008103,237.5900000045076,280.935000002617,337.7200000032317,188.54499999736436,271.31999999983236,454.81500000460073,548.6749999984168],"keys_pressed":["rightarrow","leftarrow","rightarrow","leftarrow","rightarrow","leftarrow","rightarrow","leftarrow","rightarrow","rightarrow"],"horizon":10,"forced_choices":["rightarrow","leftarrow","rightarrow","leftarrow"],"right_color":"lightblue","left_color":"orange","left_mu":40,"right_mu":28,"left_numbers":[32,38,27,27,41,48,36,52,48,44],"right_numbers":[17,36,29,20,32,27,25,24,28,20],"points_earned":316,"phase":"task","trial_type":"horizons-task","trial_index":91,"time_elapsed":1225294,"internal_node_id":"0.0-87.0","task_version":"0.2"},{"rt":25257.469999996712,"responses":{"age":"27","gender-categorical":"Male","gender-free-response":"","ethnicity":"Not Hispanic or Latino","race":["Black or African American"],"language":"Yes","fluency":"Very well"},"survey":"demographics","trial_type":"survey-demo","trial_index":92,"time_elapsed":1250592,"internal_node_id":"0.0-88.0","task_version":"0.2"},{"rt":33822.959999997634,"responses":{"difficulty":"4","fun":"5","clarity":"5","strategy":"my intuition ","feedback":""},"survey":"debrief","trial_type":"survey-debrief","trial_index":93,"time_elapsed":1284418,"internal_node_id":"0.0-89.0","task_version":"0.2","interactions":"[{\"event\":\"blur\",\"trial\":92,\"time\":1228620},{\"event\":\"focus\",\"trial\":92,\"time\":1232999},{\"event\":\"blur\",\"trial\":92,\"time\":1235895},{\"event\":\"focus\",\"trial\":92,\"time\":1237034}]"}]