[{"view_history":"[{\"page_index\":0,\"viewing_time\":4211.585000040941}]","rt":4212.975000031292,"trial_type":"instructions","trial_index":0,"time_elapsed":4229,"internal_node_id":"0.0-0.0","task_version":"0.2"},{"item_order":[12,10,14,6,5,4,9,2,1,3,0,11,7,13,8,15,16],"responses":{"Q13":"3","Q11":"1","Q15":"1","Q07":"1","Q06":"2","Q05":"2","Q10":"4","Q03":"4","Q02":"1","Q04":"1","Q01":"2","Q12":"1","Q08":"3","Q14":"2","Q09":"1","Q16":"2","Q17":"0"},"radio_events":[5585.3900000220165,6014.395000063814,10252.860000007786,13023.11000006739,14875.145000056364,17198.76000005752,19304.815000039525,20488.605000078678,24037.09500003606,29733.355000033043,33401.04500006419,35208.42500007711,36894.27000004798,39894.57999996375,45153.16500002518,47796.229999978095,52784.57999997772,54346.29500005394],"key_events":[],"mouse_events":[2.0299999741837382,3454.6900000423193,5585.3900000220165,6014.395000063814,10252.860000007786,13023.11000006739,14248.684999998659,14875.145000056364,17198.76000005752,18695.01999998465,19304.815000039525,20488.605000078678,24037.09500003606,28784.884999971837,29733.355000033043,33401.04500006419,35208.42500007711,36894.27000004798,39894.57999996375,45153.16500002518,47796.229999978095,51165.830000070855,52784.57999997772,54346.29500005394,56788.56999997515],"rt":56792.62500000186,"survey":"pswq","trial_type":"survey-template","trial_index":1,"time_elapsed":61029,"internal_node_id":"0.0-1.0","task_version":"0.2"},{"item_order":[8,0,4,9,1,11,7,10,5,3,6,12,2],"responses":{"Q09":"3","Q01":"3","Q05":"2","Q10":"0","Q02":"4","Q12":"1","Q08":"3","Q11":"3","Q06":"0","Q04":"3","Q07":"2","Q13":"4","Q03":"0"},"radio_events":[5395.335000008345,10869.550000061281,11851.425000000745,14349.525000085123,16783.340000081807,19344.325000070967,21486.08000006061,22621.90000002738,26132.02000001911,27871.385000064038,28775.275000021793,31281.32499998901,34403.34000007715,38512.73499999661,39679.23000000883],"key_events":[],"mouse_events":[5395.335000008345,10869.550000061281,11851.425000000745,14349.525000085123,16783.340000081807,19344.325000070967,21486.08000006061,22621.90000002738,26132.02000001911,27871.385000064038,28775.275000021793,31281.32499998901,34403.34000007715,37103.140000021085,38512.73499999661,39679.23000000883,42189.669999992475],"rt":42192.05499999225,"survey":"ius12","trial_type":"survey-template","trial_index":2,"time_elapsed":103237,"internal_node_id":"0.0-2.0","task_version":"0.2"},{"item_order":[11,0,13,3,10,5,9,2,8,1,4,7,15,12,6,14],"responses":{"Q12":"4","Q01":"3","Q14":"2","Q04":"3","Q11":"2","Q06":"4","Q10":"2","Q03":"2","Q09":"1","Q02":"0","Q05":"1","Q08":"2","Q16":"5","Q13":"3","Q07":"3","Q15":"3"},"radio_events":[5868.220000062138,6957.135000033304,9733.699999982491,14072.18500005547,18040.540000074543,24588.530000066385,28747.504999977536,32489.620000007562,35111.28000007011,41033.60500000417,43399.76499998011,46656.01500007324,48959.38999997452,53343.970000045374,56096.09500004444,60305.649999994785,63689.57499996759,65323.15000006929,67200.90000005439],"key_events":[],"mouse_events":[5868.220000062138,6957.135000033304,9733.699999982491,14072.18500005547,18040.540000074543,24588.530000066385,28747.504999977536,32489.620000007562,35111.28000007011,41033.60500000417,43005.91000006534,43399.76499998011,46656.01500007324,48959.38999997452,53343.970000045374,56096.09500004444,60305.649999994785,63689.57499996759,65323.15000006929,67200.90000005439,71197.28500000201],"rt":71201.04000007268,"survey":"nfc","trial_type":"survey-template","trial_index":3,"time_elapsed":174452,"internal_node_id":"0.0-3.0","task_version":"0.2"},{"view_history":"[{\"page_index\":0,\"viewing_time\":2605.7049999944866},{\"page_index\":1,\"viewing_time\":3315.954999998212},{\"page_index\":2,\"viewing_time\":4421.86500004027},{\"page_index\":3,\"viewing_time\":3071.949999895878},{\"page_index\":4,\"viewing_time\":1576.5550000360236},{\"page_index\":3,\"viewing_time\":7585.410000057891},{\"page_index\":4,\"viewing_time\":1904.2249999474734},{\"page_index\":5,\"viewing_time\":664.5499999867752},{\"page_index\":4,\"viewing_time\":1370.2500000363216},{\"page_index\":5,\"viewing_time\":3438.979999977164},{\"page_index\":6,\"viewing_time\":4850.210000062361},{\"page_index\":7,\"viewing_time\":7346.0249999770895},{\"page_index\":8,\"viewing_time\":5707.919999957085},{\"page_index\":9,\"viewing_time\":9419.940000050701}]","rt":57280.93499992974,"trial_type":"instructions","trial_index":4,"time_elapsed":231741,"internal_node_id":"0.0-4.0-0.0","task_version":"0.2"},{"response_times":[989.2799999797717,639.6249999525025,590.749999973923,628.4350000787526,3247.2149999812245],"keys_pressed":["rightarrow","leftarrow","rightarrow","rightarrow","leftarrow"],"horizon":5,"forced_choices":["rightarrow","leftarrow","rightarrow","rightarrow"],"right_color":"lightblue","left_color":"orange","left_mu":40,"right_mu":20,"left_numbers":[40,40,40,47,46],"right_numbers":[17,14,19,15,14],"points_earned":137,"phase":"practice","trial_type":"horizons-task","trial_index":5,"time_elapsed":239360,"internal_node_id":"0.0-4.0-1.0","task_version":"0.2"},{"response_times":[1169.4200000492856,779.0450000902638,567.7900000009686,565.9699999960139,1974.9750000191852,1345.0400000438094,678.3800000557676,547.7950000204146,549.6000000275671,967.9350000806153],"keys_pressed":["leftarrow","leftarrow","rightarrow","rightarrow","rightarrow","rightarrow","rightarrow","rightarrow","rightarrow","rightarrow"],"horizon":10,"forced_choices":["leftarrow","leftarrow","rightarrow","rightarrow"],"right_color":"orange","left_color":"lightblue","left_mu":60,"right_mu":70,"left_numbers":[61,53,52,78,64,67,50,74,50,67],"right_numbers":[64,83,68,73,70,64,69,71,67,74],"points_earned":670,"phase":"practice","trial_type":"horizons-task","trial_index":6,"time_elapsed":250012,"internal_node_id":"0.0-4.0-2.0","task_version":"0.2"},{"view_history":"[{\"page_index\":0,\"viewing_time\":1626.2900000438094},{\"page_index\":1,\"viewing_time\":2772.5449999561533},{\"page_index\":2,\"viewing_time\":3995.450000045821},{\"page_index\":3,\"viewing_time\":2138.979999930598}]","rt":10533.94999995362,"trial_type":"instructions","trial_index":7,"time_elapsed":260548,"internal_node_id":"0.0-4.0-3.0","task_version":"0.2"},{"responses":["true","false","true"],"num_errors":0,"rt":8287.974999984726,"trial_type":"horizons-comprehension","trial_index":8,"time_elapsed":268840,"internal_node_id":"0.0-4.0-4.0","task_version":"0.2"},{"trial_type":"call-function","trial_index":9,"time_elapsed":268853,"internal_node_id":"0.0-5.0","task_version":"0.2"},{"view_history":"[{\"page_index\":0,\"viewing_time\":1088.05499994196},{\"page_index\":1,\"viewing_time\":4116.589999990538}]","rt":5205.269999918528,"trial_type":"instructions","trial_index":10,"time_elapsed":274059,"internal_node_id":"0.0-6.0","task_version":"0.2"},{"response_times":[801.5400000149384,733.9100000681356,782.2499999310821,866.0150000359863,1545.1950000133365],"keys_pressed":["leftarrow","rightarrow","rightarrow","rightarrow","leftarrow"],"horizon":5,"forced_choices":["leftarrow","rightarrow","rightarrow","rightarrow"],"right_color":"lightblue","left_color":"orange","left_mu":40,"right_mu":20,"left_numbers":[41,42,44,24,38],"right_numbers":[30,20,22,28,23],"points_earned":149,"phase":"task","trial_type":"horizons-task","trial_index":11,"time_elapsed":280300,"internal_node_id":"0.0-7.0","task_version":"0.2"},{"response_times":[648.3200000366196,661.5599999204278,512.4150000046939,469.5950000314042,1660.7100000837818,933.5549999959767,2441.8349999468774,618.2000000262633,583.3649999694899,608.47500001546],"keys_pressed":["leftarrow","rightarrow","rightarrow","rightarrow","leftarrow","leftarrow","leftarrow","leftarrow","leftarrow","leftarrow"],"horizon":10,"forced_choices":["leftarrow","rightarrow","rightarrow","rightarrow"],"right_color":"lightblue","left_color":"orange","left_mu":40,"right_mu":10,"left_numbers":[41,34,39,38,39,24,40,38,42,43],"right_numbers":[10,1,25,0,4,4,16,0,7,10],"points_earned":293,"phase":"task","trial_type":"horizons-task","trial_index":12,"time_elapsed":290946,"internal_node_id":"0.0-8.0","task_version":"0.2"},{"response_times":[668.4600000735372,622.1200000727549,1521.7149999225512,757.8349999384955,831.8850001087412],"keys_pressed":["rightarrow","rightarrow","leftarrow","rightarrow","rightarrow"],"horizon":5,"forced_choices":["rightarrow","rightarrow","leftarrow","rightarrow"],"right_color":"lightblue","left_color":"orange","left_mu":60,"right_mu":90,"left_numbers":[57,61,57,51,54],"right_numbers":[78,80,92,94,75],"points_earned":384,"phase":"task","trial_type":"horizons-task","trial_index":13,"time_elapsed":296854,"internal_node_id":"0.0-9.0","task_version":"0.2"},{"response_times":[880.8999999891967,709.3700000550598,694.4349999539554,590.7400000141934,1848.0850000632927,842.2949999803677,691.2949999095872,491.65500001981854,577.6599999517202,633.4649999625981],"keys_pressed":["leftarrow","rightarrow","leftarrow","leftarrow","leftarrow","leftarrow","leftarrow","leftarrow","leftarrow","leftarrow"],"horizon":10,"forced_choices":["leftarrow","rightarrow","leftarrow","leftarrow"],"right_color":"orange","left_color":"lightblue","left_mu":60,"right_mu":56,"left_numbers":[52,69,69,68,68,66,66,61,69,52],"right_numbers":[47,44,61,40,62,50,38,48,60,63],"points_earned":615,"phase":"task","trial_type":"horizons-task","trial_index":14,"time_elapsed":306318,"internal_node_id":"0.0-10.0","task_version":"0.2"},{"response_times":[772.6549999788404,545.1950000133365,658.850000007078,725.040000048466,1307.3350000195205,666.4800000144169,494.0399999031797,420.5100000835955,442.2149999300018,429.2799999238923],"keys_pressed":["rightarrow","leftarrow","leftarrow","rightarrow","leftarrow","leftarrow","leftarrow","leftarrow","leftarrow","leftarrow"],"horizon":10,"forced_choices":["rightarrow","leftarrow","leftarrow","rightarrow"],"right_color":"lightblue","left_color":"orange","left_mu":60,"right_mu":40,"left_numbers":[71,60,60,67,61,63,54,68,65,70],"right_numbers":[31,38,28,39,37,47,40,30,46,24],"points_earned":571,"phase":"task","trial_type":"horizons-task","trial_index":15,"time_elapsed":314294,"internal_node_id":"0.0-11.0","task_version":"0.2"},{"response_times":[724.0000000456348,1410.2499999571592,1170.0249999994412,1151.8499999074265,1089.254999998957],"keys_pressed":["rightarrow","rightarrow","leftarrow","rightarrow","rightarrow"],"horizon":5,"forced_choices":["rightarrow","rightarrow","leftarrow","rightarrow"],"right_color":"lightblue","left_color":"orange","left_mu":60,"right_mu":72,"left_numbers":[45,58,53,71,50],"right_numbers":[74,91,80,68,62],"points_earned":348,"phase":"task","trial_type":"horizons-task","trial_index":16,"time_elapsed":321346,"internal_node_id":"0.0-12.0","task_version":"0.2"},{"response_times":[582.6649999944493,529.1999999899417,608.7450000923127,1706.0749999945983,959.7349999239668],"keys_pressed":["rightarrow","leftarrow","leftarrow","rightarrow","leftarrow"],"horizon":5,"forced_choices":["rightarrow","leftarrow","leftarrow","rightarrow"],"right_color":"lightblue","left_color":"orange","left_mu":40,"right_mu":36,"left_numbers":[46,49,42,41,26],"right_numbers":[41,27,40,36,42],"points_earned":194,"phase":"task","trial_type":"horizons-task","trial_index":17,"time_elapsed":327238,"internal_node_id":"0.0-13.0","task_version":"0.2"},{"response_times":[621.3149999966845,521.6249999357387,601.1050000088289,573.4449999872595,3072.9200000641868,690.0199999799952,569.1450000740588,553.4500000067055,438.09999991208315,582.8550000442192],"keys_pressed":["rightarrow","rightarrow","rightarrow","leftarrow","rightarrow","rightarrow","rightarrow","rightarrow","rightarrow","rightarrow"],"horizon":10,"forced_choices":["rightarrow","rightarrow","rightarrow","leftarrow"],"right_color":"lightblue","left_color":"orange","left_mu":60,"right_mu":64,"left_numbers":[62,50,69,57,75,60,58,57,54,62],"right_numbers":[60,66,70,55,79,73,63,56,74,69],"points_earned":667,"phase":"task","trial_type":"horizons-task","trial_index":18,"time_elapsed":336967,"internal_node_id":"0.0-14.0","task_version":"0.2"},{"response_times":[907.3949999874458,965.5900000361726,552.0399999804795,551.744999946095,1173.4899999573827],"keys_pressed":["leftarrow","rightarrow","leftarrow","rightarrow","leftarrow"],"horizon":5,"forced_choices":["leftarrow","rightarrow","leftarrow","rightarrow"],"right_color":"orange","left_color":"lightblue","left_mu":40,"right_mu":32,"left_numbers":[51,35,42,37,46],"right_numbers":[33,23,23,22,32],"points_earned":184,"phase":"task","trial_type":"horizons-task","trial_index":19,"time_elapsed":342625,"internal_node_id":"0.0-15.0","task_version":"0.2"},{"response_times":[708.6450000060722,631.7650000564754,551.2699999380857,763.1950000068173,2219.429999939166],"keys_pressed":["leftarrow","leftarrow","rightarrow","rightarrow","leftarrow"],"horizon":5,"forced_choices":["leftarrow","leftarrow","rightarrow","rightarrow"],"right_color":"lightblue","left_color":"orange","left_mu":60,"right_mu":64,"left_numbers":[63,55,62,65,63],"right_numbers":[67,59,59,57,63],"points_earned":297,"phase":"task","trial_type":"horizons-task","trial_index":20,"time_elapsed":349005,"internal_node_id":"0.0-16.0","task_version":"0.2"},{"response_times":[598.9299999782816,454.3200000189245,546.7800000915304,520.4499999526888,2095.229999977164,513.2200000807643,287.430000025779,322.3799999104813,294.72000000532717,436.72499991953373],"keys_pressed":["leftarrow","rightarrow","rightarrow","leftarrow","leftarrow","leftarrow","leftarrow","leftarrow","leftarrow","leftarrow"],"horizon":10,"forced_choices":["leftarrow","rightarrow","rightarrow","leftarrow"],"right_color":"orange","left_color":"lightblue","left_mu":40,"right_mu":28,"left_numbers":[38,41,47,35,48,44,49,35,52,34],"right_numbers":[35,28,21,34,21,29,25,14,22,23],"points_earned":384,"phase":"task","trial_type":"horizons-task","trial_index":21,"time_elapsed":356581,"internal_node_id":"0.0-17.0","task_version":"0.2"},{"response_times":[1630.6149999145418,487.5900000333786,494.2249999148771,500.3600000636652,6777.7850000420585,436.41500000376254,327.61000003665686,552.3099999409169,448.6599999945611,527.3049999959767],"keys_pressed":["rightarrow","leftarrow","rightarrow","leftarrow","leftarrow","leftarrow","leftarrow","leftarrow","leftarrow","leftarrow"],"horizon":10,"forced_choices":["rightarrow","leftarrow","rightarrow","leftarrow"],"right_color":"orange","left_color":"lightblue","left_mu":60,"right_mu":68,"left_numbers":[59,65,47,77,67,59,59,56,59,72],"right_numbers":[67,75,41,54,60,74,67,71,69,73],"points_earned":622,"phase":"task","trial_type":"horizons-task","trial_index":22,"time_elapsed":370293,"internal_node_id":"0.0-18.0","task_version":"0.2"},{"response_times":[616.2999999942258,435.56000001262873,524.8150000115857,579.9249999690801,1034.8600000143051],"keys_pressed":["leftarrow","leftarrow","rightarrow","rightarrow","leftarrow"],"horizon":5,"forced_choices":["leftarrow","leftarrow","rightarrow","rightarrow"],"right_color":"lightblue","left_color":"orange","left_mu":60,"right_mu":30,"left_numbers":[62,61,80,62,52],"right_numbers":[32,21,33,26,30],"points_earned":234,"phase":"task","trial_type":"horizons-task","trial_index":23,"time_elapsed":374990,"internal_node_id":"0.0-19.0","task_version":"0.2"},{"response_times":[698.3600000385195,612.5150000443682,454.51999991200864,435.89500000234693,3869.7399999946356,660.4999999981374,829.1149999713525,1220.3900000313297,727.0449999487028,441.23999995645136],"keys_pressed":["leftarrow","leftarrow","rightarrow","leftarrow","leftarrow","rightarrow","leftarrow","rightarrow","leftarrow","leftarrow"],"horizon":10,"forced_choices":["leftarrow","leftarrow","rightarrow","leftarrow"],"right_color":"orange","left_color":"lightblue","left_mu":40,"right_mu":28,"left_numbers":[41,42,33,40,22,52,27,47,28,49],"right_numbers":[12,41,36,26,23,32,26,12,8,22],"points_earned":329,"phase":"task","trial_type":"horizons-task","trial_index":24,"time_elapsed":386444,"internal_node_id":"0.0-20.0","task_version":"0.2"},{"response_times":[792.699999990873,720.8799999207258,585.3150000330061,574.8250000178814,1809.5850000390783,514.0900000697002,366.8349999934435,254.9499999731779,236.2849999917671,266.9999999925494],"keys_pressed":["rightarrow","leftarrow","leftarrow","leftarrow","rightarrow","rightarrow","rightarrow","rightarrow","rightarrow","rightarrow"],"horizon":10,"forced_choices":["rightarrow","leftarrow","leftarrow","leftarrow"],"right_color":"orange","left_color":"lightblue","left_mu":60,"right_mu":80,"left_numbers":[51,35,62,68,63,60,57,70,64,66],"right_numbers":[84,81,95,78,77,79,82,73,81,76],"points_earned":717,"phase":"task","trial_type":"horizons-task","trial_index":25,"time_elapsed":394072,"internal_node_id":"0.0-21.0","task_version":"0.2"},{"response_times":[605.0399999367073,397.7350000059232,541.9099999126047,610.0899999728426,1796.9049999956042],"keys_pressed":["leftarrow","rightarrow","rightarrow","rightarrow","rightarrow"],"horizon":5,"forced_choices":["leftarrow","rightarrow","rightarrow","rightarrow"],"right_color":"orange","left_color":"lightblue","left_mu":40,"right_mu":70,"left_numbers":[54,31,42,34,37],"right_numbers":[68,64,74,64,67],"points_earned":323,"phase":"task","trial_type":"horizons-task","trial_index":26,"time_elapsed":399529,"internal_node_id":"0.0-22.0","task_version":"0.2"},{"response_times":[689.7050000261515,516.0199999809265,553.4700000425801,581.804999965243,3484.6150000812486],"keys_pressed":["leftarrow","rightarrow","leftarrow","leftarrow","rightarrow"],"horizon":5,"forced_choices":["leftarrow","rightarrow","leftarrow","leftarrow"],"right_color":"orange","left_color":"lightblue","left_mu":40,"right_mu":48,"left_numbers":[27,34,35,48,50],"right_numbers":[49,47,57,48,58],"points_earned":215,"phase":"task","trial_type":"horizons-task","trial_index":27,"time_elapsed":406859,"internal_node_id":"0.0-23.0","task_version":"0.2"},{"response_times":[841.59000008367,516.1049999296665,489.49499998707324,508.6150000570342,3419.880000059493,1084.9850000813603,570.839999942109,553.8900000974536,1199.4999999878928,350.9100000374019],"keys_pressed":["leftarrow","leftarrow","leftarrow","rightarrow","rightarrow","rightarrow","rightarrow","rightarrow","rightarrow","rightarrow"],"horizon":10,"forced_choices":["leftarrow","leftarrow","leftarrow","rightarrow"],"right_color":"orange","left_color":"lightblue","left_mu":40,"right_mu":52,"left_numbers":[54,33,29,39,27,48,45,37,24,31],"right_numbers":[40,47,51,48,60,53,61,47,62,51],"points_earned":498,"phase":"task","trial_type":"horizons-task","trial_index":28,"time_elapsed":417902,"internal_node_id":"0.0-24.0","task_version":"0.2"},{"response_times":[676.5250000171363,410.1200000150129,528.0400000046939,709.6900000469759,2270.005000056699],"keys_pressed":["leftarrow","rightarrow","leftarrow","rightarrow","leftarrow"],"horizon":5,"forced_choices":["leftarrow","rightarrow","leftarrow","rightarrow"],"right_color":"orange","left_color":"lightblue","left_mu":60,"right_mu":56,"left_numbers":[63,60,59,56,60],"right_numbers":[65,55,73,63,49],"points_earned":300,"phase":"task","trial_type":"horizons-task","trial_index":29,"time_elapsed":424022,"internal_node_id":"0.0-25.0","task_version":"0.2"},{"response_times":[606.3550000544637,493.6000000452623,516.219999990426,874.5249999919906,925.8899999549612],"keys_pressed":["rightarrow","rightarrow","leftarrow","leftarrow","rightarrow"],"horizon":5,"forced_choices":["rightarrow","rightarrow","leftarrow","leftarrow"],"right_color":"orange","left_color":"lightblue","left_mu":60,"right_mu":80,"left_numbers":[48,68,54,56,62],"right_numbers":[81,75,82,83,75],"points_earned":341,"phase":"task","trial_type":"horizons-task","trial_index":30,"time_elapsed":428944,"internal_node_id":"0.0-26.0","task_version":"0.2"},{"response_times":[624.7349999612197,377.4200000334531,475.13499995693564,829.1850000387058,1359.45999994874,445.73499995749444,242.00000008568168,244.0049999859184,311.3199999788776,297.44999995455146],"keys_pressed":["rightarrow","leftarrow","rightarrow","leftarrow","leftarrow","leftarrow","leftarrow","leftarrow","leftarrow","leftarrow"],"horizon":10,"forced_choices":["rightarrow","leftarrow","rightarrow","leftarrow"],"right_color":"orange","left_color":"lightblue","left_mu":60,"right_mu":52,"left_numbers":[75,60,64,63,65,76,69,66,47,57],"right_numbers":[50,46,57,50,40,47,63,60,53,48],"points_earned":610,"phase":"task","trial_type":"horizons-task","trial_index":31,"time_elapsed":435656,"internal_node_id":"0.0-27.0","task_version":"0.2"},{"response_times":[771.7100000008941,514.1200000653043,491.634999983944,623.274999903515,2596.1649999953806,458.794999984093,380.2750000031665,255.23000000976026,205.16500005032867,188.39000002481043],"keys_pressed":["leftarrow","leftarrow","rightarrow","leftarrow","rightarrow","leftarrow","leftarrow","leftarrow","leftarrow","leftarrow"],"horizon":10,"forced_choices":["leftarrow","leftarrow","rightarrow","leftarrow"],"right_color":"lightblue","left_color":"orange","left_mu":40,"right_mu":36,"left_numbers":[46,45,46,45,37,45,36,35,56,52],"right_numbers":[25,24,28,44,28,40,32,39,38,28],"points_earned":416,"phase":"task","trial_type":"horizons-task","trial_index":32,"time_elapsed":443647,"internal_node_id":"0.0-28.0","task_version":"0.2"},{"response_times":[666.3299999199808,429.7399999340996,421.18499998468906,683.1249999813735,974.419999984093,347.9049999732524,202.16999994590878,179.02999999932945,177.31000005733222,176.1799999512732],"keys_pressed":["leftarrow","rightarrow","leftarrow","rightarrow","leftarrow","leftarrow","leftarrow","leftarrow","leftarrow","leftarrow"],"horizon":10,"forced_choices":["leftarrow","rightarrow","leftarrow","rightarrow"],"right_color":"lightblue","left_color":"orange","left_mu":40,"right_mu":10,"left_numbers":[32,39,45,26,34,44,38,41,33,26],"right_numbers":[14,4,9,14,0,21,12,11,21,0],"points_earned":311,"phase":"task","trial_type":"horizons-task","trial_index":33,"time_elapsed":449410,"internal_node_id":"0.0-29.0","task_version":"0.2"},{"response_times":[607.1849999716505,377.9999999096617,408.8399999309331,696.265000035055,2222.914999932982,1303.3399999840185,438.9149999478832,218.32999994512647,176.70000006910414,176.0449999710545],"keys_pressed":["rightarrow","leftarrow","rightarrow","rightarrow","leftarrow","rightarrow","rightarrow","rightarrow","rightarrow","rightarrow"],"horizon":10,"forced_choices":["rightarrow","leftarrow","rightarrow","rightarrow"],"right_color":"orange","left_color":"lightblue","left_mu":60,"right_mu":68,"left_numbers":[58,57,55,67,55,46,69,73,61,66],"right_numbers":[69,69,68,54,69,68,76,65,69,76],"points_earned":657,"phase":"task","trial_type":"horizons-task","trial_index":34,"time_elapsed":457542,"internal_node_id":"0.0-30.0","task_version":"0.2"},{"response_times":[667.4849999835715,342.6050000125542,609.9849999882281,644.0099999308586,1752.07499996759,860.759999952279,458.1349999643862,681.8850000854582,556.5850000130013,529.2400000616908],"keys_pressed":["leftarrow","rightarrow","rightarrow","leftarrow","rightarrow","leftarrow","leftarrow","leftarrow","leftarrow","leftarrow"],"horizon":10,"forced_choices":["leftarrow","rightarrow","rightarrow","leftarrow"],"right_color":"lightblue","left_color":"orange","left_mu":60,"right_mu":48,"left_numbers":[51,69,70,55,68,57,45,60,69,49],"right_numbers":[42,55,51,35,49,43,42,33,50,45],"points_earned":541,"phase":"task","trial_type":"horizons-task","trial_index":35,"time_elapsed":466152,"internal_node_id":"0.0-31.0","task_version":"0.2"},{"response_times":[565.4999999096617,338.89000001363456,343.03500002715737,639.1050000675023,6605.3150000516325,204.83499998226762,167.05499996896833,154.6249999664724,150.6150000495836,453.34000000730157],"keys_pressed":["leftarrow","rightarrow","leftarrow","rightarrow","leftarrow","leftarrow","leftarrow","leftarrow","leftarrow","leftarrow"],"horizon":10,"forced_choices":["leftarrow","rightarrow","leftarrow","rightarrow"],"right_color":"orange","left_color":"lightblue","left_mu":40,"right_mu":32,"left_numbers":[29,51,43,48,44,46,47,41,25,38],"right_numbers":[27,19,50,32,29,32,31,35,43,37],"points_earned":364,"phase":"task","trial_type":"horizons-task","trial_index":36,"time_elapsed":477281,"internal_node_id":"0.0-32.0","task_version":"0.2"},{"response_times":[787.1950000990182,431.67499999981374,978.7249999353662,461.3400000380352,218.39500009082258],"keys_pressed":["rightarrow","leftarrow","rightarrow","leftarrow","leftarrow"],"horizon":5,"forced_choices":["rightarrow","leftarrow","rightarrow","leftarrow"],"right_color":"orange","left_color":"lightblue","left_mu":60,"right_mu":52,"left_numbers":[70,69,42,56,60],"right_numbers":[38,52,56,49,63],"points_earned":279,"phase":"task","trial_type":"horizons-task","trial_index":37,"time_elapsed":481665,"internal_node_id":"0.0-33.0","task_version":"0.2"},{"response_times":[620.6549999769777,550.1599999843165,430.16999994870275,1665.1900000870228,859.5399999758229,319.9100000783801,244.5150000276044,241.1650000140071,252.74000002536923,285.52499995566905],"keys_pressed":["rightarrow","rightarrow","leftarrow","rightarrow","rightarrow","rightarrow","rightarrow","rightarrow","rightarrow","rightarrow"],"horizon":10,"forced_choices":["rightarrow","rightarrow","leftarrow","rightarrow"],"right_color":"orange","left_color":"lightblue","left_mu":40,"right_mu":60,"left_numbers":[51,25,35,34,41,36,31,39,45,34],"right_numbers":[53,51,67,54,70,64,52,54,57,66],"points_earned":556,"phase":"task","trial_type":"horizons-task","trial_index":38,"time_elapsed":488642,"internal_node_id":"0.0-34.0","task_version":"0.2"},{"response_times":[724.6899999445304,781.9199999794364,733.7899999693036,1017.4650000408292,590.3950000647455,286.3650000654161,222.8549999417737,275.1949999947101,278.75000005587935,3609.5049999421462],"keys_pressed":["rightarrow","rightarrow","leftarrow","rightarrow","rightarrow","rightarrow","rightarrow","rightarrow","rightarrow","rightarrow"],"horizon":10,"forced_choices":["rightarrow","rightarrow","leftarrow","rightarrow"],"right_color":"lightblue","left_color":"orange","left_mu":60,"right_mu":72,"left_numbers":[64,77,66,66,57,57,63,57,68,58],"right_numbers":[85,76,65,79,71,69,78,64,75,72],"points_earned":735,"phase":"task","trial_type":"horizons-task","trial_index":39,"time_elapsed":498671,"internal_node_id":"0.0-35.0","task_version":"0.2"},{"response_times":[1503.6400000099093,378.3149999799207,581.7800000077114,575.4500000039116,2977.3300000233576,407.1799999801442,629.1199999395758,241.63000006228685,316.7700000340119,325.00499999150634],"keys_pressed":["rightarrow","leftarrow","leftarrow","rightarrow","rightarrow","rightarrow","rightarrow","rightarrow","rightarrow","rightarrow"],"horizon":10,"forced_choices":["rightarrow","leftarrow","leftarrow","rightarrow"],"right_color":"orange","left_color":"lightblue","left_mu":40,"right_mu":48,"left_numbers":[43,44,42,43,42,45,31,35,36,53],"right_numbers":[45,48,50,43,40,50,48,39,67,63],"points_earned":481,"phase":"task","trial_type":"horizons-task","trial_index":40,"time_elapsed":508114,"internal_node_id":"0.0-36.0","task_version":"0.2"},{"response_times":[1231.8600000580773,3314.644999918528,1051.8649999285117,607.1249999804422,658.6499999975786],"keys_pressed":["leftarrow","leftarrow","leftarrow","rightarrow","leftarrow"],"horizon":5,"forced_choices":["leftarrow","leftarrow","leftarrow","rightarrow"],"right_color":"lightblue","left_color":"orange","left_mu":60,"right_mu":40,"left_numbers":[67,51,50,55,62],"right_numbers":[32,40,33,40,45],"points_earned":270,"phase":"task","trial_type":"horizons-task","trial_index":41,"time_elapsed":516483,"internal_node_id":"0.0-37.0","task_version":"0.2"},{"response_times":[686.3450000528246,449.9799999175593,466.9250000733882,508.7749999947846,1766.5849999757484,213.81500002462417,192.2400000039488,182.22000007517636,170.96499993931502,183.83500003255904],"keys_pressed":["rightarrow","leftarrow","rightarrow","leftarrow","leftarrow","leftarrow","leftarrow","leftarrow","leftarrow","leftarrow"],"horizon":10,"forced_choices":["rightarrow","leftarrow","rightarrow","leftarrow"],"right_color":"lightblue","left_color":"orange","left_mu":40,"right_mu":20,"left_numbers":[44,32,24,44,29,46,38,35,28,42],"right_numbers":[7,28,13,30,27,26,29,20,13,11],"points_earned":314,"phase":"task","trial_type":"horizons-task","trial_index":42,"time_elapsed":522811,"internal_node_id":"0.0-38.0","task_version":"0.2"},{"response_times":[601.2249999912456,371.09499995131046,702.6449999539182,1010.9149999916553,1249.1099999751896],"keys_pressed":["rightarrow","leftarrow","leftarrow","leftarrow","rightarrow"],"horizon":5,"forced_choices":["rightarrow","leftarrow","leftarrow","leftarrow"],"right_color":"orange","left_color":"lightblue","left_mu":60,"right_mu":80,"left_numbers":[58,51,66,52,53],"right_numbers":[84,82,78,60,83],"points_earned":336,"phase":"task","trial_type":"horizons-task","trial_index":43,"time_elapsed":528274,"internal_node_id":"0.0-39.0","task_version":"0.2"},{"response_times":[834.3099999474362,974.9699999811128,1946.8099999940023,1542.2099999850616,890.0600000051782,230.58999993372709,352.57999994792044,238.29999996814877,246.09999998938292,276.7349999630824],"keys_pressed":["rightarrow","rightarrow","leftarrow","rightarrow","rightarrow","rightarrow","rightarrow","rightarrow","rightarrow","rightarrow"],"horizon":10,"forced_choices":["rightarrow","rightarrow","leftarrow","rightarrow"],"right_color":"lightblue","left_color":"orange","left_mu":60,"right_mu":90,"left_numbers":[68,58,65,46,67,52,60,72,65,67],"right_numbers":[87,88,93,95,92,102,89,94,82,77],"points_earned":871,"phase":"task","trial_type":"horizons-task","trial_index":44,"time_elapsed":537312,"internal_node_id":"0.0-40.0","task_version":"0.2"},{"response_times":[942.2649999614805,528.8400000426918,1026.5549999894574,450.5049999570474,2152.639999985695],"keys_pressed":["rightarrow","rightarrow","rightarrow","leftarrow","leftarrow"],"horizon":5,"forced_choices":["rightarrow","rightarrow","rightarrow","leftarrow"],"right_color":"lightblue","left_color":"orange","left_mu":60,"right_mu":48,"left_numbers":[44,47,63,57,60],"right_numbers":[46,41,50,59,47],"points_earned":254,"phase":"task","trial_type":"horizons-task","trial_index":45,"time_elapsed":543918,"internal_node_id":"0.0-41.0","task_version":"0.2"},{"response_times":[831.679999944754,658.7450000224635,789.725000038743,1024.9349999940023,1481.359999976121,413.8750000856817,510.31000004149973,292.4549999879673,366.2999999942258,414.2649999121204],"keys_pressed":["leftarrow","rightarrow","rightarrow","rightarrow","leftarrow","leftarrow","leftarrow","leftarrow","leftarrow","leftarrow"],"horizon":10,"forced_choices":["leftarrow","rightarrow","rightarrow","rightarrow"],"right_color":"lightblue","left_color":"orange","left_mu":40,"right_mu":20,"left_numbers":[38,50,51,33,22,39,31,44,42,37],"right_numbers":[24,12,23,24,26,7,17,22,18,15],"points_earned":312,"phase":"task","trial_type":"horizons-task","trial_index":46,"time_elapsed":552209,"internal_node_id":"0.0-42.0","task_version":"0.2"},{"response_times":[1488.9700000640005,474.2100000148639,541.3599999155849,1275.6349999690428,272.2550000762567,239.9000000441447,231.64000001270324,214.12999997846782,336.11000003293157,391.7549999896437],"keys_pressed":["leftarrow","rightarrow","rightarrow","rightarrow","rightarrow","rightarrow","rightarrow","rightarrow","rightarrow","rightarrow"],"horizon":10,"forced_choices":["leftarrow","rightarrow","rightarrow","rightarrow"],"right_color":"orange","left_color":"lightblue","left_mu":40,"right_mu":70,"left_numbers":[33,39,25,42,40,35,40,53,36,49],"right_numbers":[53,79,75,57,85,72,85,70,83,64],"points_earned":703,"phase":"task","trial_type":"horizons-task","trial_index":47,"time_elapsed":559180,"internal_node_id":"0.0-43.0","task_version":"0.2"},{"response_times":[562.7850000746548,331.57999999821186,525.495000067167,692.1699999365956,940.9349999623373],"keys_pressed":["leftarrow","rightarrow","rightarrow","leftarrow","leftarrow"],"horizon":5,"forced_choices":["leftarrow","rightarrow","rightarrow","leftarrow"],"right_color":"orange","left_color":"lightblue","left_mu":40,"right_mu":28,"left_numbers":[56,49,30,49,27],"right_numbers":[19,39,24,18,36],"points_earned":195,"phase":"task","trial_type":"horizons-task","trial_index":48,"time_elapsed":563739,"internal_node_id":"0.0-44.0","task_version":"0.2"},{"response_times":[710.689999978058,427.5950000155717,640.1349999941885,675.2899999264628,1008.4799999604002,170.44999997597188,167.4049999564886,155.84999998100102,154.31499993428588,156.58999991137534],"keys_pressed":["leftarrow","leftarrow","rightarrow","leftarrow","leftarrow","leftarrow","leftarrow","leftarrow","leftarrow","leftarrow"],"horizon":10,"forced_choices":["leftarrow","leftarrow","rightarrow","leftarrow"],"right_color":"lightblue","left_color":"orange","left_mu":60,"right_mu":30,"left_numbers":[65,57,54,71,50,58,57,63,56,56],"right_numbers":[45,28,43,33,38,32,30,28,19,39],"points_earned":576,"phase":"task","trial_type":"horizons-task","trial_index":49,"time_elapsed":569512,"internal_node_id":"0.0-45.0","task_version":"0.2"},{"response_times":[618.3749999618158,491.2250000052154,653.0299999285489,1559.7449999768287,2448.115000035614],"keys_pressed":["leftarrow","leftarrow","rightarrow","leftarrow","rightarrow"],"horizon":5,"forced_choices":["leftarrow","leftarrow","rightarrow","leftarrow"],"right_color":"lightblue","left_color":"orange","left_mu":40,"right_mu":36,"left_numbers":[35,29,41,44,48],"right_numbers":[39,39,37,41,24],"points_earned":169,"phase":"task","trial_type":"horizons-task","trial_index":50,"time_elapsed":576811,"internal_node_id":"0.0-46.0","task_version":"0.2"},{"view_history":"[{\"page_index\":0,\"viewing_time\":2508.445000043139},{\"page_index\":1,\"viewing_time\":3547.6049999706447}]","rt":6057.320000021718,"trial_type":"instructions","trial_index":51,"time_elapsed":582871,"internal_node_id":"0.0-47.0","task_version":"0.2"},{"response_times":[715.9600000595674,447.35999999102205,722.1450000070035,1609.679999994114,703.1600000336766],"keys_pressed":["leftarrow","leftarrow","leftarrow","rightarrow","rightarrow"],"horizon":5,"forced_choices":["leftarrow","leftarrow","leftarrow","rightarrow"],"right_color":"orange","left_color":"lightblue","left_mu":40,"right_mu":52,"left_numbers":[27,33,40,47,29],"right_numbers":[68,50,65,58,38],"points_earned":196,"phase":"task","trial_type":"horizons-task","trial_index":52,"time_elapsed":588592,"internal_node_id":"0.0-48.0","task_version":"0.2"},{"response_times":[709.220000077039,468.07500009890646,546.3899999158457,507.10499996785074,3007.5449999421835,584.9050000542775,358.5100000491366,326.78999996278435,249.6550000505522,390.6349999597296],"keys_pressed":["rightarrow","leftarrow","leftarrow","leftarrow","rightarrow","leftarrow","leftarrow","leftarrow","leftarrow","leftarrow"],"horizon":10,"forced_choices":["rightarrow","leftarrow","leftarrow","leftarrow"],"right_color":"lightblue","left_color":"orange","left_mu":40,"right_mu":44,"left_numbers":[40,34,35,53,32,42,49,46,36,37],"right_numbers":[42,42,54,48,37,44,46,39,32,50],"points_earned":411,"phase":"task","trial_type":"horizons-task","trial_index":53,"time_elapsed":597248,"internal_node_id":"0.0-49.0","task_version":"0.2"},{"response_times":[695.3500000527129,1723.4600000083447,716.1049999995157,719.5050000445917,461.9100000709295,293.82999998051673,281.3650000607595,284.11000000778586,266.414999961853,319.38000000081956],"keys_pressed":["leftarrow","leftarrow","rightarrow","rightarrow","leftarrow","leftarrow","leftarrow","leftarrow","leftarrow","leftarrow"],"horizon":10,"forced_choices":["leftarrow","leftarrow","rightarrow","rightarrow"],"right_color":"lightblue","left_color":"orange","left_mu":60,"right_mu":30,"left_numbers":[68,59,66,65,53,54,57,38,48,60],"right_numbers":[18,16,16,35,36,29,36,39,54,34],"points_earned":488,"phase":"task","trial_type":"horizons-task","trial_index":54,"time_elapsed":604515,"internal_node_id":"0.0-50.0","task_version":"0.2"},{"response_times":[630.2350000478327,747.3150000441819,651.6550000524148,770.3350000083447,2820.865000016056,399.42999999038875,283.26499997638166,361.2599999178201,377.5199999799952,395.7249999511987],"keys_pressed":["rightarrow","rightarrow","leftarrow","leftarrow","rightarrow","rightarrow","rightarrow","rightarrow","rightarrow","rightarrow"],"horizon":10,"forced_choices":["rightarrow","rightarrow","leftarrow","leftarrow"],"right_color":"orange","left_color":"lightblue","left_mu":60,"right_mu":80,"left_numbers":[66,39,52,81,56,55,70,58,77,58],"right_numbers":[83,73,79,92,86,77,95,72,78,71],"points_earned":768,"phase":"task","trial_type":"horizons-task","trial_index":55,"time_elapsed":613459,"internal_node_id":"0.0-51.0","task_version":"0.2"},{"response_times":[503.33500001579523,554.355000029318,565.3249999741092,575.139999971725,742.9299999494106],"keys_pressed":["rightarrow","rightarrow","rightarrow","leftarrow","rightarrow"],"horizon":5,"forced_choices":["rightarrow","rightarrow","rightarrow","leftarrow"],"right_color":"lightblue","left_color":"orange","left_mu":60,"right_mu":64,"left_numbers":[50,46,59,54,53],"right_numbers":[73,65,63,64,60],"points_earned":315,"phase":"task","trial_type":"horizons-task","trial_index":56,"time_elapsed":617906,"internal_node_id":"0.0-52.0","task_version":"0.2"},{"response_times":[513.924999977462,448.28000001143664,794.2099999636412,1495.615000021644,794.1550000105053],"keys_pressed":["leftarrow","rightarrow","leftarrow","rightarrow","leftarrow"],"horizon":5,"forced_choices":["leftarrow","rightarrow","leftarrow","rightarrow"],"right_color":"lightblue","left_color":"orange","left_mu":40,"right_mu":10,"left_numbers":[54,32,34,34,44],"right_numbers":[21,8,10,20,3],"points_earned":160,"phase":"task","trial_type":"horizons-task","trial_index":57,"time_elapsed":623456,"internal_node_id":"0.0-53.0","task_version":"0.2"},{"response_times":[707.9699999885634,377.67499999608845,687.8599999472499,973.3700000215322,596.3850000407547],"keys_pressed":["rightarrow","leftarrow","leftarrow","rightarrow","rightarrow"],"horizon":5,"forced_choices":["rightarrow","leftarrow","leftarrow","rightarrow"],"right_color":"orange","left_color":"lightblue","left_mu":40,"right_mu":70,"left_numbers":[42,44,49,30,36],"right_numbers":[71,66,78,76,61],"points_earned":301,"phase":"task","trial_type":"horizons-task","trial_index":58,"time_elapsed":628319,"internal_node_id":"0.0-54.0","task_version":"0.2"},{"response_times":[529.6800000360236,426.9550000317395,486.3250000635162,1478.6750000203028,1101.2949999421835],"keys_pressed":["rightarrow","leftarrow","leftarrow","leftarrow","leftarrow"],"horizon":5,"forced_choices":["rightarrow","leftarrow","leftarrow","leftarrow"],"right_color":"lightblue","left_color":"orange","left_mu":40,"right_mu":44,"left_numbers":[48,32,47,23,27],"right_numbers":[33,50,38,24,48],"points_earned":162,"phase":"task","trial_type":"horizons-task","trial_index":59,"time_elapsed":633848,"internal_node_id":"0.0-55.0","task_version":"0.2"},{"response_times":[2030.6799999671057,396.23999991454184,506.53499993495643,824.9950000317767,426.36000004131347],"keys_pressed":["rightarrow","leftarrow","rightarrow","leftarrow","leftarrow"],"horizon":5,"forced_choices":["rightarrow","leftarrow","rightarrow","leftarrow"],"right_color":"lightblue","left_color":"orange","left_mu":40,"right_mu":20,"left_numbers":[46,38,42,36,46],"right_numbers":[14,14,6,16,3],"points_earned":140,"phase":"task","trial_type":"horizons-task","trial_index":60,"time_elapsed":639539,"internal_node_id":"0.0-56.0","task_version":"0.2"},{"response_times":[688.4500000160187,338.57999998144805,893.6199999880046,1037.1450000675395,494.814999983646],"keys_pressed":["rightarrow","leftarrow","leftarrow","rightarrow","leftarrow"],"horizon":5,"forced_choices":["rightarrow","leftarrow","leftarrow","rightarrow"],"right_color":"lightblue","left_color":"orange","left_mu":60,"right_mu":40,"left_numbers":[60,56,57,66,52],"right_numbers":[31,35,32,35,43],"points_earned":231,"phase":"task","trial_type":"horizons-task","trial_index":61,"time_elapsed":644497,"internal_node_id":"0.0-57.0","task_version":"0.2"},{"response_times":[663.0950000835583,432.65500001143664,718.6199999414384,1650.2350000664592,848.8699999870732],"keys_pressed":["leftarrow","rightarrow","rightarrow","rightarrow","leftarrow"],"horizon":5,"forced_choices":["leftarrow","rightarrow","rightarrow","rightarrow"],"right_color":"lightblue","left_color":"orange","left_mu":40,"right_mu":10,"left_numbers":[28,44,29,52,38],"right_numbers":[11,12,16,17,2],"points_earned":111,"phase":"task","trial_type":"horizons-task","trial_index":62,"time_elapsed":650316,"internal_node_id":"0.0-58.0","task_version":"0.2"},{"response_times":[672.954999958165,396.21499995701015,713.7949999887496,1452.9350000666454,466.1450000712648],"keys_pressed":["leftarrow","rightarrow","leftarrow","leftarrow","leftarrow"],"horizon":5,"forced_choices":["leftarrow","rightarrow","leftarrow","leftarrow"],"right_color":"orange","left_color":"lightblue","left_mu":60,"right_mu":56,"left_numbers":[52,71,53,52,53],"right_numbers":[53,52,49,64,50],"points_earned":262,"phase":"task","trial_type":"horizons-task","trial_index":63,"time_elapsed":655523,"internal_node_id":"0.0-59.0","task_version":"0.2"},{"response_times":[613.9950000215322,416.5250000078231,1094.939999980852,603.9650000166148,375.93500001821667],"keys_pressed":["leftarrow","rightarrow","rightarrow","leftarrow","leftarrow"],"horizon":5,"forced_choices":["leftarrow","rightarrow","rightarrow","leftarrow"],"right_color":"lightblue","left_color":"orange","left_mu":60,"right_mu":48,"left_numbers":[52,53,58,50,52],"right_numbers":[45,39,31,51,62],"points_earned":224,"phase":"task","trial_type":"horizons-task","trial_index":64,"time_elapsed":660135,"internal_node_id":"0.0-60.0","task_version":"0.2"},{"response_times":[709.1200000140816,352.0749999443069,685.8299999730662,700.0849999021739,5029.035000014119,483.96999994292855,338.18500000052154,265.5399999348447,285.5550000676885,402.5499999988824],"keys_pressed":["rightarrow","leftarrow","leftarrow","leftarrow","rightarrow","leftarrow","leftarrow","leftarrow","leftarrow","leftarrow"],"horizon":10,"forced_choices":["rightarrow","leftarrow","leftarrow","leftarrow"],"right_color":"orange","left_color":"lightblue","left_mu":40,"right_mu":32,"left_numbers":[37,33,53,20,42,44,31,45,33,33],"right_numbers":[21,22,24,22,28,40,27,27,29,36],"points_earned":341,"phase":"task","trial_type":"horizons-task","trial_index":65,"time_elapsed":670893,"internal_node_id":"0.0-61.0","task_version":"0.2"},{"response_times":[676.1300000362098,433.8349999161437,978.5799999954179,1824.4150000391528,1584.9650000454858,279.31000001262873,304.3250000337139,250.45000005047768,268.3950000209734,306.21499998960644],"keys_pressed":["rightarrow","leftarrow","rightarrow","rightarrow","rightarrow","rightarrow","rightarrow","rightarrow","rightarrow","rightarrow"],"horizon":10,"forced_choices":["rightarrow","leftarrow","rightarrow","rightarrow"],"right_color":"orange","left_color":"lightblue","left_mu":60,"right_mu":52,"left_numbers":[65,50,47,72,84,66,56,76,57,62],"right_numbers":[65,45,39,49,57,51,43,49,44,65],"points_earned":512,"phase":"task","trial_type":"horizons-task","trial_index":66,"time_elapsed":679306,"internal_node_id":"0.0-62.0","task_version":"0.2"},{"response_times":[604.8899999586865,584.3349999049678,772.3949999781325,960.7400000095367,799.9099999433383],"keys_pressed":["rightarrow","leftarrow","rightarrow","rightarrow","leftarrow"],"horizon":5,"forced_choices":["rightarrow","leftarrow","rightarrow","rightarrow"],"right_color":"orange","left_color":"lightblue","left_mu":60,"right_mu":52,"left_numbers":[41,56,49,60,65],"right_numbers":[49,51,49,56,55],"points_earned":275,"phase":"task","trial_type":"horizons-task","trial_index":67,"time_elapsed":684535,"internal_node_id":"0.0-63.0","task_version":"0.2"},{"response_times":[736.4700000034645,402.1199999842793,568.9799999818206,494.524999987334,3488.134999992326],"keys_pressed":["rightarrow","leftarrow","leftarrow","leftarrow","rightarrow"],"horizon":5,"forced_choices":["rightarrow","leftarrow","leftarrow","leftarrow"],"right_color":"orange","left_color":"lightblue","left_mu":40,"right_mu":32,"left_numbers":[19,31,27,43,48],"right_numbers":[40,36,26,30,36],"points_earned":177,"phase":"task","trial_type":"horizons-task","trial_index":68,"time_elapsed":691730,"internal_node_id":"0.0-64.0","task_version":"0.2"},{"response_times":[552.8250000206754,521.0149999475107,583.2099999533966,429.35500002931803,506.50000001769513,224.2599999299273,219.1099999472499,232.76000004261732,298.5749999061227,261.0850000055507],"keys_pressed":["rightarrow","rightarrow","leftarrow","leftarrow","rightarrow","rightarrow","rightarrow","rightarrow","rightarrow","rightarrow"],"horizon":10,"forced_choices":["rightarrow","rightarrow","leftarrow","leftarrow"],"right_color":"lightblue","left_color":"orange","left_mu":60,"right_mu":90,"left_numbers":[55,68,55,61,60,54,45,53,59,54],"right_numbers":[95,79,82,84,85,96,87,67,96,90],"points_earned":811,"phase":"task","trial_type":"horizons-task","trial_index":69,"time_elapsed":697065,"internal_node_id":"0.0-65.0","task_version":"0.2"},{"response_times":[1120.8600000245497,441.8300000252202,540.0050000753254,560.2850000141189,751.9599999068305],"keys_pressed":["leftarrow","leftarrow","rightarrow","leftarrow","leftarrow"],"horizon":5,"forced_choices":["leftarrow","leftarrow","rightarrow","leftarrow"],"right_color":"orange","left_color":"lightblue","left_mu":40,"right_mu":28,"left_numbers":[47,34,45,35,35],"right_numbers":[32,39,29,18,36],"points_earned":180,"phase":"task","trial_type":"horizons-task","trial_index":70,"time_elapsed":701986,"internal_node_id":"0.0-66.0","task_version":"0.2"},{"response_times":[615.2800000272691,442.7350000478327,669.9599999701604,486.6850000107661,483.9899999788031,254.23999992199242,251.39499991200864,279.99000006821007,238.75999997835606,402.4000000208616],"keys_pressed":["rightarrow","leftarrow","leftarrow","rightarrow","rightarrow","rightarrow","rightarrow","rightarrow","rightarrow","rightarrow"],"horizon":10,"forced_choices":["rightarrow","leftarrow","leftarrow","rightarrow"],"right_color":"orange","left_color":"lightblue","left_mu":40,"right_mu":70,"left_numbers":[32,41,41,57,35,51,39,43,34,34],"right_numbers":[70,70,74,63,62,68,62,73,71,68],"points_earned":619,"phase":"task","trial_type":"horizons-task","trial_index":71,"time_elapsed":707619,"internal_node_id":"0.0-67.0","task_version":"0.2"},{"response_times":[656.7750000394881,356.2249999959022,446.39999989885837,2434.9850000580773,1349.61499995552],"keys_pressed":["rightarrow","leftarrow","rightarrow","rightarrow","rightarrow"],"horizon":5,"forced_choices":["rightarrow","leftarrow","rightarrow","rightarrow"],"right_color":"orange","left_color":"lightblue","left_mu":60,"right_mu":68,"left_numbers":[61,61,54,55,52],"right_numbers":[72,85,74,62,81],"points_earned":350,"phase":"task","trial_type":"horizons-task","trial_index":72,"time_elapsed":714388,"internal_node_id":"0.0-68.0","task_version":"0.2"},{"response_times":[521.5650000609457,344.939999980852,483.1700000213459,1136.2249999074265,1266.5900000138208],"keys_pressed":["rightarrow","leftarrow","rightarrow","leftarrow","rightarrow"],"horizon":5,"forced_choices":["rightarrow","leftarrow","rightarrow","leftarrow"],"right_color":"orange","left_color":"lightblue","left_mu":60,"right_mu":68,"left_numbers":[51,54,54,55,72],"right_numbers":[80,83,73,66,71],"points_earned":333,"phase":"task","trial_type":"horizons-task","trial_index":73,"time_elapsed":719645,"internal_node_id":"0.0-69.0","task_version":"0.2"},{"response_times":[807.8449999447912,463.0749999778345,778.5650000441819,971.250000060536,2000.1399999018759,299.53499999828637,234.59000000730157,193.93499998841435,198.16499995067716,197.65500002540648],"keys_pressed":["leftarrow","rightarrow","leftarrow","rightarrow","rightarrow","rightarrow","rightarrow","rightarrow","rightarrow","rightarrow"],"horizon":10,"forced_choices":["leftarrow","rightarrow","leftarrow","rightarrow"],"right_color":"lightblue","left_color":"orange","left_mu":40,"right_mu":44,"left_numbers":[52,50,26,46,38,48,38,29,37,50],"right_numbers":[44,52,47,49,39,50,48,51,53,41],"points_earned":461,"phase":"task","trial_type":"horizons-task","trial_index":74,"time_elapsed":727296,"internal_node_id":"0.0-70.0","task_version":"0.2"},{"response_times":[2914.764999994077,389.39999998547137,460.99000005051494,479.14499999023974,3076.260000001639,539.3550000153482,244.87000005319715,207.92000007349998,236.93999997340143,361.1750000854954],"keys_pressed":["rightarrow","leftarrow","leftarrow","rightarrow","leftarrow","leftarrow","leftarrow","leftarrow","leftarrow","leftarrow"],"horizon":10,"forced_choices":["rightarrow","leftarrow","leftarrow","rightarrow"],"right_color":"lightblue","left_color":"orange","left_mu":40,"right_mu":36,"left_numbers":[33,31,27,46,42,43,47,38,31,53],"right_numbers":[28,44,53,28,39,38,21,33,26,21],"points_earned":368,"phase":"task","trial_type":"horizons-task","trial_index":75,"time_elapsed":737715,"internal_node_id":"0.0-71.0","task_version":"0.2"},{"response_times":[611.2600000342354,521.9550000037998,558.6250000633299,746.089999913238,2987.80500004068],"keys_pressed":["leftarrow","leftarrow","rightarrow","rightarrow","rightarrow"],"horizon":5,"forced_choices":["leftarrow","leftarrow","rightarrow","rightarrow"],"right_color":"orange","left_color":"lightblue","left_mu":40,"right_mu":52,"left_numbers":[42,50,26,41,46],"right_numbers":[65,44,46,52,49],"points_earned":239,"phase":"task","trial_type":"horizons-task","trial_index":76,"time_elapsed":744648,"internal_node_id":"0.0-72.0","task_version":"0.2"},{"response_times":[669.9200000148267,434.9450001027435,3664.439999964088,485.40000000502914,796.4950000168756,1490.870000096038,184.1099999146536,166.53000004589558,162.20000002067536,169.09499990288168],"keys_pressed":["leftarrow","leftarrow","leftarrow","rightarrow","rightarrow","leftarrow","leftarrow","leftarrow","leftarrow","leftarrow"],"horizon":10,"forced_choices":["leftarrow","leftarrow","leftarrow","rightarrow"],"right_color":"lightblue","left_color":"orange","left_mu":60,"right_mu":40,"left_numbers":[58,61,56,66,67,76,62,57,58,56],"right_numbers":[27,39,38,33,46,40,27,37,45,46],"points_earned":563,"phase":"task","trial_type":"horizons-task","trial_index":77,"time_elapsed":754380,"internal_node_id":"0.0-73.0","task_version":"0.2"},{"response_times":[532.9599999822676,474.5099999709055,580.1699999719858,993.1599999545142,1056.899999966845,251.49499997496605,285.42499989271164,253.58000001870096,260.4150000261143,232.5999999884516],"keys_pressed":["leftarrow","leftarrow","rightarrow","rightarrow","rightarrow","rightarrow","rightarrow","rightarrow","rightarrow","rightarrow"],"horizon":10,"forced_choices":["leftarrow","leftarrow","rightarrow","rightarrow"],"right_color":"lightblue","left_color":"orange","left_mu":60,"right_mu":64,"left_numbers":[46,63,75,48,53,61,58,65,59,44],"right_numbers":[65,63,74,53,79,62,57,51,47,65],"points_earned":597,"phase":"task","trial_type":"horizons-task","trial_index":78,"time_elapsed":760807,"internal_node_id":"0.0-74.0","task_version":"0.2"},{"response_times":[512.8000000258908,497.815000009723,796.3049999671057,749.9049999751151,464.5549999549985],"keys_pressed":["rightarrow","rightarrow","leftarrow","leftarrow","rightarrow"],"horizon":5,"forced_choices":["rightarrow","rightarrow","leftarrow","leftarrow"],"right_color":"lightblue","left_color":"orange","left_mu":60,"right_mu":90,"left_numbers":[62,66,58,53,54],"right_numbers":[89,86,79,83,96],"points_earned":382,"phase":"task","trial_type":"horizons-task","trial_index":79,"time_elapsed":765355,"internal_node_id":"0.0-75.0","task_version":"0.2"},{"response_times":[571.4699999662116,529.6249999664724,837.9050000803545,1326.8950000638142,1592.9999999934807,469.1250000614673,232.72000008728355,242.3299999209121,236.11000005621463,334.30999994743615],"keys_pressed":["rightarrow","rightarrow","rightarrow","leftarrow","leftarrow","leftarrow","leftarrow","leftarrow","leftarrow","leftarrow"],"horizon":10,"forced_choices":["rightarrow","rightarrow","rightarrow","leftarrow"],"right_color":"lightblue","left_color":"orange","left_mu":60,"right_mu":48,"left_numbers":[62,54,50,57,54,54,76,60,63,51],"right_numbers":[36,38,46,57,44,45,46,50,44,41],"points_earned":535,"phase":"task","trial_type":"horizons-task","trial_index":80,"time_elapsed":773234,"internal_node_id":"0.0-76.0","task_version":"0.2"},{"response_times":[809.7950000083074,427.87499993573874,538.7349999509752,637.7199999988079,714.9849999696016],"keys_pressed":["rightarrow","leftarrow","leftarrow","rightarrow","rightarrow"],"horizon":5,"forced_choices":["rightarrow","leftarrow","leftarrow","rightarrow"],"right_color":"orange","left_color":"lightblue","left_mu":40,"right_mu":48,"left_numbers":[52,42,37,38,33],"right_numbers":[55,47,39,52,50],"points_earned":236,"phase":"task","trial_type":"horizons-task","trial_index":81,"time_elapsed":777870,"internal_node_id":"0.0-77.0","task_version":"0.2"},{"response_times":[559.6300000324845,407.83500007819384,1088.4099999675527,642.8649999434128,583.98999995552],"keys_pressed":["leftarrow","rightarrow","rightarrow","leftarrow","rightarrow"],"horizon":5,"forced_choices":["leftarrow","rightarrow","rightarrow","leftarrow"],"right_color":"lightblue","left_color":"orange","left_mu":60,"right_mu":72,"left_numbers":[57,62,72,64,56],"right_numbers":[80,77,74,50,68],"points_earned":340,"phase":"task","trial_type":"horizons-task","trial_index":82,"time_elapsed":782657,"internal_node_id":"0.0-78.0","task_version":"0.2"},{"response_times":[609.8950000014156,641.3499999325722,550.3699999535456,1195.5300000263378,785.4300000471994,259.6950000151992,223.07499998714775,223.8650000654161,239.1899999929592,232.64499998185784],"keys_pressed":["rightarrow","rightarrow","leftarrow","leftarrow","rightarrow","rightarrow","rightarrow","rightarrow","rightarrow","rightarrow"],"horizon":10,"forced_choices":["rightarrow","rightarrow","leftarrow","leftarrow"],"right_color":"orange","left_color":"lightblue","left_mu":40,"right_mu":60,"left_numbers":[36,41,23,43,43,33,37,57,39,36],"right_numbers":[51,55,59,62,63,65,58,63,64,61],"points_earned":546,"phase":"task","trial_type":"horizons-task","trial_index":83,"time_elapsed":789123,"internal_node_id":"0.0-79.0","task_version":"0.2"},{"response_times":[571.5949999867007,580.6500000180677,525.3149999771267,484.3949999194592,2441.39500008896,196.00499991793185,174.84999995213002,189.89000003784895,184.95500006247312,185.93999999575317],"keys_pressed":["leftarrow","rightarrow","leftarrow","rightarrow","leftarrow","leftarrow","leftarrow","leftarrow","leftarrow","leftarrow"],"horizon":10,"forced_choices":["leftarrow","rightarrow","leftarrow","rightarrow"],"right_color":"orange","left_color":"lightblue","left_mu":60,"right_mu":56,"left_numbers":[51,54,63,63,58,56,62,75,65,64],"right_numbers":[48,55,52,55,49,64,56,49,67,49],"points_earned":604,"phase":"task","trial_type":"horizons-task","trial_index":84,"time_elapsed":796163,"internal_node_id":"0.0-80.0","task_version":"0.2"},{"response_times":[567.8300000727177,468.95500004757196,486.1500000115484,605.4550000699237,735.7450000708923],"keys_pressed":["rightarrow","rightarrow","leftarrow","rightarrow","rightarrow"],"horizon":5,"forced_choices":["rightarrow","rightarrow","leftarrow","rightarrow"],"right_color":"orange","left_color":"lightblue","left_mu":40,"right_mu":60,"left_numbers":[49,60,53,37,38],"right_numbers":[65,53,57,41,54],"points_earned":266,"phase":"task","trial_type":"horizons-task","trial_index":85,"time_elapsed":800533,"internal_node_id":"0.0-81.0","task_version":"0.2"},{"response_times":[596.055000089109,356.02000006474555,1057.7599999960512,542.7400000626221,856.7000000039116,266.53499994426966,259.3699999852106,236.69000004883856,212.27000001817942,287.0099999709055],"keys_pressed":["leftarrow","rightarrow","rightarrow","leftarrow","rightarrow","rightarrow","rightarrow","rightarrow","rightarrow","rightarrow"],"horizon":10,"forced_choices":["leftarrow","rightarrow","rightarrow","leftarrow"],"right_color":"lightblue","left_color":"orange","left_mu":60,"right_mu":72,"left_numbers":[66,57,58,51,52,53,58,60,62,54],"right_numbers":[81,66,68,73,71,67,76,62,67,57],"points_earned":651,"phase":"task","trial_type":"horizons-task","trial_index":86,"time_elapsed":806724,"internal_node_id":"0.0-82.0","task_version":"0.2"},{"response_times":[713.8300000224262,599.504999932833,566.5750000625849,768.404999980703,694.0650000469759],"keys_pressed":["rightarrow","rightarrow","leftarrow","leftarrow","rightarrow"],"horizon":5,"forced_choices":["rightarrow","rightarrow","leftarrow","leftarrow"],"right_color":"orange","left_color":"lightblue","left_mu":40,"right_mu":60,"left_numbers":[35,44,45,53,39],"right_numbers":[63,61,68,61,57],"points_earned":279,"phase":"task","trial_type":"horizons-task","trial_index":87,"time_elapsed":811573,"internal_node_id":"0.0-83.0","task_version":"0.2"},{"response_times":[724.3549999548122,599.0100000053644,502.6050000451505,718.434999929741,3884.925000020303,475.815000012517,278.9900000207126,426.23499990440905,403.954999987036,291.41000006347895],"keys_pressed":["leftarrow","rightarrow","leftarrow","leftarrow","rightarrow","rightarrow","rightarrow","rightarrow","rightarrow","rightarrow"],"horizon":10,"forced_choices":["leftarrow","rightarrow","leftarrow","leftarrow"],"right_color":"orange","left_color":"lightblue","left_mu":40,"right_mu":48,"left_numbers":[40,36,33,26,30,52,48,28,30,35],"right_numbers":[44,45,49,58,49,50,40,44,38,53],"points_earned":418,"phase":"task","trial_type":"horizons-task","trial_index":88,"time_elapsed":821385,"internal_node_id":"0.0-84.0","task_version":"0.2"},{"response_times":[832.0600000442937,545.9500000579283,514.7100000176579,563.6749999830499,775.715000112541,217.9550000000745,195.8999999333173,208.95999995991588,172.66499996185303,245.6450000172481],"keys_pressed":["leftarrow","leftarrow","rightarrow","rightarrow","rightarrow","rightarrow","rightarrow","rightarrow","rightarrow","rightarrow"],"horizon":10,"forced_choices":["leftarrow","leftarrow","rightarrow","rightarrow"],"right_color":"orange","left_color":"lightblue","left_mu":40,"right_mu":52,"left_numbers":[32,39,45,48,47,50,39,27,41,34],"right_numbers":[54,42,59,63,38,39,42,58,45,55],"points_earned":470,"phase":"task","trial_type":"horizons-task","trial_index":89,"time_elapsed":827164,"internal_node_id":"0.0-85.0","task_version":"0.2"},{"response_times":[552.6799999643117,405.7749999919906,747.8699999628589,545.2049999730662,503.2150000333786],"keys_pressed":["leftarrow","leftarrow","rightarrow","leftarrow","leftarrow"],"horizon":5,"forced_choices":["leftarrow","leftarrow","rightarrow","leftarrow"],"right_color":"lightblue","left_color":"orange","left_mu":60,"right_mu":30,"left_numbers":[67,45,61,60,59],"right_numbers":[24,28,32,17,45],"points_earned":263,"phase":"task","trial_type":"horizons-task","trial_index":90,"time_elapsed":831425,"internal_node_id":"0.0-86.0","task_version":"0.2"},{"response_times":[622.2650000127032,500.00500003807247,531.1699999729171,727.7649999596179,1941.4650000398979],"keys_pressed":["leftarrow","rightarrow","leftarrow","rightarrow","rightarrow"],"horizon":5,"forced_choices":["leftarrow","rightarrow","leftarrow","rightarrow"],"right_color":"lightblue","left_color":"orange","left_mu":40,"right_mu":44,"left_numbers":[34,31,45,50,38],"right_numbers":[39,41,46,43,40],"points_earned":203,"phase":"task","trial_type":"horizons-task","trial_index":91,"time_elapsed":837253,"internal_node_id":"0.0-87.0","task_version":"0.2"},{"rt":14947.105000028387,"responses":{"age":"19","gender-categorical":"Female","gender-free-response":"","ethnicity":"Not Hispanic or Latino","race":["White"],"language":"Yes","fluency":"Very well"},"survey":"demographics","trial_type":"survey-demo","trial_index":92,"time_elapsed":852208,"internal_node_id":"0.0-88.0","task_version":"0.2"},{"rt":15918.309999979101,"responses":{"difficulty":"5","fun":"4","clarity":"5","strategy":"No","feedback":""},"survey":"debrief","trial_type":"survey-debrief","trial_index":93,"time_elapsed":868144,"internal_node_id":"0.0-89.0","task_version":"0.2","interactions":"[]"}]