[{"view_history":"[{\"page_index\":0,\"viewing_time\":1531.439999999975}]","rt":1531.7849999998998,"trial_type":"instructions","trial_index":0,"time_elapsed":1549,"internal_node_id":"0.0-0.0","task_version":"0.2"},{"item_order":[7,15,10,4,1,13,14,12,2,6,0,9,11,3,8,5],"responses":{"Q08":"3","Q16":"5","Q11":"3","Q05":"0","Q02":"0","Q14":"1","Q15":"2","Q13":"1","Q03":"2","Q07":"4","Q01":"2","Q10":"1","Q12":"3","Q04":"2","Q09":"0","Q06":"2"},"radio_events":[4906.745000000001,7749.850000000151,10824.860000000172,12764.1900000001,17354.23500000002,22823.325000000066,28600.08000000016,31237.115000000133,34649.125000000146,40364.690000000104,42769.03500000003,45939.950000000186,49968.2650000002,53193.33000000006,55437.96500000007,59930.375000000146,64296.0300000002,67254.39000000006,68665.30000000012],"key_events":[],"mouse_events":[0.9600000000773434,4906.745000000001,7749.850000000151,9966.265000000021,10824.860000000172,11770.36000000021,12764.1900000001,17354.23500000002,22823.325000000066,28600.08000000016,31237.115000000133,34649.125000000146,40364.690000000104,42769.03500000003,44553.08000000013,45939.950000000186,49968.2650000002,53193.33000000006,55437.96500000007,59930.375000000146,63349.86000000003,64296.0300000002,67254.39000000006,68665.30000000012,69992.07500000011],"rt":69998.17000000007,"survey":"nfc","trial_type":"survey-template","trial_index":1,"time_elapsed":71552,"internal_node_id":"0.0-1.0","task_version":"0.2"},{"item_order":[12,10,14,13,15,3,6,11,0,2,9,1,7,5,16,8,4],"responses":{"Q13":"3","Q11":"3","Q15":"2","Q14":"1","Q16":"3","Q04":"2","Q07":"3","Q12":"3","Q01":"2","Q03":"3","Q10":"4","Q02":"3","Q08":"2","Q06":"3","Q17":"0","Q09":"3","Q05":"3"},"radio_events":[16305.659999999974,17741.109999999928,18486.269999999873,20365.964999999953,21015.324999999837,22402.405000000042,23620.684999999852,30237.705,32546.000000000044,34627.05499999992,39557.12500000003,41333.07999999987,43842.23999999993,47878.84499999994,50080.00500000002,51330.05499999989,57467.89499999999,59339.884999999864,60117.870000000024,62606.899999999994,64265.965000000055,68490.315,70093.68500000006],"key_events":[],"mouse_events":[14561.914999999994,16305.659999999974,16874.544999999896,17741.109999999928,18486.269999999873,20365.964999999953,21015.324999999837,22402.405000000042,23620.684999999852,28730.84999999992,29532.185000000027,30237.705,32546.000000000044,34627.05499999992,38386.46500000004,39557.12500000003,41333.07999999987,43842.23999999993,47878.84499999994,50080.00500000002,51330.05499999989,53126.205000000016,55126.98499999987,56505.644999999946,57467.89499999999,58610.32999999996,59339.884999999864,60117.870000000024,62606.899999999994,64265.965000000055,68490.315,70093.68500000006,70771.65999999989],"rt":70776.155,"survey":"pswq","trial_type":"survey-template","trial_index":2,"time_elapsed":142337,"internal_node_id":"0.0-2.0","task_version":"0.2"},{"item_order":[5,1,0,8,11,7,2,3,10,6,9,12,4],"responses":{"Q06":"2","Q02":"3","Q01":"1","Q09":"1","Q12":"1","Q08":"2","Q03":"0","Q04":"1","Q11":"0","Q07":"0","Q10":"0","Q13":"4","Q05":"0"},"radio_events":[11486.304999999906,13895.464999999822,16784.959999999963,18332.394999999902,19262.739999999903,23419.579999999987,26513.429999999964,27587.215000000026,31294.975000000035,34585.75499999983,36293.544999999984,39673.09,40903.84999999992,42122.259999999864,45847.10999999993,50027.37499999988],"key_events":[],"mouse_events":[10524.404999999882,11486.304999999906,13895.464999999822,16784.959999999963,18332.394999999902,19262.739999999903,23419.579999999987,26513.429999999964,27587.215000000026,29651.89999999985,31294.975000000035,32080.919999999867,34585.75499999983,36293.544999999984,39007.679999999935,39673.09,40903.84999999992,42122.259999999864,44980.84999999992,45847.10999999993,47161.16999999987,49377.209999999875,50027.37499999988,51069.40499999997],"rt":51072.46499999997,"survey":"ius12","trial_type":"survey-template","trial_index":3,"time_elapsed":193418,"internal_node_id":"0.0-3.0","task_version":"0.2"},{"view_history":"[{\"page_index\":0,\"viewing_time\":3079.2799999999115},{\"page_index\":1,\"viewing_time\":3515.679999999964},{\"page_index\":2,\"viewing_time\":6138.944999999949},{\"page_index\":3,\"viewing_time\":4005.1749999999884},{\"page_index\":4,\"viewing_time\":3191.0850000001665},{\"page_index\":5,\"viewing_time\":2934.579999999871},{\"page_index\":6,\"viewing_time\":4034.4750000001513},{\"page_index\":7,\"viewing_time\":4492.634999999835},{\"page_index\":8,\"viewing_time\":3151.1700000001},{\"page_index\":9,\"viewing_time\":5291.23000000004}]","rt":39834.674999999814,"trial_type":"instructions","trial_index":4,"time_elapsed":233258,"internal_node_id":"0.0-4.0-0.0","task_version":"0.2"},{"response_times":[1733.2900000001537,2498.8450000000885,1753.784999999887,2446.1699999999255,1977.9699999999139],"keys_pressed":["rightarrow","leftarrow","rightarrow","rightarrow","leftarrow"],"horizon":5,"forced_choices":["rightarrow","leftarrow","rightarrow","rightarrow"],"right_color":"lightblue","left_color":"orange","left_mu":40,"right_mu":20,"left_numbers":[50,42,36,45,31],"right_numbers":[24,16,18,19,27],"points_earned":134,"phase":"practice","trial_type":"horizons-task","trial_index":5,"time_elapsed":245183,"internal_node_id":"0.0-4.0-1.0","task_version":"0.2"},{"response_times":[1724.5400000001537,1034.810000000085,774.7899999999208,835.1999999999825,2246.804999999993,2158.959999999992,2953.5499999999593,764.8300000000745,725.019999999844,761.7199999999721],"keys_pressed":["leftarrow","leftarrow","rightarrow","rightarrow","rightarrow","rightarrow","rightarrow","leftarrow","rightarrow","rightarrow"],"horizon":10,"forced_choices":["leftarrow","leftarrow","rightarrow","rightarrow"],"right_color":"orange","left_color":"lightblue","left_mu":60,"right_mu":70,"left_numbers":[60,74,58,53,55,62,61,58,67,61],"right_numbers":[57,62,82,60,79,69,61,71,82,57],"points_earned":682,"phase":"practice","trial_type":"horizons-task","trial_index":6,"time_elapsed":260671,"internal_node_id":"0.0-4.0-2.0","task_version":"0.2"},{"view_history":"[{\"page_index\":0,\"viewing_time\":1178.9200000001001},{\"page_index\":1,\"viewing_time\":1817.5749999997788},{\"page_index\":2,\"viewing_time\":2298.6150000001653},{\"page_index\":3,\"viewing_time\":1987.2949999999255}]","rt":7282.764999999956,"trial_type":"instructions","trial_index":7,"time_elapsed":267954,"internal_node_id":"0.0-4.0-3.0","task_version":"0.2"},{"responses":["true","false","true"],"num_errors":0,"rt":8102.630000000063,"trial_type":"horizons-comprehension","trial_index":8,"time_elapsed":276060,"internal_node_id":"0.0-4.0-4.0","task_version":"0.2"},{"trial_type":"call-function","trial_index":9,"time_elapsed":276070,"internal_node_id":"0.0-5.0","task_version":"0.2"},{"view_history":"[{\"page_index\":0,\"viewing_time\":1102.5750000000698},{\"page_index\":1,\"viewing_time\":2395.375000000058}]","rt":3498.3300000000745,"trial_type":"instructions","trial_index":10,"time_elapsed":279569,"internal_node_id":"0.0-6.0","task_version":"0.2"},{"response_times":[964.5800000000745,1473.9700000000303,740.6699999999255,765.2299999999814,2314.734999999928,1140.2050000001327,1730.5849999997881,3523.0700000001816,752.5100000000093,513.9699999999721],"keys_pressed":["leftarrow","leftarrow","leftarrow","rightarrow","leftarrow","leftarrow","leftarrow","leftarrow","leftarrow","leftarrow"],"horizon":10,"forced_choices":["leftarrow","leftarrow","leftarrow","rightarrow"],"right_color":"lightblue","left_color":"orange","left_mu":60,"right_mu":52,"left_numbers":[62,59,51,63,52,65,56,78,64,50],"right_numbers":[38,61,43,43,60,43,48,32,54,59],"points_earned":580,"phase":"task","trial_type":"horizons-task","trial_index":11,"time_elapsed":295001,"internal_node_id":"0.0-7.0","task_version":"0.2"},{"response_times":[1128.490000000049,818.9199999999837,739.4699999999721,512.1549999999115,2202.1350000000093],"keys_pressed":["rightarrow","rightarrow","rightarrow","leftarrow","rightarrow"],"horizon":5,"forced_choices":["rightarrow","rightarrow","rightarrow","leftarrow"],"right_color":"lightblue","left_color":"orange","left_mu":40,"right_mu":60,"left_numbers":[44,50,51,46,49],"right_numbers":[65,61,53,48,50],"points_earned":275,"phase":"task","trial_type":"horizons-task","trial_index":12,"time_elapsed":301909,"internal_node_id":"0.0-8.0","task_version":"0.2"},{"response_times":[624.3050000000512,888.8150000000023,775.0100000000675,1226.9049999999697,1822.8749999998254],"keys_pressed":["leftarrow","rightarrow","leftarrow","leftarrow","leftarrow"],"horizon":5,"forced_choices":["leftarrow","rightarrow","leftarrow","leftarrow"],"right_color":"lightblue","left_color":"orange","left_mu":40,"right_mu":10,"left_numbers":[37,24,33,47,55],"right_numbers":[16,9,9,0,8],"points_earned":181,"phase":"task","trial_type":"horizons-task","trial_index":13,"time_elapsed":308753,"internal_node_id":"0.0-9.0","task_version":"0.2"},{"response_times":[813.0100000000675,1144.3349999999627,707.2999999998137,905.7449999999953,1563.795000000042,818.8750000001746,533.9900000001653,532.7150000000838,492.98500000010245,509.39999999990687],"keys_pressed":["rightarrow","rightarrow","leftarrow","leftarrow","leftarrow","leftarrow","leftarrow","leftarrow","leftarrow","leftarrow"],"horizon":10,"forced_choices":["rightarrow","rightarrow","leftarrow","leftarrow"],"right_color":"lightblue","left_color":"orange","left_mu":40,"right_mu":10,"left_numbers":[30,30,41,26,37,27,42,34,28,48],"right_numbers":[0,2,4,0,11,2,10,3,5,2],"points_earned":285,"phase":"task","trial_type":"horizons-task","trial_index":14,"time_elapsed":318280,"internal_node_id":"0.0-10.0","task_version":"0.2"},{"response_times":[871.3800000000629,882.0900000000256,1285.7650000000722,1122.0400000002119,1221.6149999999325],"keys_pressed":["rightarrow","leftarrow","rightarrow","rightarrow","leftarrow"],"horizon":5,"forced_choices":["rightarrow","leftarrow","rightarrow","rightarrow"],"right_color":"orange","left_color":"lightblue","left_mu":60,"right_mu":56,"left_numbers":[61,62,65,51,58],"right_numbers":[46,62,55,45,47],"points_earned":266,"phase":"task","trial_type":"horizons-task","trial_index":15,"time_elapsed":325170,"internal_node_id":"0.0-11.0","task_version":"0.2"},{"response_times":[970.1650000001537,814.7899999998626,1042.9499999997788,1083.8550000000396,2435.1200000001118,2972.6199999999953,635.7250000000931,456.03000000002794,573.8999999999069,447.93499999988126],"keys_pressed":["rightarrow","rightarrow","leftarrow","leftarrow","rightarrow","rightarrow","rightarrow","rightarrow","rightarrow","rightarrow"],"horizon":10,"forced_choices":["rightarrow","rightarrow","leftarrow","leftarrow"],"right_color":"lightblue","left_color":"orange","left_mu":40,"right_mu":70,"left_numbers":[48,41,38,60,45,45,40,50,41,41],"right_numbers":[54,84,74,69,61,74,80,68,74,70],"points_earned":663,"phase":"task","trial_type":"horizons-task","trial_index":16,"time_elapsed":338109,"internal_node_id":"0.0-12.0","task_version":"0.2"},{"response_times":[595.1700000000419,760.7749999999651,1286.3700000000536,875.6849999999395,1690.6849999999977,2250.8549999999814,643.6899999998859,480.25499999994645,490.8550000000396,504.7950000001001],"keys_pressed":["rightarrow","leftarrow","rightarrow","rightarrow","leftarrow","leftarrow","leftarrow","leftarrow","leftarrow","leftarrow"],"horizon":10,"forced_choices":["rightarrow","leftarrow","rightarrow","rightarrow"],"right_color":"orange","left_color":"lightblue","left_mu":60,"right_mu":56,"left_numbers":[51,73,60,66,58,70,52,53,73,53],"right_numbers":[69,65,57,54,57,63,63,67,55,64],"points_earned":612,"phase":"task","trial_type":"horizons-task","trial_index":17,"time_elapsed":349191,"internal_node_id":"0.0-13.0","task_version":"0.2"},{"response_times":[835.7899999998626,546.7249999999185,2663.2750000001397,1157.5350000000326,836.8500000001513],"keys_pressed":["rightarrow","leftarrow","leftarrow","rightarrow","rightarrow"],"horizon":5,"forced_choices":["rightarrow","leftarrow","leftarrow","rightarrow"],"right_color":"lightblue","left_color":"orange","left_mu":60,"right_mu":72,"left_numbers":[61,59,64,66,49],"right_numbers":[78,79,81,67,68],"points_earned":336,"phase":"task","trial_type":"horizons-task","trial_index":18,"time_elapsed":356737,"internal_node_id":"0.0-14.0","task_version":"0.2"},{"response_times":[591.0000000001164,884.6399999999558,569.4699999999139,640.3649999999907,2457.850000000035,1453.0700000000652,784.7999999999302,485.784999999858,577.0749999998952,444.7050000000745],"keys_pressed":["rightarrow","rightarrow","rightarrow","leftarrow","leftarrow","rightarrow","rightarrow","rightarrow","rightarrow","rightarrow"],"horizon":10,"forced_choices":["rightarrow","rightarrow","rightarrow","leftarrow"],"right_color":"lightblue","left_color":"orange","left_mu":40,"right_mu":60,"left_numbers":[44,28,35,53,30,46,40,34,44,43],"right_numbers":[55,51,55,60,63,59,61,51,72,73],"points_earned":560,"phase":"task","trial_type":"horizons-task","trial_index":19,"time_elapsed":367133,"internal_node_id":"0.0-15.0","task_version":"0.2"},{"response_times":[708.1450000000768,509.054999999993,1275.9400000000023,1172.6849999999977,3352.210000000021,1409.0249999999069,715.1699999999255,460.1000000000349,430.72999999986496,443.0749999998952],"keys_pressed":["leftarrow","rightarrow","leftarrow","rightarrow","rightarrow","rightarrow","rightarrow","rightarrow","rightarrow","rightarrow"],"horizon":10,"forced_choices":["leftarrow","rightarrow","leftarrow","rightarrow"],"right_color":"orange","left_color":"lightblue","left_mu":60,"right_mu":68,"left_numbers":[71,63,63,63,59,70,55,75,71,69],"right_numbers":[70,75,70,66,73,72,78,64,73,80],"points_earned":715,"phase":"task","trial_type":"horizons-task","trial_index":20,"time_elapsed":379115,"internal_node_id":"0.0-16.0","task_version":"0.2"},{"response_times":[685.6449999997858,869.8349999999627,960.1899999998277,895.4350000001723,1180.9450000000652,630.1149999999325,618.6699999998091,698.0000000001164,2053.8499999999767,2243.844999999972],"keys_pressed":["rightarrow","leftarrow","rightarrow","leftarrow","rightarrow","rightarrow","rightarrow","leftarrow","leftarrow","rightarrow"],"horizon":10,"forced_choices":["rightarrow","leftarrow","rightarrow","leftarrow"],"right_color":"lightblue","left_color":"orange","left_mu":40,"right_mu":44,"left_numbers":[33,32,35,42,41,32,52,44,35,27],"right_numbers":[48,49,56,42,49,21,32,58,58,42],"points_earned":401,"phase":"task","trial_type":"horizons-task","trial_index":21,"time_elapsed":391457,"internal_node_id":"0.0-17.0","task_version":"0.2"},{"response_times":[605.2150000000256,592.9450000000652,869.1499999999651,799.5200000000186,4016.1849999999395],"keys_pressed":["rightarrow","leftarrow","leftarrow","leftarrow","rightarrow"],"horizon":5,"forced_choices":["rightarrow","leftarrow","leftarrow","leftarrow"],"right_color":"lightblue","left_color":"orange","left_mu":40,"right_mu":44,"left_numbers":[40,40,45,34,42],"right_numbers":[50,32,43,47,38],"points_earned":207,"phase":"task","trial_type":"horizons-task","trial_index":22,"time_elapsed":399845,"internal_node_id":"0.0-18.0","task_version":"0.2"},{"response_times":[643.3899999999558,846.5949999999721,921.9700000000885,1627.9050000000861,2752.0299999999115,696.6499999998487,464.9749999998603,408.76499999989755,424.1999999998952,482.6799999998184],"keys_pressed":["rightarrow","rightarrow","leftarrow","rightarrow","rightarrow","rightarrow","rightarrow","rightarrow","rightarrow","rightarrow"],"horizon":10,"forced_choices":["rightarrow","rightarrow","leftarrow","rightarrow"],"right_color":"lightblue","left_color":"orange","left_mu":60,"right_mu":72,"left_numbers":[55,62,61,60,58,48,51,46,60,52],"right_numbers":[61,63,69,65,68,75,75,69,60,77],"points_earned":674,"phase":"task","trial_type":"horizons-task","trial_index":23,"time_elapsed":410619,"internal_node_id":"0.0-19.0","task_version":"0.2"},{"response_times":[692.4449999998906,548.7299999999814,1030.484999999986,863.3749999998836,795.4999999999418,2036.3800000000047,454.82500000001164,404.8849999999511,349.7950000001001,373.6149999999325],"keys_pressed":["leftarrow","rightarrow","leftarrow","leftarrow","rightarrow","rightarrow","rightarrow","rightarrow","rightarrow","rightarrow"],"horizon":10,"forced_choices":["leftarrow","rightarrow","leftarrow","leftarrow"],"right_color":"lightblue","left_color":"orange","left_mu":40,"right_mu":70,"left_numbers":[41,39,47,38,43,49,27,34,21,39],"right_numbers":[67,91,69,62,60,76,83,77,72,68],"points_earned":653,"phase":"task","trial_type":"horizons-task","trial_index":24,"time_elapsed":419674,"internal_node_id":"0.0-20.0","task_version":"0.2"},{"response_times":[536.0700000000652,753.7850000000908,818.9649999999092,1252.9199999999255,1449.0549999997602],"keys_pressed":["leftarrow","leftarrow","leftarrow","rightarrow","leftarrow"],"horizon":5,"forced_choices":["leftarrow","leftarrow","leftarrow","rightarrow"],"right_color":"lightblue","left_color":"orange","left_mu":60,"right_mu":52,"left_numbers":[62,67,59,53,56],"right_numbers":[51,51,52,55,45],"points_earned":299,"phase":"task","trial_type":"horizons-task","trial_index":25,"time_elapsed":425990,"internal_node_id":"0.0-21.0","task_version":"0.2"},{"response_times":[570.6549999999697,627.1650000000955,515.0550000001094,683.0500000001048,1838.9050000000861],"keys_pressed":["leftarrow","leftarrow","rightarrow","rightarrow","rightarrow"],"horizon":5,"forced_choices":["leftarrow","leftarrow","rightarrow","rightarrow"],"right_color":"lightblue","left_color":"orange","left_mu":60,"right_mu":90,"left_numbers":[56,73,64,54,69],"right_numbers":[86,102,104,82,82],"points_earned":397,"phase":"task","trial_type":"horizons-task","trial_index":26,"time_elapsed":431731,"internal_node_id":"0.0-22.0","task_version":"0.2"},{"response_times":[614.7000000000698,597.7700000000768,392.16499999997905,744.8449999999139,2327.9300000001676],"keys_pressed":["leftarrow","leftarrow","rightarrow","rightarrow","rightarrow"],"horizon":5,"forced_choices":["leftarrow","leftarrow","rightarrow","rightarrow"],"right_color":"orange","left_color":"lightblue","left_mu":40,"right_mu":48,"left_numbers":[34,45,53,42,37],"right_numbers":[43,46,40,57,42],"points_earned":218,"phase":"task","trial_type":"horizons-task","trial_index":27,"time_elapsed":437913,"internal_node_id":"0.0-23.0","task_version":"0.2"},{"response_times":[533.9750000000931,639.6350000000093,460.97500000020955,414.824999999837,428.33500000007916,3855.6249999998836,562.679999999993,683.25,424.5550000000512,466.10000000009313],"keys_pressed":["rightarrow","leftarrow","leftarrow","leftarrow","rightarrow","rightarrow","rightarrow","rightarrow","rightarrow","rightarrow"],"horizon":10,"forced_choices":["rightarrow","leftarrow","leftarrow","leftarrow"],"right_color":"lightblue","left_color":"orange","left_mu":40,"right_mu":44,"left_numbers":[23,36,38,43,59,62,47,35,30,47],"right_numbers":[53,41,44,35,38,52,48,40,52,22],"points_earned":422,"phase":"task","trial_type":"horizons-task","trial_index":28,"time_elapsed":447887,"internal_node_id":"0.0-24.0","task_version":"0.2"},{"response_times":[598.3949999999604,840.554999999993,1092.3399999999674,765.5,1611.144999999844],"keys_pressed":["leftarrow","rightarrow","leftarrow","rightarrow","rightarrow"],"horizon":5,"forced_choices":["leftarrow","rightarrow","leftarrow","rightarrow"],"right_color":"orange","left_color":"lightblue","left_mu":60,"right_mu":68,"left_numbers":[53,68,66,63,68],"right_numbers":[70,72,81,68,63],"points_earned":322,"phase":"task","trial_type":"horizons-task","trial_index":29,"time_elapsed":454301,"internal_node_id":"0.0-25.0","task_version":"0.2"},{"response_times":[653.6000000000931,581.7250000000349,435.01500000001397,768.9199999999837,1913.3450000001467,1458.580000000191,769.9250000000466,1566.865000000049,1148.674999999872,556.9600000001374],"keys_pressed":["leftarrow","leftarrow","rightarrow","rightarrow","rightarrow","rightarrow","rightarrow","leftarrow","leftarrow","leftarrow"],"horizon":10,"forced_choices":["leftarrow","leftarrow","rightarrow","rightarrow"],"right_color":"orange","left_color":"lightblue","left_mu":40,"right_mu":48,"left_numbers":[32,48,32,49,32,38,46,56,40,36],"right_numbers":[58,30,49,46,46,51,33,63,36,35],"points_earned":437,"phase":"task","trial_type":"horizons-task","trial_index":30,"time_elapsed":465662,"internal_node_id":"0.0-26.0","task_version":"0.2"},{"response_times":[859.604999999865,813.5449999999255,542.0250000001979,676.5649999999441,1202.4400000000023,756.5549999999348,877.3400000000256,692.480000000156,756.5349999999744,482.4100000000908],"keys_pressed":["leftarrow","leftarrow","rightarrow","leftarrow","leftarrow","leftarrow","rightarrow","leftarrow","leftarrow","leftarrow"],"horizon":10,"forced_choices":["leftarrow","leftarrow","rightarrow","leftarrow"],"right_color":"orange","left_color":"lightblue","left_mu":60,"right_mu":30,"left_numbers":[70,64,70,49,65,54,47,64,59,65],"right_numbers":[26,34,48,35,39,19,30,27,27,25],"points_earned":568,"phase":"task","trial_type":"horizons-task","trial_index":31,"time_elapsed":474827,"internal_node_id":"0.0-27.0","task_version":"0.2"},{"response_times":[571.8850000000675,488.72000000003027,721.7199999999721,879.1899999998859,728.9600000001374,583.7849999997998,447.8500000000349,346.0299999999115,405.8100000002305,459.0900000000838],"keys_pressed":["leftarrow","rightarrow","leftarrow","leftarrow","leftarrow","leftarrow","leftarrow","leftarrow","leftarrow","leftarrow"],"horizon":10,"forced_choices":["leftarrow","rightarrow","leftarrow","leftarrow"],"right_color":"lightblue","left_color":"orange","left_mu":40,"right_mu":10,"left_numbers":[19,39,43,44,22,36,45,36,29,38],"right_numbers":[0,1,29,10,0,1,15,20,16,12],"points_earned":313,"phase":"task","trial_type":"horizons-task","trial_index":32,"time_elapsed":481968,"internal_node_id":"0.0-28.0","task_version":"0.2"},{"response_times":[587.6149999999325,687.7649999998976,386.6800000000512,1050.0949999998556,1455.8600000000442],"keys_pressed":["leftarrow","leftarrow","rightarrow","leftarrow","leftarrow"],"horizon":5,"forced_choices":["leftarrow","leftarrow","rightarrow","leftarrow"],"right_color":"orange","left_color":"lightblue","left_mu":60,"right_mu":40,"left_numbers":[66,49,55,68,55],"right_numbers":[35,42,41,36,41],"points_earned":279,"phase":"task","trial_type":"horizons-task","trial_index":33,"time_elapsed":487639,"internal_node_id":"0.0-29.0","task_version":"0.2"},{"response_times":[603.62999999983,398.964999999851,960.2350000000442,711.4249999999884,1263.0800000001327],"keys_pressed":["leftarrow","rightarrow","rightarrow","rightarrow","rightarrow"],"horizon":5,"forced_choices":["leftarrow","rightarrow","rightarrow","rightarrow"],"right_color":"orange","left_color":"lightblue","left_mu":40,"right_mu":48,"left_numbers":[37,35,37,28,39],"right_numbers":[42,39,51,58,52],"points_earned":237,"phase":"task","trial_type":"horizons-task","trial_index":34,"time_elapsed":493084,"internal_node_id":"0.0-30.0","task_version":"0.2"},{"response_times":[460.6499999999651,374.7949999999255,601.859999999986,380.56999999983236,3889.4199999999837,888.8200000001234,440.00499999988824,325.08499999996275,348.7950000001001,524.9000000000815],"keys_pressed":["rightarrow","leftarrow","leftarrow","rightarrow","leftarrow","leftarrow","leftarrow","leftarrow","leftarrow","leftarrow"],"horizon":10,"forced_choices":["rightarrow","leftarrow","leftarrow","rightarrow"],"right_color":"orange","left_color":"lightblue","left_mu":60,"right_mu":56,"left_numbers":[59,59,67,58,74,63,66,51,63,64],"right_numbers":[59,60,55,59,58,73,51,44,49,62],"points_earned":625,"phase":"task","trial_type":"horizons-task","trial_index":35,"time_elapsed":502825,"internal_node_id":"0.0-31.0","task_version":"0.2"},{"response_times":[578.895000000135,441.09499999991385,1081.7899999999208,632.8450000000885,2214.899999999907],"keys_pressed":["rightarrow","leftarrow","leftarrow","leftarrow","rightarrow"],"horizon":5,"forced_choices":["rightarrow","leftarrow","leftarrow","leftarrow"],"right_color":"lightblue","left_color":"orange","left_mu":60,"right_mu":90,"left_numbers":[53,56,55,68,71],"right_numbers":[80,87,90,95,92],"points_earned":351,"phase":"task","trial_type":"horizons-task","trial_index":36,"time_elapsed":509280,"internal_node_id":"0.0-32.0","task_version":"0.2"},{"response_times":[1145.7500000001164,1067.5249999999069,540.7649999999558,909.1550000000861,1476.9149999999208],"keys_pressed":["rightarrow","rightarrow","leftarrow","leftarrow","rightarrow"],"horizon":5,"forced_choices":["rightarrow","rightarrow","leftarrow","leftarrow"],"right_color":"lightblue","left_color":"orange","left_mu":40,"right_mu":70,"left_numbers":[50,35,46,43,33],"right_numbers":[73,73,72,86,69],"points_earned":304,"phase":"task","trial_type":"horizons-task","trial_index":37,"time_elapsed":515927,"internal_node_id":"0.0-33.0","task_version":"0.2"},{"response_times":[532.4749999999767,475.5500000001048,1087.070000000007,599.8950000000768,403.09499999985565,2956.664999999921,2427.9000000000815,357.9149999998044,284.800000000163,339.1199999998789],"keys_pressed":["leftarrow","leftarrow","leftarrow","rightarrow","leftarrow","leftarrow","leftarrow","leftarrow","leftarrow","leftarrow"],"horizon":10,"forced_choices":["leftarrow","leftarrow","leftarrow","rightarrow"],"right_color":"lightblue","left_color":"orange","left_mu":60,"right_mu":48,"left_numbers":[66,44,53,63,49,53,59,54,59,52],"right_numbers":[56,48,44,49,42,49,48,37,52,57],"points_earned":538,"phase":"task","trial_type":"horizons-task","trial_index":38,"time_elapsed":526899,"internal_node_id":"0.0-34.0","task_version":"0.2"},{"response_times":[791.7800000000279,624.3050000000512,1374.1650000000373,770.7749999999069,675.9999999998836],"keys_pressed":["leftarrow","rightarrow","rightarrow","leftarrow","leftarrow"],"horizon":5,"forced_choices":["leftarrow","rightarrow","rightarrow","leftarrow"],"right_color":"orange","left_color":"lightblue","left_mu":60,"right_mu":30,"left_numbers":[66,42,59,68,57],"right_numbers":[31,26,33,27,25],"points_earned":250,"phase":"task","trial_type":"horizons-task","trial_index":39,"time_elapsed":532639,"internal_node_id":"0.0-35.0","task_version":"0.2"},{"response_times":[583.390000000014,493.1199999998789,910.5849999998463,388.42499999981374,857.949999999837],"keys_pressed":["leftarrow","rightarrow","leftarrow","rightarrow","rightarrow"],"horizon":5,"forced_choices":["leftarrow","rightarrow","leftarrow","rightarrow"],"right_color":"lightblue","left_color":"orange","left_mu":40,"right_mu":60,"left_numbers":[40,38,43,34,32],"right_numbers":[71,87,60,67,68],"points_earned":305,"phase":"task","trial_type":"horizons-task","trial_index":40,"time_elapsed":537376,"internal_node_id":"0.0-36.0","task_version":"0.2"},{"response_times":[639.5100000002421,732.0250000000233,723.9950000001118,687.6949999999488,1391.104999999865,856.7299999999814,631.9550000000745,307.10999999998603,219.5899999999674,495.0999999999767],"keys_pressed":["leftarrow","rightarrow","leftarrow","rightarrow","rightarrow","rightarrow","rightarrow","rightarrow","rightarrow","rightarrow"],"horizon":10,"forced_choices":["leftarrow","rightarrow","leftarrow","rightarrow"],"right_color":"orange","left_color":"lightblue","left_mu":40,"right_mu":52,"left_numbers":[33,45,32,41,25,37,47,36,36,43],"right_numbers":[60,58,43,42,57,50,61,59,60,59],"points_earned":511,"phase":"task","trial_type":"horizons-task","trial_index":41,"time_elapsed":545567,"internal_node_id":"0.0-37.0","task_version":"0.2"},{"response_times":[655.6400000001304,521.4549999998417,978.1850000001723,980.7050000001909,1323.7649999997811],"keys_pressed":["rightarrow","leftarrow","rightarrow","rightarrow","leftarrow"],"horizon":5,"forced_choices":["rightarrow","leftarrow","rightarrow","rightarrow"],"right_color":"orange","left_color":"lightblue","left_mu":40,"right_mu":28,"left_numbers":[34,35,31,37,32],"right_numbers":[21,34,24,18,20],"points_earned":130,"phase":"task","trial_type":"horizons-task","trial_index":42,"time_elapsed":551533,"internal_node_id":"0.0-38.0","task_version":"0.2"},{"response_times":[713.5450000001583,570.6599999999162,796.7850000000326,582.1850000000559,893.9799999999814,561.7449999999953,437.1950000000652,294.1799999999348,144.61999999999534,136.00500000000466],"keys_pressed":["rightarrow","rightarrow","rightarrow","leftarrow","leftarrow","leftarrow","leftarrow","leftarrow","leftarrow","leftarrow"],"horizon":10,"forced_choices":["rightarrow","rightarrow","rightarrow","leftarrow"],"right_color":"orange","left_color":"lightblue","left_mu":60,"right_mu":64,"left_numbers":[66,62,44,81,70,70,48,60,39,78],"right_numbers":[62,63,70,75,57,63,61,61,57,65],"points_earned":641,"phase":"task","trial_type":"horizons-task","trial_index":43,"time_elapsed":558170,"internal_node_id":"0.0-39.0","task_version":"0.2"},{"response_times":[665.1649999999208,392.7200000000885,891.1000000000931,459,837.8700000001118],"keys_pressed":["leftarrow","rightarrow","leftarrow","rightarrow","leftarrow"],"horizon":5,"forced_choices":["leftarrow","rightarrow","leftarrow","rightarrow"],"right_color":"orange","left_color":"lightblue","left_mu":40,"right_mu":52,"left_numbers":[40,30,32,27,37],"right_numbers":[51,46,49,48,53],"points_earned":203,"phase":"task","trial_type":"horizons-task","trial_index":44,"time_elapsed":562918,"internal_node_id":"0.0-40.0","task_version":"0.2"},{"response_times":[775.625,580.3149999999441,934.3149999999441,567.5299999997951,1593.5500000000466,2503.265000000014,315.98499999998603,269.9799999999814,259.67500000004657,355.29000000015367],"keys_pressed":["rightarrow","leftarrow","rightarrow","leftarrow","leftarrow","leftarrow","leftarrow","leftarrow","leftarrow","leftarrow"],"horizon":10,"forced_choices":["rightarrow","leftarrow","rightarrow","leftarrow"],"right_color":"orange","left_color":"lightblue","left_mu":40,"right_mu":36,"left_numbers":[54,38,44,48,23,40,56,38,45,44],"right_numbers":[32,22,34,29,29,36,36,27,22,45],"points_earned":398,"phase":"task","trial_type":"horizons-task","trial_index":45,"time_elapsed":572577,"internal_node_id":"0.0-41.0","task_version":"0.2"},{"response_times":[540.8199999999488,431.0800000000745,720.7600000001257,675.8299999999581,419.08500000007916],"keys_pressed":["rightarrow","leftarrow","leftarrow","leftarrow","rightarrow"],"horizon":5,"forced_choices":["rightarrow","leftarrow","leftarrow","leftarrow"],"right_color":"lightblue","left_color":"orange","left_mu":60,"right_mu":80,"left_numbers":[66,59,66,52,44],"right_numbers":[72,76,74,73,85],"points_earned":334,"phase":"task","trial_type":"horizons-task","trial_index":46,"time_elapsed":576873,"internal_node_id":"0.0-42.0","task_version":"0.2"},{"response_times":[606.770000000135,441.5549999998184,997.5050000000047,685.3399999999674,1496.9350000001723],"keys_pressed":["rightarrow","leftarrow","rightarrow","leftarrow","rightarrow"],"horizon":5,"forced_choices":["rightarrow","leftarrow","rightarrow","leftarrow"],"right_color":"lightblue","left_color":"orange","left_mu":40,"right_mu":44,"left_numbers":[21,23,35,44,55],"right_numbers":[36,41,48,44,45],"points_earned":196,"phase":"task","trial_type":"horizons-task","trial_index":47,"time_elapsed":582608,"internal_node_id":"0.0-43.0","task_version":"0.2"},{"response_times":[636.8549999999814,597.8099999999395,488.16500000003725,690.6699999999255,1804.035000000149],"keys_pressed":["leftarrow","leftarrow","leftarrow","rightarrow","leftarrow"],"horizon":5,"forced_choices":["leftarrow","leftarrow","leftarrow","rightarrow"],"right_color":"lightblue","left_color":"orange","left_mu":60,"right_mu":48,"left_numbers":[54,49,64,61,77],"right_numbers":[57,52,47,46,48],"points_earned":290,"phase":"task","trial_type":"horizons-task","trial_index":48,"time_elapsed":588330,"internal_node_id":"0.0-44.0","task_version":"0.2"},{"response_times":[572.2699999999022,439.98999999987427,1073.9249999999302,648.5,868.0350000000326],"keys_pressed":["leftarrow","rightarrow","leftarrow","leftarrow","rightarrow"],"horizon":5,"forced_choices":["leftarrow","rightarrow","leftarrow","leftarrow"],"right_color":"lightblue","left_color":"orange","left_mu":40,"right_mu":70,"left_numbers":[36,47,37,35,41],"right_numbers":[61,75,63,65,63],"points_earned":246,"phase":"task","trial_type":"horizons-task","trial_index":49,"time_elapsed":593437,"internal_node_id":"0.0-45.0","task_version":"0.2"},{"response_times":[671.1949999999488,365.94000000017695,524.9149999999208,463.10000000020955,422.714999999851,2932.8450000000885,370.13000000000466,180.8550000000978,384.85000000020955,134],"keys_pressed":["rightarrow","leftarrow","leftarrow","rightarrow","leftarrow","leftarrow","leftarrow","leftarrow","leftarrow","leftarrow"],"horizon":10,"forced_choices":["rightarrow","leftarrow","leftarrow","rightarrow"],"right_color":"orange","left_color":"lightblue","left_mu":60,"right_mu":40,"left_numbers":[69,63,55,54,69,44,56,57,41,49],"right_numbers":[25,30,46,40,34,38,41,46,39,46],"points_earned":499,"phase":"task","trial_type":"horizons-task","trial_index":50,"time_elapsed":601393,"internal_node_id":"0.0-46.0","task_version":"0.2"},{"view_history":"[{\"page_index\":0,\"viewing_time\":4248.444999999949},{\"page_index\":1,\"viewing_time\":2018.8199999999488}]","rt":6267.849999999977,"trial_type":"instructions","trial_index":51,"time_elapsed":607663,"internal_node_id":"0.0-47.0","task_version":"0.2"},{"response_times":[925.8499999998603,794.2399999999907,643.8649999999907,1113.759999999893,717.7800000000279],"keys_pressed":["rightarrow","leftarrow","leftarrow","rightarrow","leftarrow"],"horizon":5,"forced_choices":["rightarrow","leftarrow","leftarrow","rightarrow"],"right_color":"orange","left_color":"lightblue","left_mu":60,"right_mu":40,"left_numbers":[70,70,66,64,65],"right_numbers":[38,34,31,28,50],"points_earned":267,"phase":"task","trial_type":"horizons-task","trial_index":52,"time_elapsed":613372,"internal_node_id":"0.0-48.0","task_version":"0.2"},{"response_times":[652.0999999999767,822.5649999999441,508.0549999998184,1237.4749999998603,3889.015000000014,572.9400000000605,301.1050000000978,158.86000000010245,147.9949999997625,119.85999999998603],"keys_pressed":["rightarrow","rightarrow","leftarrow","leftarrow","leftarrow","leftarrow","leftarrow","leftarrow","leftarrow","leftarrow"],"horizon":10,"forced_choices":["rightarrow","rightarrow","leftarrow","leftarrow"],"right_color":"lightblue","left_color":"orange","left_mu":60,"right_mu":52,"left_numbers":[55,62,54,64,59,59,54,46,57,44],"right_numbers":[46,60,37,55,59,43,37,62,55,46],"points_earned":543,"phase":"task","trial_type":"horizons-task","trial_index":53,"time_elapsed":623290,"internal_node_id":"0.0-49.0","task_version":"0.2"},{"response_times":[486.37000000011176,397.60000000009313,1265.1949999999488,1045.4150000000373,788.265000000014],"keys_pressed":["leftarrow","leftarrow","rightarrow","leftarrow","leftarrow"],"horizon":5,"forced_choices":["leftarrow","leftarrow","rightarrow","leftarrow"],"right_color":"orange","left_color":"lightblue","left_mu":60,"right_mu":68,"left_numbers":[76,64,47,65,57],"right_numbers":[57,74,49,75,66],"points_earned":311,"phase":"task","trial_type":"horizons-task","trial_index":54,"time_elapsed":628776,"internal_node_id":"0.0-50.0","task_version":"0.2"},{"response_times":[618.4550000000745,436.7050000000745,652.3999999999069,399.5349999999162,2168.9949999999953,702.7000000000698,155.05000000004657,138.86499999987427,145.94499999994878,140.20000000006985],"keys_pressed":["leftarrow","rightarrow","rightarrow","leftarrow","leftarrow","leftarrow","leftarrow","leftarrow","leftarrow","leftarrow"],"horizon":10,"forced_choices":["leftarrow","rightarrow","rightarrow","leftarrow"],"right_color":"lightblue","left_color":"orange","left_mu":40,"right_mu":32,"left_numbers":[39,42,42,53,45,31,62,40,32,54],"right_numbers":[25,30,37,32,28,41,38,54,21,27],"points_earned":423,"phase":"task","trial_type":"horizons-task","trial_index":55,"time_elapsed":635840,"internal_node_id":"0.0-51.0","task_version":"0.2"},{"response_times":[801.5450000000419,597.3850000001257,1427.2499999998836,798.6849999999395,1274.969999999972],"keys_pressed":["rightarrow","rightarrow","rightarrow","leftarrow","rightarrow"],"horizon":5,"forced_choices":["rightarrow","rightarrow","rightarrow","leftarrow"],"right_color":"orange","left_color":"lightblue","left_mu":60,"right_mu":64,"left_numbers":[53,61,65,56,52],"right_numbers":[70,71,62,70,55],"points_earned":314,"phase":"task","trial_type":"horizons-task","trial_index":56,"time_elapsed":642243,"internal_node_id":"0.0-52.0","task_version":"0.2"},{"response_times":[410.10999999998603,489.63000000000466,403.0450000000419,460.85999999998603,1624.3449999998556],"keys_pressed":["leftarrow","leftarrow","rightarrow","leftarrow","leftarrow"],"horizon":5,"forced_choices":["leftarrow","leftarrow","rightarrow","leftarrow"],"right_color":"orange","left_color":"lightblue","left_mu":60,"right_mu":30,"left_numbers":[54,63,63,70,53],"right_numbers":[22,29,26,40,33],"points_earned":266,"phase":"task","trial_type":"horizons-task","trial_index":57,"time_elapsed":647137,"internal_node_id":"0.0-53.0","task_version":"0.2"},{"response_times":[546.75,429.8100000000559,317.05000000004657,363.9000000000233,2300.195000000065],"keys_pressed":["rightarrow","rightarrow","leftarrow","rightarrow","leftarrow"],"horizon":5,"forced_choices":["rightarrow","rightarrow","leftarrow","rightarrow"],"right_color":"lightblue","left_color":"orange","left_mu":40,"right_mu":32,"left_numbers":[38,51,44,42,44],"right_numbers":[27,31,44,24,20],"points_earned":170,"phase":"task","trial_type":"horizons-task","trial_index":58,"time_elapsed":652599,"internal_node_id":"0.0-54.0","task_version":"0.2"},{"response_times":[562.9699999998556,572.7950000000419,770.0750000000698,503.82500000006985,926.3849999998929,908.3700000001118,436.9799999999814,171.89500000013504,165.97500000009313,157.38000000012107],"keys_pressed":["rightarrow","leftarrow","leftarrow","leftarrow","rightarrow","rightarrow","rightarrow","rightarrow","rightarrow","rightarrow"],"horizon":10,"forced_choices":["rightarrow","leftarrow","leftarrow","leftarrow"],"right_color":"lightblue","left_color":"orange","left_mu":60,"right_mu":90,"left_numbers":[54,53,57,67,84,56,61,49,68,63],"right_numbers":[82,93,88,102,99,98,105,92,83,90],"points_earned":826,"phase":"task","trial_type":"horizons-task","trial_index":59,"time_elapsed":659280,"internal_node_id":"0.0-55.0","task_version":"0.2"},{"response_times":[606.4100000000326,647.6600000000326,808.2799999999115,716.5850000001956,944.0400000000373],"keys_pressed":["rightarrow","rightarrow","leftarrow","leftarrow","leftarrow"],"horizon":5,"forced_choices":["rightarrow","rightarrow","leftarrow","leftarrow"],"right_color":"lightblue","left_color":"orange","left_mu":40,"right_mu":10,"left_numbers":[24,33,38,42,52],"right_numbers":[21,16,7,15,2],"points_earned":169,"phase":"task","trial_type":"horizons-task","trial_index":60,"time_elapsed":664511,"internal_node_id":"0.0-56.0","task_version":"0.2"},{"response_times":[476.14500000013504,497.26500000001397,581.9650000000838,488.96999999985565,4409.515000000014,1930.9350000000559,734.3100000000559,433.8199999999488,264.11000000010245,738.8250000000698],"keys_pressed":["rightarrow","leftarrow","leftarrow","rightarrow","leftarrow","rightarrow","rightarrow","rightarrow","rightarrow","rightarrow"],"horizon":10,"forced_choices":["rightarrow","leftarrow","leftarrow","rightarrow"],"right_color":"lightblue","left_color":"orange","left_mu":60,"right_mu":72,"left_numbers":[63,59,76,63,50,79,78,57,54,64],"right_numbers":[81,69,71,58,82,72,73,58,70,68],"points_earned":665,"phase":"task","trial_type":"horizons-task","trial_index":61,"time_elapsed":676572,"internal_node_id":"0.0-57.0","task_version":"0.2"},{"response_times":[624.4699999999721,630.9650000000838,1202.8850000002421,1457.154999999795,895.7499999998836],"keys_pressed":["leftarrow","rightarrow","rightarrow","leftarrow","leftarrow"],"horizon":5,"forced_choices":["leftarrow","rightarrow","rightarrow","leftarrow"],"right_color":"lightblue","left_color":"orange","left_mu":40,"right_mu":32,"left_numbers":[35,55,47,52,43],"right_numbers":[36,35,25,28,32],"points_earned":190,"phase":"task","trial_type":"horizons-task","trial_index":62,"time_elapsed":682889,"internal_node_id":"0.0-58.0","task_version":"0.2"},{"response_times":[530.3550000000978,462.68499999993946,448.13000000000466,554.4950000001118,1199.115000000107,932.0249999997905,805.1800000000512,191.69499999994878,162.11999999999534,140.69499999983236],"keys_pressed":["rightarrow","rightarrow","leftarrow","rightarrow","leftarrow","leftarrow","leftarrow","leftarrow","leftarrow","leftarrow"],"horizon":10,"forced_choices":["rightarrow","rightarrow","leftarrow","rightarrow"],"right_color":"orange","left_color":"lightblue","left_mu":40,"right_mu":20,"left_numbers":[28,46,49,56,26,36,38,34,44,35],"right_numbers":[7,14,23,7,38,40,13,28,23,18],"points_earned":290,"phase":"task","trial_type":"horizons-task","trial_index":63,"time_elapsed":689820,"internal_node_id":"0.0-59.0","task_version":"0.2"},{"response_times":[592.9100000000326,431.7949999999255,911.0650000000605,675.9599999998463,3073.800000000163,1632.8699999999953,788.6900000000605,1391.7850000000326,1777.9800000000978,507.0900000000838],"keys_pressed":["leftarrow","rightarrow","rightarrow","rightarrow","rightarrow","rightarrow","leftarrow","leftarrow","rightarrow","rightarrow"],"horizon":10,"forced_choices":["leftarrow","rightarrow","rightarrow","rightarrow"],"right_color":"orange","left_color":"lightblue","left_mu":40,"right_mu":36,"left_numbers":[41,54,46,59,47,32,27,31,30,34],"right_numbers":[30,44,28,40,39,24,37,22,26,40],"points_earned":340,"phase":"task","trial_type":"horizons-task","trial_index":64,"time_elapsed":703126,"internal_node_id":"0.0-60.0","task_version":"0.2"},{"response_times":[1325.3250000000698,626.890000000014,870.2399999999907,1923.6699999999255,936.7300000000978],"keys_pressed":["leftarrow","rightarrow","rightarrow","rightarrow","leftarrow"],"horizon":5,"forced_choices":["leftarrow","rightarrow","rightarrow","rightarrow"],"right_color":"orange","left_color":"lightblue","left_mu":40,"right_mu":36,"left_numbers":[28,27,45,35,44],"right_numbers":[42,22,23,21,45],"points_earned":138,"phase":"task","trial_type":"horizons-task","trial_index":65,"time_elapsed":710322,"internal_node_id":"0.0-61.0","task_version":"0.2"},{"response_times":[617.2350000001024,662.9849999998696,473.82500000006985,910.0799999999581,1548.005000000121],"keys_pressed":["leftarrow","leftarrow","rightarrow","rightarrow","leftarrow"],"horizon":5,"forced_choices":["leftarrow","leftarrow","rightarrow","rightarrow"],"right_color":"lightblue","left_color":"orange","left_mu":60,"right_mu":48,"left_numbers":[61,64,69,75,47],"right_numbers":[56,33,45,44,25],"points_earned":261,"phase":"task","trial_type":"horizons-task","trial_index":66,"time_elapsed":716045,"internal_node_id":"0.0-62.0","task_version":"0.2"},{"response_times":[499.5000000001164,426.57499999995343,590.8300000000745,509.12999999988824,2476.0349999997998,707.6050000000978,663.2100000001956,413.70000000006985,195.81500000006054,185.125],"keys_pressed":["rightarrow","leftarrow","leftarrow","leftarrow","rightarrow","rightarrow","rightarrow","rightarrow","rightarrow","rightarrow"],"horizon":10,"forced_choices":["rightarrow","leftarrow","leftarrow","leftarrow"],"right_color":"lightblue","left_color":"orange","left_mu":60,"right_mu":80,"left_numbers":[64,59,78,57,71,48,50,60,46,62],"right_numbers":[76,88,73,81,90,77,76,78,68,75],"points_earned":734,"phase":"task","trial_type":"horizons-task","trial_index":67,"time_elapsed":724224,"internal_node_id":"0.0-63.0","task_version":"0.2"},{"response_times":[631.854999999865,485.3499999998603,1071.1449999999022,1025.9399999999441,1885.6949999999488],"keys_pressed":["rightarrow","leftarrow","rightarrow","leftarrow","leftarrow"],"horizon":5,"forced_choices":["rightarrow","leftarrow","rightarrow","leftarrow"],"right_color":"orange","left_color":"lightblue","left_mu":40,"right_mu":36,"left_numbers":[42,39,30,37,26],"right_numbers":[24,51,29,34,30],"points_earned":155,"phase":"task","trial_type":"horizons-task","trial_index":68,"time_elapsed":730833,"internal_node_id":"0.0-64.0","task_version":"0.2"},{"response_times":[563.9149999999208,491.80999999993946,1035.344999999972,491.5549999998184,2496.6299999998882,868.9150000000373,470.160000000149,441.78000000002794,203.10999999998603,167.57999999984168],"keys_pressed":["leftarrow","rightarrow","rightarrow","rightarrow","leftarrow","rightarrow","rightarrow","rightarrow","rightarrow","rightarrow"],"horizon":10,"forced_choices":["leftarrow","rightarrow","rightarrow","rightarrow"],"right_color":"orange","left_color":"lightblue","left_mu":40,"right_mu":48,"left_numbers":[60,38,42,38,27,29,43,38,42,33],"right_numbers":[51,60,40,43,47,43,47,52,48,59],"points_earned":479,"phase":"task","trial_type":"horizons-task","trial_index":69,"time_elapsed":739571,"internal_node_id":"0.0-65.0","task_version":"0.2"},{"response_times":[431.90500000014435,648.9950000001118,488.6899999999441,842.1250000001164,1404.1549999999115,838.4600000001956,362.8800000001211,169.0100000000093,187.98500000010245,165.01500000013039],"keys_pressed":["leftarrow","rightarrow","leftarrow","rightarrow","rightarrow","rightarrow","rightarrow","rightarrow","rightarrow","rightarrow"],"horizon":10,"forced_choices":["leftarrow","rightarrow","leftarrow","rightarrow"],"right_color":"lightblue","left_color":"orange","left_mu":40,"right_mu":60,"left_numbers":[30,37,35,51,52,52,47,46,32,44],"right_numbers":[54,49,59,67,65,63,74,64,54,63],"points_earned":564,"phase":"task","trial_type":"horizons-task","trial_index":70,"time_elapsed":746614,"internal_node_id":"0.0-66.0","task_version":"0.2"},{"response_times":[773.7200000002049,528.9649999999674,456.7249999999767,878.9899999998743,1012.7249999999767],"keys_pressed":["leftarrow","rightarrow","leftarrow","rightarrow","leftarrow"],"horizon":5,"forced_choices":["leftarrow","rightarrow","leftarrow","rightarrow"],"right_color":"orange","left_color":"lightblue","left_mu":40,"right_mu":28,"left_numbers":[38,44,30,43,35],"right_numbers":[13,19,42,21,21],"points_earned":143,"phase":"task","trial_type":"horizons-task","trial_index":71,"time_elapsed":751770,"internal_node_id":"0.0-67.0","task_version":"0.2"},{"response_times":[538.1000000002095,493.72999999986496,441.9350000000559,581.0550000000512,1451.875],"keys_pressed":["rightarrow","rightarrow","leftarrow","rightarrow","leftarrow"],"horizon":5,"forced_choices":["rightarrow","rightarrow","leftarrow","rightarrow"],"right_color":"orange","left_color":"lightblue","left_mu":40,"right_mu":20,"left_numbers":[35,38,49,42,39],"right_numbers":[23,18,31,24,7],"points_earned":153,"phase":"task","trial_type":"horizons-task","trial_index":72,"time_elapsed":756783,"internal_node_id":"0.0-68.0","task_version":"0.2"},{"response_times":[534.9349999999395,395.75,591.1850000000559,331.30999999993946,1404.4299999999348,1148.8699999999953,194.1799999999348,158.60999999998603,135.0099999998929,146.97000000008848],"keys_pressed":["leftarrow","rightarrow","leftarrow","rightarrow","leftarrow","leftarrow","leftarrow","leftarrow","leftarrow","leftarrow"],"horizon":10,"forced_choices":["leftarrow","rightarrow","leftarrow","rightarrow"],"right_color":"orange","left_color":"lightblue","left_mu":40,"right_mu":28,"left_numbers":[41,40,31,51,35,40,38,35,29,41],"right_numbers":[26,28,39,7,28,29,30,26,33,38],"points_earned":325,"phase":"task","trial_type":"horizons-task","trial_index":73,"time_elapsed":763328,"internal_node_id":"0.0-69.0","task_version":"0.2"},{"response_times":[658.0450000000419,351.8650000001071,1587.734999999986,761.9799999999814,575.0950000000885],"keys_pressed":["rightarrow","leftarrow","rightarrow","leftarrow","rightarrow"],"horizon":5,"forced_choices":["rightarrow","leftarrow","rightarrow","leftarrow"],"right_color":"lightblue","left_color":"orange","left_mu":60,"right_mu":80,"left_numbers":[77,49,70,50,67],"right_numbers":[78,75,68,70,83],"points_earned":328,"phase":"task","trial_type":"horizons-task","trial_index":74,"time_elapsed":768768,"internal_node_id":"0.0-70.0","task_version":"0.2"},{"response_times":[798.1550000000279,409.62999999988824,801.1449999999022,3194.569999999949,1837.5050000000047],"keys_pressed":["rightarrow","leftarrow","leftarrow","rightarrow","rightarrow"],"horizon":5,"forced_choices":["rightarrow","leftarrow","leftarrow","rightarrow"],"right_color":"orange","left_color":"lightblue","left_mu":60,"right_mu":56,"left_numbers":[58,52,76,59,48],"right_numbers":[75,50,71,53,51],"points_earned":307,"phase":"task","trial_type":"horizons-task","trial_index":75,"time_elapsed":777313,"internal_node_id":"0.0-71.0","task_version":"0.2"},{"response_times":[453.5450000001583,465.69999999995343,401.1250000001164,362.87999999988824,1399.2249999998603,822.4649999999674,327.8949999999022,153.0199999999022,252.04000000015367,132.91500000003725],"keys_pressed":["leftarrow","leftarrow","rightarrow","leftarrow","leftarrow","leftarrow","leftarrow","leftarrow","leftarrow","leftarrow"],"horizon":10,"forced_choices":["leftarrow","leftarrow","rightarrow","leftarrow"],"right_color":"orange","left_color":"lightblue","left_mu":60,"right_mu":40,"left_numbers":[48,68,60,57,71,55,71,69,56,70],"right_numbers":[44,39,23,32,41,40,40,52,40,30],"points_earned":588,"phase":"task","trial_type":"horizons-task","trial_index":76,"time_elapsed":783589,"internal_node_id":"0.0-72.0","task_version":"0.2"},{"response_times":[634.75,414.964999999851,854.1300000000047,1249.9000000000233,398.78999999992084],"keys_pressed":["rightarrow","leftarrow","leftarrow","rightarrow","leftarrow"],"horizon":5,"forced_choices":["rightarrow","leftarrow","leftarrow","rightarrow"],"right_color":"orange","left_color":"lightblue","left_mu":40,"right_mu":20,"left_numbers":[34,35,50,32,44],"right_numbers":[28,16,19,26,28],"points_earned":183,"phase":"task","trial_type":"horizons-task","trial_index":77,"time_elapsed":788645,"internal_node_id":"0.0-73.0","task_version":"0.2"},{"response_times":[563.0450000001583,413.75000000023283,645.9650000000838,411.07499999995343,410.78000000002794,1717.2350000001024,1428.5,168.97999999986496,172.85999999986961,171.83500000007916],"keys_pressed":["leftarrow","rightarrow","rightarrow","rightarrow","leftarrow","rightarrow","rightarrow","rightarrow","rightarrow","rightarrow"],"horizon":10,"forced_choices":["leftarrow","rightarrow","rightarrow","rightarrow"],"right_color":"orange","left_color":"lightblue","left_mu":40,"right_mu":52,"left_numbers":[40,57,45,31,40,40,29,33,34,44],"right_numbers":[36,59,64,66,46,53,39,49,50,68],"points_earned":528,"phase":"task","trial_type":"horizons-task","trial_index":78,"time_elapsed":796256,"internal_node_id":"0.0-74.0","task_version":"0.2"},{"response_times":[859.6349999997765,555.7899999999208,523.0750000000698,689.875,1627.1100000002189,692.7450000001118,410.8200000000652,179.06499999994412,155.87000000011176,136.9199999999255],"keys_pressed":["leftarrow","rightarrow","rightarrow","leftarrow","leftarrow","leftarrow","leftarrow","leftarrow","leftarrow","leftarrow"],"horizon":10,"forced_choices":["leftarrow","rightarrow","rightarrow","leftarrow"],"right_color":"orange","left_color":"lightblue","left_mu":60,"right_mu":30,"left_numbers":[59,62,68,56,63,58,44,55,67,58],"right_numbers":[22,21,36,26,27,33,35,32,39,30],"points_earned":517,"phase":"task","trial_type":"horizons-task","trial_index":79,"time_elapsed":803594,"internal_node_id":"0.0-75.0","task_version":"0.2"},{"response_times":[549.7999999999302,379.964999999851,996.9699999998556,471.55999999993946,1425.115000000107,495.7700000000186,171.96999999985565,310.17500000004657,150.7600000000093,134.0899999999674],"keys_pressed":["leftarrow","leftarrow","rightarrow","rightarrow","rightarrow","rightarrow","rightarrow","rightarrow","rightarrow","rightarrow"],"horizon":10,"forced_choices":["leftarrow","leftarrow","rightarrow","rightarrow"],"right_color":"lightblue","left_color":"orange","left_mu":60,"right_mu":90,"left_numbers":[57,48,62,53,45,53,57,54,61,58],"right_numbers":[101,83,86,83,78,77,82,101,87,86],"points_earned":785,"phase":"task","trial_type":"horizons-task","trial_index":80,"time_elapsed":810182,"internal_node_id":"0.0-76.0","task_version":"0.2"},{"response_times":[614.234999999986,483.54999999993015,582.5750000000698,488.9800000000978,1462.6899999998277,397.2049999999581,163.8299999999581,271.08500000007916,136.90500000014435,109.96999999997206],"keys_pressed":["rightarrow","leftarrow","rightarrow","rightarrow","leftarrow","leftarrow","leftarrow","leftarrow","leftarrow","leftarrow"],"horizon":10,"forced_choices":["rightarrow","leftarrow","rightarrow","rightarrow"],"right_color":"orange","left_color":"lightblue","left_mu":40,"right_mu":28,"left_numbers":[37,41,30,46,23,33,38,45,56,31],"right_numbers":[18,30,24,16,13,20,35,31,49,37],"points_earned":325,"phase":"task","trial_type":"horizons-task","trial_index":81,"time_elapsed":816400,"internal_node_id":"0.0-77.0","task_version":"0.2"},{"response_times":[549.2700000000186,478.9299999999348,412.7699999999022,574.3050000001676,1498.809999999823,565.75,179.89500000001863,136.0549999999348,141.81000000005588,160],"keys_pressed":["rightarrow","rightarrow","leftarrow","rightarrow","leftarrow","leftarrow","leftarrow","leftarrow","leftarrow","leftarrow"],"horizon":10,"forced_choices":["rightarrow","rightarrow","leftarrow","rightarrow"],"right_color":"lightblue","left_color":"orange","left_mu":40,"right_mu":32,"left_numbers":[48,47,60,45,38,37,56,42,29,21],"right_numbers":[18,29,27,26,25,26,23,26,31,28],"points_earned":356,"phase":"task","trial_type":"horizons-task","trial_index":82,"time_elapsed":822605,"internal_node_id":"0.0-78.0","task_version":"0.2"},{"response_times":[611.7999999999302,921.5600000000559,359.05999999993946,698.6999999999534,2860.0050000000047],"keys_pressed":["rightarrow","rightarrow","leftarrow","leftarrow","leftarrow"],"horizon":5,"forced_choices":["rightarrow","rightarrow","leftarrow","leftarrow"],"right_color":"lightblue","left_color":"orange","left_mu":60,"right_mu":52,"left_numbers":[74,41,57,67,47],"right_numbers":[45,62,69,54,49],"points_earned":278,"phase":"task","trial_type":"horizons-task","trial_index":83,"time_elapsed":829560,"internal_node_id":"0.0-79.0","task_version":"0.2"},{"response_times":[497.37500000023283,574.0549999999348,401.82499999995343,377.12999999988824,1136.7000000000698,1853.125,441.51500000001397,171.12499999976717,166.9299999999348,148.90999999991618],"keys_pressed":["leftarrow","leftarrow","rightarrow","leftarrow","leftarrow","rightarrow","rightarrow","rightarrow","rightarrow","rightarrow"],"horizon":10,"forced_choices":["leftarrow","leftarrow","rightarrow","leftarrow"],"right_color":"orange","left_color":"lightblue","left_mu":60,"right_mu":68,"left_numbers":[63,62,53,66,51,46,66,63,55,56],"right_numbers":[62,74,65,63,82,61,65,55,71,67],"points_earned":626,"phase":"task","trial_type":"horizons-task","trial_index":84,"time_elapsed":836834,"internal_node_id":"0.0-80.0","task_version":"0.2"},{"response_times":[550.7249999997439,469.76500000001397,622.2800000000279,687.734999999986,1119.7950000001583,486.9049999999115,136.0099999998929,156.03499999991618,153.8299999999581,404.5000000001164],"keys_pressed":["rightarrow","leftarrow","leftarrow","rightarrow","leftarrow","leftarrow","leftarrow","leftarrow","leftarrow","leftarrow"],"horizon":10,"forced_choices":["rightarrow","leftarrow","leftarrow","rightarrow"],"right_color":"orange","left_color":"lightblue","left_mu":40,"right_mu":20,"left_numbers":[36,45,34,33,32,15,40,36,29,45],"right_numbers":[18,17,34,15,18,27,29,18,30,16],"points_earned":309,"phase":"task","trial_type":"horizons-task","trial_index":85,"time_elapsed":843129,"internal_node_id":"0.0-81.0","task_version":"0.2"},{"response_times":[608.7300000002142,389.5549999999348,864.2099999999627,838.7400000001071,360.13000000000466],"keys_pressed":["leftarrow","rightarrow","rightarrow","leftarrow","rightarrow"],"horizon":5,"forced_choices":["leftarrow","rightarrow","rightarrow","leftarrow"],"right_color":"orange","left_color":"lightblue","left_mu":60,"right_mu":64,"left_numbers":[64,66,52,67,67],"right_numbers":[51,73,66,73,61],"points_earned":331,"phase":"task","trial_type":"horizons-task","trial_index":86,"time_elapsed":847695,"internal_node_id":"0.0-82.0","task_version":"0.2"},{"response_times":[369.95999999996275,627.7449999997625,654.0050000002375,1182.9750000002095,995.8050000000512,517.9450000000652,219.88000000012107,141.99999999976717,351.8249999997206,227.82499999995343],"keys_pressed":["rightarrow","leftarrow","rightarrow","leftarrow","rightarrow","rightarrow","rightarrow","rightarrow","rightarrow","rightarrow"],"horizon":10,"forced_choices":["rightarrow","leftarrow","rightarrow","leftarrow"],"right_color":"lightblue","left_color":"orange","left_mu":60,"right_mu":80,"left_numbers":[59,68,60,56,58,53,59,61,43,54],"right_numbers":[82,96,71,71,73,96,74,71,84,88],"points_earned":763,"phase":"task","trial_type":"horizons-task","trial_index":87,"time_elapsed":854493,"internal_node_id":"0.0-83.0","task_version":"0.2"},{"response_times":[587.9200000000419,1031.609999999986,583.9250000003958,1083.094999999972,619.0599999999395],"keys_pressed":["rightarrow","rightarrow","leftarrow","rightarrow","rightarrow"],"horizon":5,"forced_choices":["rightarrow","rightarrow","leftarrow","rightarrow"],"right_color":"lightblue","left_color":"orange","left_mu":60,"right_mu":72,"left_numbers":[49,39,72,53,60],"right_numbers":[67,69,85,75,84],"points_earned":367,"phase":"task","trial_type":"horizons-task","trial_index":88,"time_elapsed":859901,"internal_node_id":"0.0-84.0","task_version":"0.2"},{"response_times":[632.4200000003912,499.6249999998836,879.5999999997439,1236.3100000002887,909.729999999865,1953.0199999999022,165.75999999977648,180.09000000031665,179.93500000005588,164.82499999983702],"keys_pressed":["leftarrow","rightarrow","rightarrow","leftarrow","rightarrow","rightarrow","rightarrow","rightarrow","rightarrow","rightarrow"],"horizon":10,"forced_choices":["leftarrow","rightarrow","rightarrow","leftarrow"],"right_color":"orange","left_color":"lightblue","left_mu":60,"right_mu":64,"left_numbers":[54,60,63,67,51,63,64,75,50,55],"right_numbers":[69,76,54,66,64,74,74,70,59,53],"points_earned":645,"phase":"task","trial_type":"horizons-task","trial_index":89,"time_elapsed":868210,"internal_node_id":"0.0-85.0","task_version":"0.2"},{"response_times":[987.4050000003772,520.9300000000512,3608.845000000205,563.8100000000559,293.8800000001211],"keys_pressed":["leftarrow","rightarrow","rightarrow","rightarrow","rightarrow"],"horizon":5,"forced_choices":["leftarrow","rightarrow","rightarrow","rightarrow"],"right_color":"orange","left_color":"lightblue","left_mu":40,"right_mu":52,"left_numbers":[38,35,46,45,46],"right_numbers":[52,51,54,58,47],"points_earned":248,"phase":"task","trial_type":"horizons-task","trial_index":90,"time_elapsed":875694,"internal_node_id":"0.0-86.0","task_version":"0.2"},{"response_times":[506.9450000001816,466.58000000030734,508.8149999997113,607.7950000002747,3406.150000000256,767.734999999986,1667.1100000002189,700.6999999999534,648.964999999851,352.9350000004051],"keys_pressed":["leftarrow","leftarrow","rightarrow","rightarrow","leftarrow","rightarrow","rightarrow","leftarrow","leftarrow","leftarrow"],"horizon":10,"forced_choices":["leftarrow","leftarrow","rightarrow","rightarrow"],"right_color":"lightblue","left_color":"orange","left_mu":60,"right_mu":48,"left_numbers":[56,51,58,53,50,54,63,67,58,65],"right_numbers":[27,47,46,63,38,52,46,53,56,54],"points_earned":554,"phase":"task","trial_type":"horizons-task","trial_index":91,"time_elapsed":886833,"internal_node_id":"0.0-87.0","task_version":"0.2"},{"rt":13291.134999999893,"responses":{"age":"29","gender-categorical":"Female","gender-free-response":"","ethnicity":"Not Hispanic or Latino","race":["White"],"language":"Yes","fluency":"Very well"},"survey":"demographics","trial_type":"survey-demo","trial_index":92,"time_elapsed":900129,"internal_node_id":"0.0-88.0","task_version":"0.2"},{"rt":17221.895000000135,"responses":{"difficulty":"5","fun":"4","clarity":"5","strategy":"no, just logic!","feedback":""},"survey":"debrief","trial_type":"survey-debrief","trial_index":93,"time_elapsed":917362,"internal_node_id":"0.0-89.0","task_version":"0.2","interactions":"[{\"event\":\"blur\",\"trial\":2,\"time\":75473},{\"event\":\"focus\",\"trial\":2,\"time\":78667}]"}]