[{"view_history":"[{\"page_index\":0,\"viewing_time\":19070.08499999938}]","rt":19070.42999999976,"trial_type":"instructions","trial_index":0,"time_elapsed":19078,"internal_node_id":"0.0-0.0","task_version":"0.2"},{"item_order":[4,14,9,0,10,15,3,13,8,6,1,11,7,2,5,12],"responses":{"Q05":"2","Q15":"4","Q10":"4","Q01":"4","Q11":"1","Q16":"5","Q04":"4","Q14":"2","Q09":"4","Q07":"4","Q02":"1","Q12":"4","Q08":"3","Q03":"3","Q06":"3","Q13":"4"},"radio_events":[14480.004999997618,18829.960000002757,20546.91499999899,24084.920000001148,29006.93499999761,32340.77999999863,39173.22499999864,39580.57499999995,40368.73999999807,41149.969999998575,43994.81000000378,48300.69999999978,55568.709999999555,109008.55500000034,115767.80999999755,120325.58499999868,124684.43500000285,128758.19000000047,137222.29499999958,172984.83000000124,176398.26000000176],"key_events":[],"mouse_events":[0.11999999696854502,14480.004999997618,18829.960000002757,19482.12500000227,19795.725000003586,20546.91499999899,22492.160000001604,23167.755000002217,23660.714999998163,24084.920000001148,29006.93499999761,32340.77999999863,39173.22499999864,39580.57499999995,40368.73999999807,41149.969999998575,43994.81000000378,48300.69999999978,55568.709999999555,108615.79499999789,109008.55500000034,115767.80999999755,120325.58499999868,124684.43500000285,128758.19000000047,136382.34999999986,137222.29499999958,172984.83000000124,176398.26000000176,176931.1400000006],"rt":176934.20000000333,"survey":"nfc","trial_type":"survey-template","trial_index":1,"time_elapsed":196016,"internal_node_id":"0.0-1.0","task_version":"0.2"},{"item_order":[9,5,1,10,2,13,16,8,3,12,14,7,4,11,15,6,0],"responses":{"Q10":"3","Q06":"2","Q02":"2","Q11":"0","Q03":"3","Q14":"1","Q17":"0","Q09":"0","Q04":"2","Q13":"2","Q15":"0","Q08":"1","Q05":"0","Q12":"0","Q16":"2","Q07":"0","Q01":"2"},"radio_events":[7812.799999999697,9949.934999996913,13143.684999995457,22768.165000001318,27134.689999998955,31336.640000001353,35190.6650000019,42262.90499999595,44863.62999999983,53235.334999997576,55973.54500000074,59058.41499999951,65554.30499999784,68355.6649999955,71474.255000001,76511.45499999984,82750.37999999768],"key_events":[],"mouse_events":[7812.799999999697,9949.934999996913,13143.684999995457,22315.875000000233,22768.165000001318,26549.529999996594,27134.689999998955,31336.640000001353,35190.6650000019,41805.71500000224,42262.90499999595,44863.62999999983,53235.334999997576,55540.240000002086,55973.54500000074,59058.41499999951,65554.30499999784,68355.6649999955,71474.255000001,76059.24999999843,76511.45499999984,81842.58499999851,82262.62499999575,82750.37999999768,83579.32499999879],"rt":83583.0599999972,"survey":"pswq","trial_type":"survey-template","trial_index":2,"time_elapsed":279603,"internal_node_id":"0.0-2.0","task_version":"0.2"},{"item_order":[4,5,9,8,2,12,11,7,1,10,3,6,0],"responses":{"Q05":"0","Q06":"0","Q10":"0","Q09":"0","Q03":"0","Q13":"4","Q12":"1","Q08":"2","Q02":"1","Q11":"2","Q04":"2","Q07":"1","Q01":"0"},"radio_events":[13743.265000004612,15268.230000001495,16925.62999999791,21991.07499999809,25045.24500000116,28186.305000002903,31440.19500000286,41485.14000000432,45130.99499999953,49292.99000000174,61055.04500000097,66165.69999999774,67726.99999999895,71209.00000000256,75674.7699999978,78399.88000000449,82013.67000000027],"key_events":[],"mouse_events":[13743.265000004612,15268.230000001495,16925.62999999791,21443.285000001197,21991.07499999809,23892.110000000685,24488.884999998845,25045.24500000116,27730.020000002696,28186.305000002903,31440.19500000286,41485.14000000432,45130.99499999953,49292.99000000174,59475.1150000011,60022.74000000034,60582.705000000715,61055.04500000097,66165.69999999774,67726.99999999895,71209.00000000256,75674.7699999978,78399.88000000449,81249.7349999976,82013.67000000027,82874.79999999778],"rt":82877.00000000041,"survey":"ius12","trial_type":"survey-template","trial_index":3,"time_elapsed":362485,"internal_node_id":"0.0-3.0","task_version":"0.2"},{"view_history":"[{\"page_index\":0,\"viewing_time\":4397.210000002815},{\"page_index\":1,\"viewing_time\":9029.21499999502},{\"page_index\":2,\"viewing_time\":11929.950000005192},{\"page_index\":3,\"viewing_time\":10356.694999994943},{\"page_index\":4,\"viewing_time\":6400.2200000031735},{\"page_index\":5,\"viewing_time\":5157.724999997299},{\"page_index\":6,\"viewing_time\":7959.96500000183},{\"page_index\":7,\"viewing_time\":8437.129999998433},{\"page_index\":8,\"viewing_time\":12730.630000005476},{\"page_index\":9,\"viewing_time\":7279.3949999977485}]","rt":83678.40000000433,"trial_type":"instructions","trial_index":4,"time_elapsed":446164,"internal_node_id":"0.0-4.0-0.0","task_version":"0.2"},{"response_times":[35598.24500000104,2264.3449999959557,455.75499999540625,548.9200000010896,2052.974999998696],"keys_pressed":["rightarrow","leftarrow","rightarrow","rightarrow","leftarrow"],"horizon":5,"forced_choices":["rightarrow","leftarrow","rightarrow","rightarrow"],"right_color":"lightblue","left_color":"orange","left_mu":40,"right_mu":20,"left_numbers":[49,51,47,33,36],"right_numbers":[10,27,10,28,10],"points_earned":135,"phase":"practice","trial_type":"horizons-task","trial_index":5,"time_elapsed":488597,"internal_node_id":"0.0-4.0-1.0","task_version":"0.2"},{"response_times":[1420.4199999949196,517.4450000049546,479.2650000017602,477.1850000033737,954.2399999991176,813.0899999960093,977.4849999957951,821.4749999970081,822.8550000058021,761.0750000021653],"keys_pressed":["leftarrow","leftarrow","rightarrow","rightarrow","leftarrow","leftarrow","rightarrow","leftarrow","leftarrow","leftarrow"],"horizon":10,"forced_choices":["leftarrow","leftarrow","rightarrow","rightarrow"],"right_color":"orange","left_color":"lightblue","left_mu":60,"right_mu":70,"left_numbers":[61,57,53,51,65,57,64,74,58,77],"right_numbers":[63,62,74,82,68,58,47,76,67,59],"points_earned":652,"phase":"practice","trial_type":"horizons-task","trial_index":6,"time_elapsed":498149,"internal_node_id":"0.0-4.0-2.0","task_version":"0.2"},{"view_history":"[{\"page_index\":0,\"viewing_time\":2397.7000000013504},{\"page_index\":1,\"viewing_time\":3049.9500000005355},{\"page_index\":2,\"viewing_time\":4001.94499999634},{\"page_index\":3,\"viewing_time\":3065.1500000021188}]","rt":12514.97499999823,"trial_type":"instructions","trial_index":7,"time_elapsed":510665,"internal_node_id":"0.0-4.0-3.0","task_version":"0.2"},{"responses":["true","false","true"],"num_errors":0,"rt":10827.82500000042,"trial_type":"horizons-comprehension","trial_index":8,"time_elapsed":521496,"internal_node_id":"0.0-4.0-4.0","task_version":"0.2"},{"trial_type":"call-function","trial_index":9,"time_elapsed":521499,"internal_node_id":"0.0-5.0","task_version":"0.2"},{"view_history":"[{\"page_index\":0,\"viewing_time\":1602.7400000020862},{\"page_index\":1,\"viewing_time\":4814.2299999963725}]","rt":6417.294999999343,"trial_type":"instructions","trial_index":10,"time_elapsed":527918,"internal_node_id":"0.0-6.0","task_version":"0.2"},{"response_times":[1144.749999999418,437.47499999881256,965.3499999985797,415.7100000011269,681.2799999970011],"keys_pressed":["rightarrow","rightarrow","leftarrow","rightarrow","rightarrow"],"horizon":5,"forced_choices":["rightarrow","rightarrow","leftarrow","rightarrow"],"right_color":"orange","left_color":"lightblue","left_mu":40,"right_mu":48,"left_numbers":[47,41,43,47,32],"right_numbers":[54,41,49,45,52],"points_earned":235,"phase":"task","trial_type":"horizons-task","trial_index":11,"time_elapsed":533071,"internal_node_id":"0.0-7.0","task_version":"0.2"},{"response_times":[856.8949999971082,455.890000004787,407.209999997518,417.59999999345746,710.2050000029849,682.4100000013132,740.5100000032689,743.605000003241,923.510000000475,887.3449999955483],"keys_pressed":["leftarrow","leftarrow","rightarrow","leftarrow","rightarrow","leftarrow","leftarrow","leftarrow","rightarrow","leftarrow"],"horizon":10,"forced_choices":["leftarrow","leftarrow","rightarrow","leftarrow"],"right_color":"orange","left_color":"lightblue","left_mu":40,"right_mu":20,"left_numbers":[42,39,37,41,49,33,30,30,30,44],"right_numbers":[19,22,28,16,28,45,21,24,7,3],"points_earned":322,"phase":"task","trial_type":"horizons-task","trial_index":12,"time_elapsed":541400,"internal_node_id":"0.0-8.0","task_version":"0.2"},{"response_times":[758.7950000015553,458.12499999732245,813.6499999964144,427.5950000009034,577.0649999976158,488.6899999983143,488.7349999989383,517.8899999954738,527.655000005383,447.26000000094064],"keys_pressed":["leftarrow","rightarrow","leftarrow","rightarrow","rightarrow","rightarrow","rightarrow","rightarrow","rightarrow","rightarrow"],"horizon":10,"forced_choices":["leftarrow","rightarrow","leftarrow","rightarrow"],"right_color":"orange","left_color":"lightblue","left_mu":40,"right_mu":48,"left_numbers":[33,45,28,28,35,34,34,47,30,48],"right_numbers":[46,54,43,65,63,40,41,50,41,53],"points_earned":468,"phase":"task","trial_type":"horizons-task","trial_index":13,"time_elapsed":548415,"internal_node_id":"0.0-9.0","task_version":"0.2"},{"response_times":[821.055000000284,526.9850000040606,456.87500000349246,641.414999998291,1016.4399999994785],"keys_pressed":["leftarrow","rightarrow","leftarrow","rightarrow","rightarrow"],"horizon":5,"forced_choices":["leftarrow","rightarrow","leftarrow","rightarrow"],"right_color":"orange","left_color":"lightblue","left_mu":40,"right_mu":60,"left_numbers":[39,47,45,40,31],"right_numbers":[67,71,68,67,48],"points_earned":270,"phase":"task","trial_type":"horizons-task","trial_index":14,"time_elapsed":553381,"internal_node_id":"0.0-10.0","task_version":"0.2"},{"response_times":[720.3450000014855,528.5650000006426,456.9950000005774,405.83000000333413,387.31999999436084],"keys_pressed":["rightarrow","leftarrow","rightarrow","leftarrow","rightarrow"],"horizon":5,"forced_choices":["rightarrow","leftarrow","rightarrow","leftarrow"],"right_color":"lightblue","left_color":"orange","left_mu":60,"right_mu":52,"left_numbers":[65,64,43,55,47],"right_numbers":[66,57,61,55,66],"points_earned":312,"phase":"task","trial_type":"horizons-task","trial_index":15,"time_elapsed":557385,"internal_node_id":"0.0-11.0","task_version":"0.2"},{"response_times":[608.8050000035437,416.35500000126194,467.29499999491964,488.6250000053551,974.2849999966566,641.3249999969266,1058.0100000007078,628.100000001723,527.8550000003306,456.9249999986496],"keys_pressed":["leftarrow","leftarrow","leftarrow","rightarrow","leftarrow","rightarrow","leftarrow","leftarrow","leftarrow","leftarrow"],"horizon":10,"forced_choices":["leftarrow","leftarrow","leftarrow","rightarrow"],"right_color":"lightblue","left_color":"orange","left_mu":40,"right_mu":36,"left_numbers":[46,37,36,30,36,43,34,44,46,31],"right_numbers":[45,44,47,39,29,29,32,36,36,41],"points_earned":378,"phase":"task","trial_type":"horizons-task","trial_index":16,"time_elapsed":565157,"internal_node_id":"0.0-12.0","task_version":"0.2"},{"response_times":[683.4549999984447,772.6949999995995,528.4949999987148,1169.5850000033388,801.7150000014808],"keys_pressed":["leftarrow","rightarrow","rightarrow","leftarrow","rightarrow"],"horizon":5,"forced_choices":["leftarrow","rightarrow","rightarrow","leftarrow"],"right_color":"orange","left_color":"lightblue","left_mu":60,"right_mu":64,"left_numbers":[62,56,49,66,68],"right_numbers":[56,58,57,45,74],"points_earned":317,"phase":"task","trial_type":"horizons-task","trial_index":17,"time_elapsed":570616,"internal_node_id":"0.0-13.0","task_version":"0.2"},{"response_times":[681.6749999998137,395.8249999996042,468.01000000420026,395.9499999983236,631.005000002915],"keys_pressed":["leftarrow","rightarrow","rightarrow","rightarrow","rightarrow"],"horizon":5,"forced_choices":["leftarrow","rightarrow","rightarrow","rightarrow"],"right_color":"lightblue","left_color":"orange","left_mu":60,"right_mu":68,"left_numbers":[81,50,58,68,65],"right_numbers":[64,53,53,68,55],"points_earned":310,"phase":"task","trial_type":"horizons-task","trial_index":18,"time_elapsed":574691,"internal_node_id":"0.0-14.0","task_version":"0.2"},{"response_times":[528.4499999979744,435.6499999994412,365.570000001695,540.7950000008568,465.7749999969965],"keys_pressed":["leftarrow","rightarrow","rightarrow","leftarrow","rightarrow"],"horizon":5,"forced_choices":["leftarrow","rightarrow","rightarrow","leftarrow"],"right_color":"lightblue","left_color":"orange","left_mu":60,"right_mu":56,"left_numbers":[55,61,75,58,67],"right_numbers":[47,58,39,53,54],"points_earned":264,"phase":"task","trial_type":"horizons-task","trial_index":19,"time_elapsed":578531,"internal_node_id":"0.0-15.0","task_version":"0.2"},{"response_times":[598.5950000032317,447.7550000010524,509.00499999988824,579.004999999539,1209.8599999954458],"keys_pressed":["rightarrow","leftarrow","rightarrow","leftarrow","leftarrow"],"horizon":5,"forced_choices":["rightarrow","leftarrow","rightarrow","leftarrow"],"right_color":"lightblue","left_color":"orange","left_mu":60,"right_mu":30,"left_numbers":[72,49,54,66,55],"right_numbers":[41,6,23,22,24],"points_earned":234,"phase":"task","trial_type":"horizons-task","trial_index":20,"time_elapsed":583380,"internal_node_id":"0.0-16.0","task_version":"0.2"},{"response_times":[579.2050000017043,539.7200000006706,435.70999999786727,589.7549999936018,457.435000004014],"keys_pressed":["leftarrow","leftarrow","leftarrow","rightarrow","leftarrow"],"horizon":5,"forced_choices":["leftarrow","leftarrow","leftarrow","rightarrow"],"right_color":"lightblue","left_color":"orange","left_mu":40,"right_mu":28,"left_numbers":[46,44,48,39,48],"right_numbers":[30,14,11,28,31],"points_earned":214,"phase":"task","trial_type":"horizons-task","trial_index":21,"time_elapsed":587485,"internal_node_id":"0.0-17.0","task_version":"0.2"},{"response_times":[648.0850000006612,397.0599999957485,507.695000000298,376.5250000070082,599.7399999978952],"keys_pressed":["leftarrow","rightarrow","rightarrow","rightarrow","rightarrow"],"horizon":5,"forced_choices":["leftarrow","rightarrow","rightarrow","rightarrow"],"right_color":"orange","left_color":"lightblue","left_mu":40,"right_mu":60,"left_numbers":[39,38,48,39,43],"right_numbers":[58,68,44,57,39],"points_earned":247,"phase":"task","trial_type":"horizons-task","trial_index":22,"time_elapsed":591520,"internal_node_id":"0.0-18.0","task_version":"0.2"},{"response_times":[608.3199999993667,651.9100000003818,495.7649999996647,509.6049999992829,537.9400000019232],"keys_pressed":["leftarrow","rightarrow","leftarrow","leftarrow","rightarrow"],"horizon":5,"forced_choices":["leftarrow","rightarrow","leftarrow","leftarrow"],"right_color":"orange","left_color":"lightblue","left_mu":60,"right_mu":80,"left_numbers":[53,62,51,63,56],"right_numbers":[76,72,82,83,83],"points_earned":322,"phase":"task","trial_type":"horizons-task","trial_index":23,"time_elapsed":595829,"internal_node_id":"0.0-19.0","task_version":"0.2"},{"response_times":[504.6749999965541,397.92499999748543,485.89499999792315,629.480000003241,824.7300000003306],"keys_pressed":["rightarrow","rightarrow","leftarrow","leftarrow","leftarrow"],"horizon":5,"forced_choices":["rightarrow","rightarrow","leftarrow","leftarrow"],"right_color":"orange","left_color":"lightblue","left_mu":40,"right_mu":10,"left_numbers":[46,29,34,31,50],"right_numbers":[5,4,28,17,25],"points_earned":124,"phase":"task","trial_type":"horizons-task","trial_index":24,"time_elapsed":600177,"internal_node_id":"0.0-20.0","task_version":"0.2"},{"response_times":[536.8700000036042,508.2750000001397,416.5350000039907,508.5499999986496,670.1850000027334],"keys_pressed":["leftarrow","rightarrow","leftarrow","rightarrow","rightarrow"],"horizon":5,"forced_choices":["leftarrow","rightarrow","leftarrow","rightarrow"],"right_color":"lightblue","left_color":"orange","left_mu":40,"right_mu":36,"left_numbers":[39,40,34,45,63],"right_numbers":[38,37,37,28,31],"points_earned":169,"phase":"task","trial_type":"horizons-task","trial_index":25,"time_elapsed":604321,"internal_node_id":"0.0-21.0","task_version":"0.2"},{"response_times":[1960.3449999995064,447.3900000011781,366.26000000245403,415.08500000066124,732.4599999992643,478.36000000103377,434.9800000054529,479.670000000624,404.08499999460764,415.9399999990128],"keys_pressed":["leftarrow","rightarrow","rightarrow","leftarrow","leftarrow","leftarrow","leftarrow","leftarrow","leftarrow","leftarrow"],"horizon":10,"forced_choices":["leftarrow","rightarrow","rightarrow","leftarrow"],"right_color":"lightblue","left_color":"orange","left_mu":60,"right_mu":68,"left_numbers":[53,63,67,66,61,65,58,52,57,67],"right_numbers":[61,86,60,56,66,66,78,62,64,68],"points_earned":625,"phase":"task","trial_type":"horizons-task","trial_index":26,"time_elapsed":611960,"internal_node_id":"0.0-22.0","task_version":"0.2"},{"response_times":[703.9900000017369,475.72000000230037,570.180000002496,729.039999998291,823.9400000020396,791.9350000009872,517.7200000034645,570.8549999981187,526.5799999978626,406.2649999978021],"keys_pressed":["rightarrow","leftarrow","rightarrow","leftarrow","leftarrow","leftarrow","rightarrow","leftarrow","leftarrow","leftarrow"],"horizon":10,"forced_choices":["rightarrow","leftarrow","rightarrow","leftarrow"],"right_color":"lightblue","left_color":"orange","left_mu":60,"right_mu":30,"left_numbers":[45,61,56,58,55,67,63,65,48,59],"right_numbers":[38,34,30,31,31,24,28,38,30,45],"points_earned":509,"phase":"task","trial_type":"horizons-task","trial_index":27,"time_elapsed":619581,"internal_node_id":"0.0-23.0","task_version":"0.2"},{"response_times":[531.4999999973224,620.2450000054669,505.9099999999162,458.85999999870546,609.2199999983422],"keys_pressed":["rightarrow","rightarrow","leftarrow","leftarrow","rightarrow"],"horizon":5,"forced_choices":["rightarrow","rightarrow","leftarrow","leftarrow"],"right_color":"orange","left_color":"lightblue","left_mu":40,"right_mu":44,"left_numbers":[41,44,27,55,52],"right_numbers":[49,53,55,40,50],"points_earned":234,"phase":"task","trial_type":"horizons-task","trial_index":28,"time_elapsed":623810,"internal_node_id":"0.0-24.0","task_version":"0.2"},{"response_times":[986.3750000003492,424.78499999572523,589.5000000018626,924.3750000023283,660.0699999980861],"keys_pressed":["leftarrow","rightarrow","leftarrow","rightarrow","leftarrow"],"horizon":5,"forced_choices":["leftarrow","rightarrow","leftarrow","rightarrow"],"right_color":"lightblue","left_color":"orange","left_mu":40,"right_mu":28,"left_numbers":[41,45,48,54,39],"right_numbers":[33,34,36,33,37],"points_earned":195,"phase":"task","trial_type":"horizons-task","trial_index":29,"time_elapsed":628899,"internal_node_id":"0.0-25.0","task_version":"0.2"},{"response_times":[589.8049999959767,385.6049999957904,598.6699999994598,407.1650000042282,507.4300000051735],"keys_pressed":["rightarrow","leftarrow","rightarrow","rightarrow","leftarrow"],"horizon":5,"forced_choices":["rightarrow","leftarrow","rightarrow","rightarrow"],"right_color":"lightblue","left_color":"orange","left_mu":60,"right_mu":48,"left_numbers":[64,47,50,52,39],"right_numbers":[46,40,41,49,51],"points_earned":222,"phase":"task","trial_type":"horizons-task","trial_index":30,"time_elapsed":632891,"internal_node_id":"0.0-26.0","task_version":"0.2"},{"response_times":[689.1000000032363,489.0349999986356,505.9899999977788,926.2950000046985,404.8449999974109,385.7099999949569,335.27499999757856,355.9449999957578,284.6099999950966,384.5699999947101],"keys_pressed":["rightarrow","rightarrow","leftarrow","rightarrow","leftarrow","leftarrow","leftarrow","leftarrow","leftarrow","leftarrow"],"horizon":10,"forced_choices":["rightarrow","rightarrow","leftarrow","rightarrow"],"right_color":"orange","left_color":"lightblue","left_mu":40,"right_mu":10,"left_numbers":[51,34,53,48,35,46,34,49,37,39],"right_numbers":[15,10,8,12,12,19,14,4,11,11],"points_earned":330,"phase":"task","trial_type":"horizons-task","trial_index":31,"time_elapsed":639158,"internal_node_id":"0.0-27.0","task_version":"0.2"},{"response_times":[610.3099999963306,416.25500000372995,466.47500000102445,560.0300000004936,557.2549999996554,408.5049999994226,384.2450000011595,385.4349999965634,396.0099999967497,752.7850000041071],"keys_pressed":["leftarrow","rightarrow","rightarrow","rightarrow","rightarrow","rightarrow","rightarrow","rightarrow","rightarrow","rightarrow"],"horizon":10,"forced_choices":["leftarrow","rightarrow","rightarrow","rightarrow"],"right_color":"lightblue","left_color":"orange","left_mu":60,"right_mu":68,"left_numbers":[42,63,59,46,54,58,50,45,62,57],"right_numbers":[73,84,58,71,88,66,61,61,66,63],"points_earned":660,"phase":"task","trial_type":"horizons-task","trial_index":32,"time_elapsed":645600,"internal_node_id":"0.0-28.0","task_version":"0.2"},{"response_times":[577.9400000029709,547.5900000019465,427.57500000146683,609.6150000012713,1898.649999995483,508.50000000349246,354.60500000044703,213.79999999771826,568.8550000051036,761.7699999973411],"keys_pressed":["leftarrow","rightarrow","rightarrow","leftarrow","leftarrow","leftarrow","leftarrow","leftarrow","rightarrow","rightarrow"],"horizon":10,"forced_choices":["leftarrow","rightarrow","rightarrow","leftarrow"],"right_color":"orange","left_color":"lightblue","left_mu":60,"right_mu":64,"left_numbers":[53,76,62,56,60,59,59,59,64,32],"right_numbers":[71,59,66,67,66,64,61,84,73,56],"points_earned":600,"phase":"task","trial_type":"horizons-task","trial_index":33,"time_elapsed":653574,"internal_node_id":"0.0-29.0","task_version":"0.2"},{"response_times":[608.1950000006473,466.56999999680556,834.0649999955203,487.21999999543186,669.5849999960046,456.58499999996275,558.7800000066636,570.2349999992875,611.5150000040885,414.99499999918044],"keys_pressed":["rightarrow","rightarrow","leftarrow","rightarrow","rightarrow","leftarrow","rightarrow","rightarrow","rightarrow","leftarrow"],"horizon":10,"forced_choices":["rightarrow","rightarrow","leftarrow","rightarrow"],"right_color":"orange","left_color":"lightblue","left_mu":60,"right_mu":72,"left_numbers":[77,69,51,67,65,56,57,60,54,58],"right_numbers":[74,64,69,70,72,74,74,63,74,70],"points_earned":656,"phase":"task","trial_type":"horizons-task","trial_index":34,"time_elapsed":660757,"internal_node_id":"0.0-30.0","task_version":"0.2"},{"response_times":[600.0700000005309,395.08500000380445,427.1749999971362,548.1500000022352,713.1699999953853],"keys_pressed":["leftarrow","rightarrow","rightarrow","rightarrow","rightarrow"],"horizon":5,"forced_choices":["leftarrow","rightarrow","rightarrow","rightarrow"],"right_color":"orange","left_color":"lightblue","left_mu":40,"right_mu":32,"left_numbers":[43,53,27,40,40],"right_numbers":[24,30,37,36,52],"points_earned":198,"phase":"task","trial_type":"horizons-task","trial_index":35,"time_elapsed":664943,"internal_node_id":"0.0-31.0","task_version":"0.2"},{"response_times":[497.25000000034925,417.1799999966752,455.3749999976717,417.9299999959767,1686.874999999418],"keys_pressed":["leftarrow","rightarrow","leftarrow","rightarrow","rightarrow"],"horizon":5,"forced_choices":["leftarrow","rightarrow","leftarrow","rightarrow"],"right_color":"orange","left_color":"lightblue","left_mu":40,"right_mu":48,"left_numbers":[37,39,34,41,41],"right_numbers":[37,34,47,42,49],"points_earned":196,"phase":"task","trial_type":"horizons-task","trial_index":36,"time_elapsed":669922,"internal_node_id":"0.0-32.0","task_version":"0.2"},{"response_times":[589.0600000057602,376.8449999989243,384.75499999918975,914.5550000029616,1167.6749999970198,671.8849999960512,425.50000000488944,1128.0400000031805,446.4049999951385,720.5800000010058],"keys_pressed":["leftarrow","rightarrow","rightarrow","leftarrow","leftarrow","leftarrow","rightarrow","rightarrow","rightarrow","rightarrow"],"horizon":10,"forced_choices":["leftarrow","rightarrow","rightarrow","leftarrow"],"right_color":"lightblue","left_color":"orange","left_mu":60,"right_mu":56,"left_numbers":[60,64,51,67,65,59,58,73,56,56],"right_numbers":[55,57,52,55,43,52,62,65,55,57],"points_earned":599,"phase":"task","trial_type":"horizons-task","trial_index":37,"time_elapsed":678252,"internal_node_id":"0.0-33.0","task_version":"0.2"},{"response_times":[684.6149999983609,415.4950000011595,508.5599999947008,496.8650000010384,691.9649999982212,459.45499999658205,423.3699999967357,274.59499999531545,264.3049999970244,569.0800000012387],"keys_pressed":["leftarrow","rightarrow","leftarrow","leftarrow","rightarrow","leftarrow","leftarrow","leftarrow","leftarrow","leftarrow"],"horizon":10,"forced_choices":["leftarrow","rightarrow","leftarrow","leftarrow"],"right_color":"lightblue","left_color":"orange","left_mu":60,"right_mu":30,"left_numbers":[63,67,63,73,55,69,74,58,58,52],"right_numbers":[19,30,50,26,26,26,25,25,48,21],"points_earned":566,"phase":"task","trial_type":"horizons-task","trial_index":38,"time_elapsed":684549,"internal_node_id":"0.0-34.0","task_version":"0.2"},{"response_times":[965.7000000006519,436.37500000488944,954.8399999985704,527.3250000027474,833.3100000018021],"keys_pressed":["rightarrow","leftarrow","leftarrow","leftarrow","leftarrow"],"horizon":5,"forced_choices":["rightarrow","leftarrow","leftarrow","leftarrow"],"right_color":"lightblue","left_color":"orange","left_mu":60,"right_mu":56,"left_numbers":[55,42,69,44,58],"right_numbers":[58,54,55,71,62],"points_earned":271,"phase":"task","trial_type":"horizons-task","trial_index":39,"time_elapsed":689770,"internal_node_id":"0.0-35.0","task_version":"0.2"},{"response_times":[629.460000003688,396.05999999912456,436.099999998929,365.57499999622814,661.4649999975227],"keys_pressed":["rightarrow","rightarrow","leftarrow","rightarrow","rightarrow"],"horizon":5,"forced_choices":["rightarrow","rightarrow","leftarrow","rightarrow"],"right_color":"orange","left_color":"lightblue","left_mu":60,"right_mu":72,"left_numbers":[66,53,54,65,46],"right_numbers":[85,72,65,74,74],"points_earned":359,"phase":"task","trial_type":"horizons-task","trial_index":40,"time_elapsed":693762,"internal_node_id":"0.0-36.0","task_version":"0.2"},{"response_times":[629.1500000006054,386.40500000468455,496.6050000002142,528.5850000000792,273.56000000145286],"keys_pressed":["rightarrow","rightarrow","rightarrow","leftarrow","rightarrow"],"horizon":5,"forced_choices":["rightarrow","rightarrow","rightarrow","leftarrow"],"right_color":"orange","left_color":"lightblue","left_mu":60,"right_mu":64,"left_numbers":[56,64,49,57,56],"right_numbers":[71,66,69,58,66],"points_earned":329,"phase":"task","trial_type":"horizons-task","trial_index":41,"time_elapsed":697581,"internal_node_id":"0.0-37.0","task_version":"0.2"},{"response_times":[558.0499999996973,487.5850000026403,528.5050000019837,354.5300000042189,447.7249999981141,649.120000001858,387.8850000037346,211.64000000129454,396.36500000057276,782.2000000014668],"keys_pressed":["rightarrow","leftarrow","leftarrow","leftarrow","rightarrow","leftarrow","leftarrow","leftarrow","rightarrow","rightarrow"],"horizon":10,"forced_choices":["rightarrow","leftarrow","leftarrow","leftarrow"],"right_color":"lightblue","left_color":"orange","left_mu":60,"right_mu":56,"left_numbers":[56,64,71,55,39,63,42,53,57,75],"right_numbers":[66,51,45,54,58,36,46,58,55,52],"points_earned":579,"phase":"task","trial_type":"horizons-task","trial_index":42,"time_elapsed":703887,"internal_node_id":"0.0-38.0","task_version":"0.2"},{"response_times":[702.0600000031991,508.91499999840744,577.3550000012619,346.6049999988172,649.9300000069197],"keys_pressed":["leftarrow","leftarrow","rightarrow","leftarrow","leftarrow"],"horizon":5,"forced_choices":["leftarrow","leftarrow","rightarrow","leftarrow"],"right_color":"lightblue","left_color":"orange","left_mu":60,"right_mu":52,"left_numbers":[66,60,57,66,61],"right_numbers":[50,51,36,57,66],"points_earned":289,"phase":"task","trial_type":"horizons-task","trial_index":43,"time_elapsed":708175,"internal_node_id":"0.0-39.0","task_version":"0.2"},{"response_times":[527.7599999972153,387.07000000437256,467.4700000032317,427.1850000004051,526.8050000013318],"keys_pressed":["rightarrow","leftarrow","leftarrow","rightarrow","leftarrow"],"horizon":5,"forced_choices":["rightarrow","leftarrow","leftarrow","rightarrow"],"right_color":"lightblue","left_color":"orange","left_mu":60,"right_mu":48,"left_numbers":[69,42,61,68,60],"right_numbers":[58,43,40,49,52],"points_earned":270,"phase":"task","trial_type":"horizons-task","trial_index":44,"time_elapsed":712014,"internal_node_id":"0.0-40.0","task_version":"0.2"},{"response_times":[559.8549999995157,416.5849999990314,304.904999997234,507.4099999984028,1352.1699999982957,496.18000000191387,802.9250000036554,528.5999999977648,365.5949999957811,670.8550000039395],"keys_pressed":["rightarrow","rightarrow","rightarrow","leftarrow","leftarrow","rightarrow","rightarrow","leftarrow","leftarrow","leftarrow"],"horizon":10,"forced_choices":["rightarrow","rightarrow","rightarrow","leftarrow"],"right_color":"orange","left_color":"lightblue","left_mu":60,"right_mu":64,"left_numbers":[74,65,50,68,70,51,59,69,62,72],"right_numbers":[60,73,71,63,55,66,51,62,56,62],"points_earned":662,"phase":"task","trial_type":"horizons-task","trial_index":45,"time_elapsed":719523,"internal_node_id":"0.0-41.0","task_version":"0.2"},{"response_times":[463.27000000025146,426.77000000549015,528.0649999986636,771.615000005113,548.769999993965,407.1799999945797,294.37000000313856,212.6600000046892,202.25999999826308,152.15500000340398],"keys_pressed":["rightarrow","leftarrow","leftarrow","rightarrow","leftarrow","leftarrow","leftarrow","leftarrow","leftarrow","leftarrow"],"horizon":10,"forced_choices":["rightarrow","leftarrow","leftarrow","rightarrow"],"right_color":"orange","left_color":"lightblue","left_mu":40,"right_mu":20,"left_numbers":[27,28,40,52,41,38,39,35,38,35],"right_numbers":[18,20,17,15,33,18,20,4,13,29],"points_earned":327,"phase":"task","trial_type":"horizons-task","trial_index":46,"time_elapsed":725036,"internal_node_id":"0.0-42.0","task_version":"0.2"},{"response_times":[494.78000000084285,539.5250000001397,659.2900000031805,600.5850000000792,1725.1200000027893,751.1349999986123,305.26499999535736,620.1950000032084,394.7150000021793,254.0149999987334],"keys_pressed":["leftarrow","leftarrow","rightarrow","rightarrow","rightarrow","rightarrow","leftarrow","rightarrow","rightarrow","rightarrow"],"horizon":10,"forced_choices":["leftarrow","leftarrow","rightarrow","rightarrow"],"right_color":"lightblue","left_color":"orange","left_mu":40,"right_mu":52,"left_numbers":[37,54,42,32,36,35,30,26,26,40],"right_numbers":[33,56,44,49,57,61,65,46,43,55],"points_earned":476,"phase":"task","trial_type":"horizons-task","trial_index":47,"time_elapsed":732887,"internal_node_id":"0.0-43.0","task_version":"0.2"},{"response_times":[570.2999999993481,394.82000000134576,457.63499999884516,893.7049999949522,518.029999999213],"keys_pressed":["rightarrow","leftarrow","leftarrow","rightarrow","leftarrow"],"horizon":5,"forced_choices":["rightarrow","leftarrow","leftarrow","rightarrow"],"right_color":"orange","left_color":"lightblue","left_mu":60,"right_mu":40,"left_numbers":[59,68,53,70,62],"right_numbers":[40,43,34,26,41],"points_earned":249,"phase":"task","trial_type":"horizons-task","trial_index":48,"time_elapsed":737225,"internal_node_id":"0.0-44.0","task_version":"0.2"},{"response_times":[550.0150000007125,424.6500000008382,955.9850000004517,445.4100000002654,701.744999998482,578.1799999967916,284.4949999998789,243.0099999983795,223.02499999920838,193.24000000057276],"keys_pressed":["rightarrow","rightarrow","leftarrow","rightarrow","leftarrow","rightarrow","rightarrow","rightarrow","rightarrow","rightarrow"],"horizon":10,"forced_choices":["rightarrow","rightarrow","leftarrow","rightarrow"],"right_color":"orange","left_color":"lightblue","left_mu":40,"right_mu":48,"left_numbers":[42,41,43,35,39,31,37,30,54,28],"right_numbers":[52,51,53,47,30,43,50,38,33,52],"points_earned":448,"phase":"task","trial_type":"horizons-task","trial_index":49,"time_elapsed":743328,"internal_node_id":"0.0-45.0","task_version":"0.2"},{"response_times":[860.7449999981327,467.9699999978766,1106.7850000036415,519.65999999817,2527.8199999956414,600.244999994291,1076.7500000001164,518.4299999964423,841.6700000016717,488.21500000485685],"keys_pressed":["leftarrow","rightarrow","leftarrow","rightarrow","rightarrow","leftarrow","leftarrow","leftarrow","leftarrow","leftarrow"],"horizon":10,"forced_choices":["leftarrow","rightarrow","leftarrow","rightarrow"],"right_color":"lightblue","left_color":"orange","left_mu":40,"right_mu":36,"left_numbers":[44,47,39,54,35,44,50,41,40,31],"right_numbers":[52,35,37,52,27,50,36,45,47,18],"points_earned":403,"phase":"task","trial_type":"horizons-task","trial_index":50,"time_elapsed":753841,"internal_node_id":"0.0-46.0","task_version":"0.2"},{"view_history":"[{\"page_index\":0,\"viewing_time\":2844.089999998687},{\"page_index\":1,\"viewing_time\":2257.780000000028}]","rt":5102.2050000028685,"trial_type":"instructions","trial_index":51,"time_elapsed":758945,"internal_node_id":"0.0-47.0","task_version":"0.2"},{"response_times":[1098.940000003553,436.8999999933876,436.665000001085,435.7749999980442,619.960000003688],"keys_pressed":["rightarrow","leftarrow","leftarrow","leftarrow","leftarrow"],"horizon":5,"forced_choices":["rightarrow","leftarrow","leftarrow","leftarrow"],"right_color":"orange","left_color":"lightblue","left_mu":40,"right_mu":44,"left_numbers":[41,43,36,36,41],"right_numbers":[48,44,37,38,33],"points_earned":204,"phase":"task","trial_type":"horizons-task","trial_index":52,"time_elapsed":763480,"internal_node_id":"0.0-48.0","task_version":"0.2"},{"response_times":[728.8249999983236,467.59000000020023,436.37999999918975,437.17499999911524,539.154999998631,841.870000003837,466.3150000051828,337.47500000032596,546.4749999956694,752.1449999986216],"keys_pressed":["leftarrow","leftarrow","rightarrow","rightarrow","leftarrow","rightarrow","leftarrow","leftarrow","rightarrow","rightarrow"],"horizon":10,"forced_choices":["leftarrow","leftarrow","rightarrow","rightarrow"],"right_color":"orange","left_color":"lightblue","left_mu":40,"right_mu":32,"left_numbers":[45,50,36,23,47,30,42,39,35,38],"right_numbers":[29,31,35,35,35,28,27,24,43,45],"points_earned":409,"phase":"task","trial_type":"horizons-task","trial_index":53,"time_elapsed":770540,"internal_node_id":"0.0-49.0","task_version":"0.2"},{"response_times":[801.5650000015739,650.9300000034273,506.2649999962887,467.50500000058673,548.3699999968521,629.724999998929,579.6249999983702,740.400000002468,631.090000002645,1084.834999994142],"keys_pressed":["leftarrow","leftarrow","rightarrow","leftarrow","leftarrow","rightarrow","rightarrow","leftarrow","leftarrow","rightarrow"],"horizon":10,"forced_choices":["leftarrow","leftarrow","rightarrow","leftarrow"],"right_color":"lightblue","left_color":"orange","left_mu":60,"right_mu":52,"left_numbers":[62,56,50,60,51,54,56,63,39,63],"right_numbers":[60,48,63,65,53,55,44,55,50,47],"points_earned":540,"phase":"task","trial_type":"horizons-task","trial_index":54,"time_elapsed":778684,"internal_node_id":"0.0-50.0","task_version":"0.2"},{"response_times":[598.2000000003027,386.4099999992177,741.6349999984959,469.70000000146683,984.3499999986961],"keys_pressed":["leftarrow","leftarrow","rightarrow","leftarrow","leftarrow"],"horizon":5,"forced_choices":["leftarrow","leftarrow","rightarrow","leftarrow"],"right_color":"orange","left_color":"lightblue","left_mu":40,"right_mu":20,"left_numbers":[25,43,42,46,36],"right_numbers":[17,11,23,22,32],"points_earned":173,"phase":"task","trial_type":"horizons-task","trial_index":55,"time_elapsed":783368,"internal_node_id":"0.0-51.0","task_version":"0.2"},{"response_times":[568.1050000056857,435.810000002617,540.5299999983981,455.8099999993574,476.7500000016298,721.3600000032457,516.8499999999767,1016.6599999938626,791.6399999959394,385.57000000588596],"keys_pressed":["leftarrow","leftarrow","rightarrow","leftarrow","leftarrow","rightarrow","leftarrow","rightarrow","leftarrow","leftarrow"],"horizon":10,"forced_choices":["leftarrow","leftarrow","rightarrow","leftarrow"],"right_color":"orange","left_color":"lightblue","left_mu":60,"right_mu":40,"left_numbers":[62,64,55,66,44,63,65,55,57,48],"right_numbers":[24,33,17,52,34,52,36,32,36,51],"points_earned":507,"phase":"task","trial_type":"horizons-task","trial_index":56,"time_elapsed":790783,"internal_node_id":"0.0-52.0","task_version":"0.2"},{"response_times":[447.94499999983236,455.9049999951385,528.5149999982677,610.2850000024773,435.72000000136904,425.55500000168104,427.26000000408385,345.05499999807216,488.120000001858,527.4949999947567],"keys_pressed":["rightarrow","rightarrow","rightarrow","leftarrow","rightarrow","rightarrow","rightarrow","rightarrow","rightarrow","rightarrow"],"horizon":10,"forced_choices":["rightarrow","rightarrow","rightarrow","leftarrow"],"right_color":"lightblue","left_color":"orange","left_mu":40,"right_mu":70,"left_numbers":[42,36,36,39,47,24,30,32,36,41],"right_numbers":[66,73,67,91,82,75,53,65,74,72],"points_earned":666,"phase":"task","trial_type":"horizons-task","trial_index":57,"time_elapsed":796977,"internal_node_id":"0.0-53.0","task_version":"0.2"},{"response_times":[984.6499999985099,822.4750000007916,407.2299999971874,1004.829999997979,446.06499999645166,680.4499999999534,436.94500000134576,396.0549999974901,579.5799999977462,488.9049999983981],"keys_pressed":["rightarrow","rightarrow","leftarrow","leftarrow","rightarrow","leftarrow","leftarrow","rightarrow","leftarrow","leftarrow"],"horizon":10,"forced_choices":["rightarrow","rightarrow","leftarrow","leftarrow"],"right_color":"orange","left_color":"lightblue","left_mu":40,"right_mu":10,"left_numbers":[49,36,33,30,44,34,36,44,33,49],"right_numbers":[11,0,5,12,0,18,14,14,18,0],"points_earned":240,"phase":"task","trial_type":"horizons-task","trial_index":58,"time_elapsed":804727,"internal_node_id":"0.0-54.0","task_version":"0.2"},{"response_times":[610.2200000023004,418.3499999999767,343.65499999700114,465.7200000002049,508.14500000700355,649.989999998128,507.1349999997765,487.3749999969732,488.4849999945145,302.6949999984354],"keys_pressed":["leftarrow","rightarrow","leftarrow","rightarrow","rightarrow","rightarrow","leftarrow","rightarrow","rightarrow","rightarrow"],"horizon":10,"forced_choices":["leftarrow","rightarrow","leftarrow","rightarrow"],"right_color":"orange","left_color":"lightblue","left_mu":40,"right_mu":60,"left_numbers":[52,28,42,31,43,50,40,46,36,45],"right_numbers":[64,67,51,58,48,50,80,55,71,44],"points_earned":527,"phase":"task","trial_type":"horizons-task","trial_index":59,"time_elapsed":811012,"internal_node_id":"0.0-55.0","task_version":"0.2"},{"response_times":[841.0749999965774,488.12999999779277,538.5850000020582,375.57500000542495,639.6100000056904],"keys_pressed":["rightarrow","leftarrow","leftarrow","rightarrow","rightarrow"],"horizon":5,"forced_choices":["rightarrow","leftarrow","leftarrow","rightarrow"],"right_color":"lightblue","left_color":"orange","left_mu":60,"right_mu":90,"left_numbers":[47,68,51,59,63],"right_numbers":[80,81,97,85,88],"points_earned":372,"phase":"task","trial_type":"horizons-task","trial_index":60,"time_elapsed":815399,"internal_node_id":"0.0-56.0","task_version":"0.2"},{"response_times":[691.9300000008661,436.67999999877065,445.1249999983702,610.8150000000605,1342.3900000052527],"keys_pressed":["rightarrow","rightarrow","leftarrow","leftarrow","rightarrow"],"horizon":5,"forced_choices":["rightarrow","rightarrow","leftarrow","leftarrow"],"right_color":"orange","left_color":"lightblue","left_mu":60,"right_mu":72,"left_numbers":[57,58,53,59,71],"right_numbers":[79,66,67,56,79],"points_earned":336,"phase":"task","trial_type":"horizons-task","trial_index":61,"time_elapsed":820428,"internal_node_id":"0.0-57.0","task_version":"0.2"},{"response_times":[584.669999996433,416.38999999850057,407.4499999987893,507.3449999981094,446.1200000005774],"keys_pressed":["leftarrow","rightarrow","rightarrow","leftarrow","rightarrow"],"horizon":5,"forced_choices":["leftarrow","rightarrow","rightarrow","leftarrow"],"right_color":"lightblue","left_color":"orange","left_mu":60,"right_mu":68,"left_numbers":[63,52,53,67,56],"right_numbers":[71,61,75,62,52],"points_earned":318,"phase":"task","trial_type":"horizons-task","trial_index":62,"time_elapsed":824296,"internal_node_id":"0.0-58.0","task_version":"0.2"},{"response_times":[558.3049999987707,1096.5950000026496,387.1099999959115,627.9799999975367,580.305000003078,597.6450000016484,517.7750000003725,467.7999999986496,355.14499999408145,314.1050000048708],"keys_pressed":["rightarrow","leftarrow","rightarrow","rightarrow","rightarrow","leftarrow","rightarrow","rightarrow","rightarrow","rightarrow"],"horizon":10,"forced_choices":["rightarrow","leftarrow","rightarrow","rightarrow"],"right_color":"lightblue","left_color":"orange","left_mu":60,"right_mu":90,"left_numbers":[50,64,64,59,56,71,83,68,57,73],"right_numbers":[105,80,74,76,93,80,100,81,80,79],"points_earned":823,"phase":"task","trial_type":"horizons-task","trial_index":63,"time_elapsed":831302,"internal_node_id":"0.0-59.0","task_version":"0.2"},{"response_times":[546.829999999376,863.5100000029197,517.4200000036508,1402.1749999956228,1775.874999999418,527.3099999976112,691.53499999817,375.46499999728985,344.4149999995716,205.47500000242144],"keys_pressed":["rightarrow","leftarrow","leftarrow","leftarrow","leftarrow","rightarrow","rightarrow","rightarrow","rightarrow","rightarrow"],"horizon":10,"forced_choices":["rightarrow","leftarrow","leftarrow","leftarrow"],"right_color":"lightblue","left_color":"orange","left_mu":40,"right_mu":52,"left_numbers":[47,40,42,43,38,45,44,50,28,41],"right_numbers":[40,51,51,53,41,65,42,48,59,63],"points_earned":480,"phase":"task","trial_type":"horizons-task","trial_index":64,"time_elapsed":840057,"internal_node_id":"0.0-60.0","task_version":"0.2"},{"response_times":[548.4299999952782,495.88999999838416,548.8849999965169,842.1050000034738,1381.2350000006845,427.1500000031665,588.414999998291,364.95499999728054,193.58000000659376,133.34999999648426],"keys_pressed":["leftarrow","rightarrow","leftarrow","rightarrow","leftarrow","rightarrow","leftarrow","leftarrow","leftarrow","leftarrow"],"horizon":10,"forced_choices":["leftarrow","rightarrow","leftarrow","rightarrow"],"right_color":"lightblue","left_color":"orange","left_mu":40,"right_mu":28,"left_numbers":[37,32,42,36,27,39,42,33,22,45],"right_numbers":[23,18,27,34,14,17,34,30,20,17],"points_earned":317,"phase":"task","trial_type":"horizons-task","trial_index":65,"time_elapsed":847085,"internal_node_id":"0.0-61.0","task_version":"0.2"},{"response_times":[608.9349999965634,415.70499999949243,508.07999999960884,416.3249999983236,661.1399999966379],"keys_pressed":["leftarrow","leftarrow","rightarrow","leftarrow","leftarrow"],"horizon":5,"forced_choices":["leftarrow","leftarrow","rightarrow","leftarrow"],"right_color":"orange","left_color":"lightblue","left_mu":60,"right_mu":40,"left_numbers":[65,54,50,62,60],"right_numbers":[41,42,29,28,35],"points_earned":270,"phase":"task","trial_type":"horizons-task","trial_index":66,"time_elapsed":851199,"internal_node_id":"0.0-62.0","task_version":"0.2"},{"response_times":[494.1599999947939,496.615000003716,487.9849999997532,192.15499999700114,324.9199999989942,822.0849999998463,742.6649999979418,709.0600000011036,256.2600000019884,414.81000000215136],"keys_pressed":["rightarrow","leftarrow","leftarrow","leftarrow","leftarrow","rightarrow","leftarrow","leftarrow","leftarrow","rightarrow"],"horizon":10,"forced_choices":["rightarrow","leftarrow","leftarrow","leftarrow"],"right_color":"orange","left_color":"lightblue","left_mu":40,"right_mu":44,"left_numbers":[36,51,33,40,41,40,53,37,37,42],"right_numbers":[36,45,34,27,49,48,45,35,26,40],"points_earned":416,"phase":"task","trial_type":"horizons-task","trial_index":67,"time_elapsed":857645,"internal_node_id":"0.0-63.0","task_version":"0.2"},{"response_times":[589.3999999971129,434.49499999405816,396.84500000288244,436.6550000049174,640.0400000057416,812.565000000177,598.2599999988452,548.714999997057,355.38500000257045,639.7399999987101],"keys_pressed":["leftarrow","leftarrow","leftarrow","rightarrow","leftarrow","rightarrow","leftarrow","leftarrow","rightarrow","leftarrow"],"horizon":10,"forced_choices":["leftarrow","leftarrow","leftarrow","rightarrow"],"right_color":"lightblue","left_color":"orange","left_mu":40,"right_mu":28,"left_numbers":[34,37,33,39,34,32,25,38,38,26],"right_numbers":[22,24,18,33,35,30,24,17,21,25],"points_earned":311,"phase":"task","trial_type":"horizons-task","trial_index":68,"time_elapsed":864604,"internal_node_id":"0.0-64.0","task_version":"0.2"},{"response_times":[529.1450000004843,588.9249999963213,426.0550000035437,711.5200000044424,457.4449999999488],"keys_pressed":["leftarrow","leftarrow","rightarrow","rightarrow","leftarrow"],"horizon":5,"forced_choices":["leftarrow","leftarrow","rightarrow","rightarrow"],"right_color":"orange","left_color":"lightblue","left_mu":40,"right_mu":32,"left_numbers":[36,32,32,42,46],"right_numbers":[37,22,36,40,31],"points_earned":190,"phase":"task","trial_type":"horizons-task","trial_index":69,"time_elapsed":868819,"internal_node_id":"0.0-65.0","task_version":"0.2"},{"response_times":[527.9950000039535,476.6749999980675,498.2250000030035,425.0700000047218,1108.8900000031572],"keys_pressed":["rightarrow","leftarrow","leftarrow","leftarrow","leftarrow"],"horizon":5,"forced_choices":["rightarrow","leftarrow","leftarrow","leftarrow"],"right_color":"lightblue","left_color":"orange","left_mu":40,"right_mu":52,"left_numbers":[33,51,26,42,30],"right_numbers":[58,48,47,43,57],"points_earned":207,"phase":"task","trial_type":"horizons-task","trial_index":70,"time_elapsed":873358,"internal_node_id":"0.0-66.0","task_version":"0.2"},{"response_times":[557.3000000002794,445.6149999968475,590.5649999986636,566.3399999975227,528.7150000003166],"keys_pressed":["rightarrow","rightarrow","leftarrow","rightarrow","leftarrow"],"horizon":5,"forced_choices":["rightarrow","rightarrow","leftarrow","rightarrow"],"right_color":"orange","left_color":"lightblue","left_mu":40,"right_mu":10,"left_numbers":[53,45,36,38,43],"right_numbers":[17,3,18,19,1],"points_earned":118,"phase":"task","trial_type":"horizons-task","trial_index":71,"time_elapsed":877552,"internal_node_id":"0.0-67.0","task_version":"0.2"},{"response_times":[820.1450000051409,529.6799999995856,425.10999999649357,589.4150000021327,345.9650000005495],"keys_pressed":["rightarrow","rightarrow","rightarrow","leftarrow","rightarrow"],"horizon":5,"forced_choices":["rightarrow","rightarrow","rightarrow","leftarrow"],"right_color":"lightblue","left_color":"orange","left_mu":40,"right_mu":70,"left_numbers":[31,57,45,37,35],"right_numbers":[69,68,58,63,86],"points_earned":318,"phase":"task","trial_type":"horizons-task","trial_index":72,"time_elapsed":881766,"internal_node_id":"0.0-68.0","task_version":"0.2"},{"response_times":[605.6199999948731,436.054999998305,386.8700000020908,731.1699999991106,761.6049999997485,629.4049999996787,365.3100000011036,242.93999999645166,408.20499999972526,364.5200000028126],"keys_pressed":["rightarrow","leftarrow","rightarrow","leftarrow","rightarrow","rightarrow","rightarrow","rightarrow","rightarrow","rightarrow"],"horizon":10,"forced_choices":["rightarrow","leftarrow","rightarrow","leftarrow"],"right_color":"orange","left_color":"lightblue","left_mu":60,"right_mu":80,"left_numbers":[69,60,67,68,59,76,51,57,72,66],"right_numbers":[72,81,100,77,85,78,79,80,76,96],"points_earned":794,"phase":"task","trial_type":"horizons-task","trial_index":73,"time_elapsed":888204,"internal_node_id":"0.0-69.0","task_version":"0.2"},{"response_times":[557.2150000006659,418.16999999724794,557.2949999987613,630.3299999999581,364.4899999999907,700.3849999964004,446.68499999539927,244.33999999740627,365.9200000037672,355.2350000026636],"keys_pressed":["rightarrow","rightarrow","leftarrow","leftarrow","rightarrow","rightarrow","rightarrow","rightarrow","rightarrow","rightarrow"],"horizon":10,"forced_choices":["rightarrow","rightarrow","leftarrow","leftarrow"],"right_color":"orange","left_color":"lightblue","left_mu":60,"right_mu":72,"left_numbers":[71,68,55,66,57,50,59,76,61,55],"right_numbers":[66,62,79,72,79,76,82,77,75,62],"points_earned":700,"phase":"task","trial_type":"horizons-task","trial_index":74,"time_elapsed":894348,"internal_node_id":"0.0-70.0","task_version":"0.2"},{"response_times":[782.7150000011316,588.1799999987707,539.5349999963073,425.0049999973271,872.2649999980349],"keys_pressed":["leftarrow","leftarrow","leftarrow","rightarrow","leftarrow"],"horizon":5,"forced_choices":["leftarrow","leftarrow","leftarrow","rightarrow"],"right_color":"lightblue","left_color":"orange","left_mu":40,"right_mu":36,"left_numbers":[41,29,28,24,33],"right_numbers":[33,45,37,18,32],"points_earned":149,"phase":"task","trial_type":"horizons-task","trial_index":75,"time_elapsed":899058,"internal_node_id":"0.0-71.0","task_version":"0.2"},{"response_times":[670.3950000010664,529.1900000011083,434.6750000040047,488.48500000161584,629.1200000050012],"keys_pressed":["leftarrow","leftarrow","rightarrow","rightarrow","leftarrow"],"horizon":5,"forced_choices":["leftarrow","leftarrow","rightarrow","rightarrow"],"right_color":"lightblue","left_color":"orange","left_mu":40,"right_mu":52,"left_numbers":[43,39,38,35,49],"right_numbers":[49,45,47,54,57],"points_earned":232,"phase":"task","trial_type":"horizons-task","trial_index":76,"time_elapsed":903314,"internal_node_id":"0.0-72.0","task_version":"0.2"},{"response_times":[535.8599999962607,437.5700000018114,567.6299999976764,579.7450000026729,617.9650000049733,478.0049999972107,366.6550000051502,302.6800000007497,264.9749999982305,243.32500000298023],"keys_pressed":["leftarrow","rightarrow","leftarrow","leftarrow","rightarrow","rightarrow","rightarrow","rightarrow","rightarrow","rightarrow"],"horizon":10,"forced_choices":["leftarrow","rightarrow","leftarrow","leftarrow"],"right_color":"orange","left_color":"lightblue","left_mu":60,"right_mu":80,"left_numbers":[57,84,55,64,46,49,67,52,71,72],"right_numbers":[52,81,83,72,78,75,81,68,77,81],"points_earned":717,"phase":"task","trial_type":"horizons-task","trial_index":77,"time_elapsed":909214,"internal_node_id":"0.0-73.0","task_version":"0.2"},{"response_times":[535.7199999998556,448.03500000131316,701.8900000039721,332.41499999701045,438.09999999939464,313.7399999978952,183.8399999977555,294.08500000135973,264.23000000067987,325.03000000002794],"keys_pressed":["rightarrow","leftarrow","leftarrow","rightarrow","rightarrow","rightarrow","rightarrow","rightarrow","rightarrow","rightarrow"],"horizon":10,"forced_choices":["rightarrow","leftarrow","leftarrow","rightarrow"],"right_color":"lightblue","left_color":"orange","left_mu":60,"right_mu":90,"left_numbers":[61,50,63,71,69,47,58,69,53,59],"right_numbers":[91,94,89,90,80,72,87,94,74,98],"points_earned":799,"phase":"task","trial_type":"horizons-task","trial_index":78,"time_elapsed":914558,"internal_node_id":"0.0-74.0","task_version":"0.2"},{"response_times":[606.0750000034459,407.2749999978114,567.2249999988126,478.55999999598134,141.16500000096858],"keys_pressed":["leftarrow","rightarrow","leftarrow","leftarrow","leftarrow"],"horizon":5,"forced_choices":["leftarrow","rightarrow","leftarrow","leftarrow"],"right_color":"lightblue","left_color":"orange","left_mu":60,"right_mu":30,"left_numbers":[59,46,75,47,45],"right_numbers":[28,32,22,22,20],"points_earned":258,"phase":"task","trial_type":"horizons-task","trial_index":79,"time_elapsed":918263,"internal_node_id":"0.0-75.0","task_version":"0.2"},{"response_times":[489.50000000337604,822.7499999993015,353.8150000022724,1706.9800000027753,517.1650000048103,831.1050000047544,497.9349999993574,296.2649999973364,556.1549999983981,528.3750000016298],"keys_pressed":["rightarrow","rightarrow","leftarrow","leftarrow","rightarrow","leftarrow","leftarrow","rightarrow","rightarrow","rightarrow"],"horizon":10,"forced_choices":["rightarrow","rightarrow","leftarrow","leftarrow"],"right_color":"orange","left_color":"lightblue","left_mu":40,"right_mu":44,"left_numbers":[49,34,36,40,43,46,44,35,38,46],"right_numbers":[37,49,40,39,39,30,53,50,40,56],"points_earned":437,"phase":"task","trial_type":"horizons-task","trial_index":80,"time_elapsed":926366,"internal_node_id":"0.0-76.0","task_version":"0.2"},{"response_times":[842.8750000020955,691.5000000008149,1004.9100000032922,527.755000002915,537.2749999951338,589.6649999995716,385.23500000149943,641.2500000006985,435.19999999995343,447.7249999982305],"keys_pressed":["rightarrow","leftarrow","leftarrow","rightarrow","leftarrow","leftarrow","leftarrow","leftarrow","leftarrow","leftarrow"],"horizon":10,"forced_choices":["rightarrow","leftarrow","leftarrow","rightarrow"],"right_color":"lightblue","left_color":"orange","left_mu":60,"right_mu":48,"left_numbers":[50,57,67,59,50,48,70,61,53,59],"right_numbers":[43,44,57,45,47,44,44,53,49,44],"points_earned":553,"phase":"task","trial_type":"horizons-task","trial_index":81,"time_elapsed":933973,"internal_node_id":"0.0-77.0","task_version":"0.2"},{"response_times":[742.1099999991711,374.37999999383464,1015.3250000004191,456.4650000028778,458.1899999974994,803.2250000032363,332.97500000486616,510.97000000299886,342.58499999856576,172.77500000642613],"keys_pressed":["leftarrow","rightarrow","rightarrow","rightarrow","leftarrow","rightarrow","leftarrow","leftarrow","leftarrow","leftarrow"],"horizon":10,"forced_choices":["leftarrow","rightarrow","rightarrow","rightarrow"],"right_color":"orange","left_color":"lightblue","left_mu":40,"right_mu":32,"left_numbers":[36,47,48,49,27,38,42,45,45,26],"right_numbers":[21,34,26,23,30,24,23,17,22,40],"points_earned":328,"phase":"task","trial_type":"horizons-task","trial_index":82,"time_elapsed":940686,"internal_node_id":"0.0-78.0","task_version":"0.2"},{"response_times":[689.5850000000792,517.6100000026636,567.7900000009686,934.320000000298,427.21999999764375,578.3349999983329,355.8400000038091,394.7000000043772,255.29000000096858,608.585000001709],"keys_pressed":["rightarrow","leftarrow","rightarrow","rightarrow","leftarrow","leftarrow","leftarrow","leftarrow","leftarrow","rightarrow"],"horizon":10,"forced_choices":["rightarrow","leftarrow","rightarrow","rightarrow"],"right_color":"lightblue","left_color":"orange","left_mu":60,"right_mu":48,"left_numbers":[65,74,53,60,51,56,69,56,49,73],"right_numbers":[48,43,59,66,41,40,52,47,55,60],"points_earned":588,"phase":"task","trial_type":"horizons-task","trial_index":83,"time_elapsed":947519,"internal_node_id":"0.0-79.0","task_version":"0.2"},{"response_times":[1016.0849999957718,669.6899999951711,435.2849999994505,335.9649999983376,367.3049999998184,434.6350000051316,274.0999999950873,335.66499999864027,212.3199999986682,305.5099999983795],"keys_pressed":["leftarrow","leftarrow","rightarrow","rightarrow","rightarrow","rightarrow","rightarrow","rightarrow","rightarrow","rightarrow"],"horizon":10,"forced_choices":["leftarrow","leftarrow","rightarrow","rightarrow"],"right_color":"lightblue","left_color":"orange","left_mu":40,"right_mu":70,"left_numbers":[46,39,28,49,53,29,46,38,42,44],"right_numbers":[68,62,88,80,71,75,56,65,89,86],"points_earned":695,"phase":"task","trial_type":"horizons-task","trial_index":84,"time_elapsed":953408,"internal_node_id":"0.0-80.0","task_version":"0.2"},{"response_times":[557.0249999946682,872.0499999980675,436.1399999979185,468.6650000003865,597.1750000026077],"keys_pressed":["rightarrow","leftarrow","rightarrow","leftarrow","rightarrow"],"horizon":5,"forced_choices":["rightarrow","leftarrow","rightarrow","leftarrow"],"right_color":"orange","left_color":"lightblue","left_mu":60,"right_mu":80,"left_numbers":[69,63,48,62,55],"right_numbers":[88,84,87,81,86],"points_earned":386,"phase":"task","trial_type":"horizons-task","trial_index":85,"time_elapsed":957844,"internal_node_id":"0.0-81.0","task_version":"0.2"},{"response_times":[527.5900000052061,770.974999999511,507.85500000347383,396.4249999988824,1055.5299999976996,436.3450000019511,477.82500000169966,354.07499999564607,306.0249999980442,387.15500000398606],"keys_pressed":["rightarrow","leftarrow","leftarrow","rightarrow","leftarrow","leftarrow","leftarrow","leftarrow","leftarrow","leftarrow"],"horizon":10,"forced_choices":["rightarrow","leftarrow","leftarrow","rightarrow"],"right_color":"orange","left_color":"lightblue","left_mu":60,"right_mu":40,"left_numbers":[65,51,48,61,62,53,62,60,47,67],"right_numbers":[42,38,33,40,43,42,45,37,50,26],"points_earned":532,"phase":"task","trial_type":"horizons-task","trial_index":86,"time_elapsed":964569,"internal_node_id":"0.0-82.0","task_version":"0.2"},{"response_times":[837.3849999989616,619.1400000024587,660.0299999990966,488.09500000067055,567.8999999945518,356.7499999990687,414.4000000015367,223.68000000272878,233.60999999567866,224.36500000185333],"keys_pressed":["leftarrow","rightarrow","rightarrow","rightarrow","rightarrow","rightarrow","rightarrow","rightarrow","rightarrow","rightarrow"],"horizon":10,"forced_choices":["leftarrow","rightarrow","rightarrow","rightarrow"],"right_color":"orange","left_color":"lightblue","left_mu":40,"right_mu":60,"left_numbers":[36,39,29,51,31,41,35,37,38,49],"right_numbers":[57,41,72,54,62,57,55,61,61,52],"points_earned":551,"phase":"task","trial_type":"horizons-task","trial_index":87,"time_elapsed":970699,"internal_node_id":"0.0-83.0","task_version":"0.2"},{"response_times":[598.7749999985099,478.67000000400003,446.58000000356697,638.2049999956507,773.7599999964004],"keys_pressed":["rightarrow","leftarrow","leftarrow","rightarrow","leftarrow"],"horizon":5,"forced_choices":["rightarrow","leftarrow","leftarrow","rightarrow"],"right_color":"orange","left_color":"lightblue","left_mu":40,"right_mu":20,"left_numbers":[29,34,49,36,39],"right_numbers":[25,20,17,25,18],"points_earned":172,"phase":"task","trial_type":"horizons-task","trial_index":88,"time_elapsed":975138,"internal_node_id":"0.0-84.0","task_version":"0.2"},{"response_times":[507.3950000006007,468.53000000549946,597.9700000025332,549.7400000022026,496.80500000249594,302.9400000014575,183.96000000205822,182.30500000203028,182.57000000448897,355.96500000252854],"keys_pressed":["rightarrow","leftarrow","rightarrow","leftarrow","leftarrow","leftarrow","leftarrow","leftarrow","leftarrow","leftarrow"],"horizon":10,"forced_choices":["rightarrow","leftarrow","rightarrow","leftarrow"],"right_color":"lightblue","left_color":"orange","left_mu":60,"right_mu":52,"left_numbers":[52,48,61,70,51,63,67,65,52,63],"right_numbers":[43,51,40,37,46,57,47,41,45,50],"points_earned":562,"phase":"task","trial_type":"horizons-task","trial_index":89,"time_elapsed":980470,"internal_node_id":"0.0-85.0","task_version":"0.2"},{"response_times":[467.7700000030454,384.93000000016764,517.1300000001211,345.8499999977648,213.99999999988358],"keys_pressed":["rightarrow","leftarrow","rightarrow","rightarrow","rightarrow"],"horizon":5,"forced_choices":["rightarrow","leftarrow","rightarrow","rightarrow"],"right_color":"lightblue","left_color":"orange","left_mu":60,"right_mu":90,"left_numbers":[37,51,57,56,59],"right_numbers":[84,80,99,102,80],"points_earned":416,"phase":"task","trial_type":"horizons-task","trial_index":90,"time_elapsed":983903,"internal_node_id":"0.0-86.0","task_version":"0.2"},{"response_times":[616.0149999996647,477.57999999879394,406.36000000080094,466.34500000078697,539.2099999953061],"keys_pressed":["leftarrow","leftarrow","rightarrow","rightarrow","rightarrow"],"horizon":5,"forced_choices":["leftarrow","leftarrow","rightarrow","rightarrow"],"right_color":"lightblue","left_color":"orange","left_mu":40,"right_mu":70,"left_numbers":[41,46,42,34,21],"right_numbers":[72,90,66,84,64],"points_earned":301,"phase":"task","trial_type":"horizons-task","trial_index":91,"time_elapsed":987914,"internal_node_id":"0.0-87.0","task_version":"0.2"},{"rt":93252.95999999787,"responses":{"age":"30","gender-categorical":"Male","gender-free-response":"","ethnicity":"Not Hispanic or Latino","race":["White"],"language":"Yes","fluency":"Very well"},"survey":"demographics","trial_type":"survey-demo","trial_index":92,"time_elapsed":1081171,"internal_node_id":"0.0-88.0","task_version":"0.2"},{"rt":33638.054999995744,"responses":{"difficulty":"5","fun":"5","clarity":"5","strategy":"Yes. I stick with the machine that has records of high values","feedback":"no"},"survey":"debrief","trial_type":"survey-debrief","trial_index":93,"time_elapsed":1114812,"internal_node_id":"0.0-89.0","task_version":"0.2","interactions":"[{\"event\":\"blur\",\"trial\":0,\"time\":0},{\"event\":\"focus\",\"trial\":0,\"time\":16867},{\"event\":\"blur\",\"trial\":5,\"time\":466672},{\"event\":\"focus\",\"trial\":5,\"time\":476383},{\"event\":\"blur\",\"trial\":92,\"time\":1054727},{\"event\":\"focus\",\"trial\":92,\"time\":1068336}]"}]