[{"view_history":"[{\"page_index\":0,\"viewing_time\":21711.114999998244}]","rt":21713.45499999734,"trial_type":"instructions","trial_index":0,"time_elapsed":21814,"internal_node_id":"0.0-0.0","task_version":"0.2"},{"item_order":[1,13,14,10,15,7,11,5,2,6,8,9,16,12,4,3,0],"responses":{"Q02":"0","Q14":"0","Q15":"0","Q11":"3","Q16":"1","Q08":"2","Q12":"0","Q06":"0","Q03":"1","Q07":"2","Q09":"3","Q10":"1","Q17":"0","Q13":"1","Q05":"3","Q04":"0","Q01":"3"},"radio_events":[10575.035000001662,11805.515000000014,14459.705000001122,24911.605000001146,29430.03000000317,35440.85500000074,37083.85000000271,40334.08000000054,44827.860000004875,88249.16000000667,105799.29500000435,108824.9450000003,113601.99000000284,124143.74500000122,126099.53000000678,127782.53500000574,131707.150000002,136847.4950000018,158033.5050000067],"key_events":[],"mouse_events":[0.28000000020256266,6948.4600000068895,9008.320000000822,10575.035000001662,11805.515000000014,14459.705000001122,24911.605000001146,29430.03000000317,33730.12000000017,35440.85500000074,37083.85000000271,40334.08000000054,44827.860000004875,88249.16000000667,105799.29500000435,108824.9450000003,113601.99000000284,118886.29000000219,124143.74500000122,126099.53000000678,127782.53500000574,129402.2100000002,131707.150000002,135578.9450000011,136847.4950000018,158033.5050000067,159911.94499999983],"rt":159923.870000006,"survey":"pswq","trial_type":"survey-template","trial_index":1,"time_elapsed":181761,"internal_node_id":"0.0-1.0","task_version":"0.2"},{"item_order":[15,12,5,4,2,7,9,11,8,3,0,13,10,14,6,1],"responses":{"Q16":"5","Q13":"5","Q06":"5","Q05":"2","Q03":"5","Q08":"3","Q10":"2","Q12":"5","Q09":"2","Q04":"2","Q01":"3","Q14":"2","Q11":"3","Q15":"4","Q07":"4","Q02":"2"},"radio_events":[6767.245000002731,12129.48999999935,14447.034999997413,22734.075000000303,29520.42000000074,33961.929999997665,44011.16500000353,46757.239999999,107877.27499999892,116857.73499999777,121274.36000000307,124889.05499999964,132168.51000000315,141858.03999999916,143763.50500000262,147494.38999999984,222610.61000000336],"key_events":[],"mouse_events":[6767.245000002731,9072.135000002163,12129.48999999935,13268.309999999474,14447.034999997413,21673.14500000066,22734.075000000303,27047.18000000139,28497.32000000222,29520.42000000074,33961.929999997665,44011.16500000353,46757.239999999,107877.27499999892,116857.73499999777,120173.17000000185,121274.36000000307,124889.05499999964,132168.51000000315,141858.03999999916,143763.50500000262,147494.38999999984,221198.7749999971,222610.61000000336,224879.38500000018],"rt":224891.68000000063,"survey":"nfc","trial_type":"survey-template","trial_index":2,"time_elapsed":406676,"internal_node_id":"0.0-2.0","task_version":"0.2"},{"item_order":[0,11,9,5,3,7,10,6,4,8,2,1,12],"responses":{"Q01":"1","Q12":"1","Q10":"1","Q06":"1","Q04":"3","Q08":"3","Q11":"3","Q07":"1","Q05":"1","Q09":"0","Q03":"0","Q02":"0","Q13":"4"},"radio_events":[59534.24999999697,102827.70499999606,105626.65500000003,110911.90999999526,113865.85999999807,118813.45499999594,122220.47000000026,133955.8749999996,137374.59499999386,140483.26999999705,141532.61499999644,144201.5799999936,145547.37000000017,147516.31499999348],"key_events":[],"mouse_events":[58549.63499999576,59534.24999999697,102827.70499999606,105626.65500000003,110911.90999999526,113865.85999999807,117893.6499999981,118813.45499999594,121066.95499999478,122220.47000000026,130315.73999999819,133955.8749999996,135004.47499999433,137374.59499999386,138670.64999999997,140483.26999999705,141532.61499999644,142854.87499999726,144201.5799999936,145547.37000000017,147516.31499999348,151363.08999999898],"rt":151369.8199999999,"survey":"ius12","trial_type":"survey-template","trial_index":3,"time_elapsed":558060,"internal_node_id":"0.0-3.0","task_version":"0.2"},{"view_history":"[{\"page_index\":0,\"viewing_time\":8506.409999994445},{\"page_index\":1,\"viewing_time\":6668.875000003027},{\"page_index\":2,\"viewing_time\":8926.33499999647},{\"page_index\":3,\"viewing_time\":7680.230000005453},{\"page_index\":4,\"viewing_time\":6798.09999999986},{\"page_index\":5,\"viewing_time\":5387.149999995017},{\"page_index\":6,\"viewing_time\":18718.00500000245},{\"page_index\":7,\"viewing_time\":12354.34499999974},{\"page_index\":8,\"viewing_time\":9027.269999998738},{\"page_index\":9,\"viewing_time\":10840.345000004163}]","rt":94907.8649999937,"trial_type":"instructions","trial_index":4,"time_elapsed":652973,"internal_node_id":"0.0-4.0-0.0","task_version":"0.2"},{"response_times":[3226.0800000003073,2562.6899999988964,909.744999997085,1384.154999999795,5203.654999997467],"keys_pressed":["rightarrow","leftarrow","rightarrow","rightarrow","rightarrow"],"horizon":5,"forced_choices":["rightarrow","leftarrow","rightarrow","rightarrow"],"right_color":"lightblue","left_color":"orange","left_mu":40,"right_mu":20,"left_numbers":[28,51,32,50,24],"right_numbers":[16,21,14,15,9],"points_earned":105,"phase":"practice","trial_type":"horizons-task","trial_index":5,"time_elapsed":667806,"internal_node_id":"0.0-4.0-1.0","task_version":"0.2"},{"response_times":[4215.385000003036,1764.9850000016158,1401.9699999989243,2018.4149999986403,2490.6850000043632,854.570000003092,715.200000006007,1628.1749999980675,657.0750000028638,1315.259999995702],"keys_pressed":["leftarrow","leftarrow","rightarrow","rightarrow","rightarrow","rightarrow","rightarrow","rightarrow","rightarrow","rightarrow"],"horizon":10,"forced_choices":["leftarrow","leftarrow","rightarrow","rightarrow"],"right_color":"orange","left_color":"lightblue","left_mu":60,"right_mu":70,"left_numbers":[56,63,71,66,61,58,91,56,64,68],"right_numbers":[71,69,68,71,61,76,70,64,71,77],"points_earned":677,"phase":"practice","trial_type":"horizons-task","trial_index":6,"time_elapsed":686377,"internal_node_id":"0.0-4.0-2.0","task_version":"0.2"},{"view_history":"[{\"page_index\":0,\"viewing_time\":6140.2350000062725},{\"page_index\":1,\"viewing_time\":3926.654999995604},{\"page_index\":2,\"viewing_time\":4662.77000000258},{\"page_index\":3,\"viewing_time\":4071.355000000098}]","rt":18802.065000003553,"trial_type":"instructions","trial_index":7,"time_elapsed":705181,"internal_node_id":"0.0-4.0-3.0","task_version":"0.2"},{"responses":["true","false","true"],"num_errors":0,"rt":19439.979999995558,"trial_type":"horizons-comprehension","trial_index":8,"time_elapsed":724633,"internal_node_id":"0.0-4.0-4.0","task_version":"0.2"},{"trial_type":"call-function","trial_index":9,"time_elapsed":724645,"internal_node_id":"0.0-5.0","task_version":"0.2"},{"view_history":"[{\"page_index\":0,\"viewing_time\":2456.489999996964},{\"page_index\":1,\"viewing_time\":5218.265000003157}]","rt":7675.7050000014715,"trial_type":"instructions","trial_index":10,"time_elapsed":732322,"internal_node_id":"0.0-6.0","task_version":"0.2"},{"response_times":[1654.9549999982119,5021.905000001425,760.6000000014901,695.2149999997346,3521.3199999998324],"keys_pressed":["rightarrow","leftarrow","leftarrow","rightarrow","rightarrow"],"horizon":5,"forced_choices":["rightarrow","leftarrow","leftarrow","rightarrow"],"right_color":"orange","left_color":"lightblue","left_mu":60,"right_mu":90,"left_numbers":[64,52,54,56,60],"right_numbers":[80,84,93,86,95],"points_earned":367,"phase":"task","trial_type":"horizons-task","trial_index":11,"time_elapsed":745531,"internal_node_id":"0.0-7.0","task_version":"0.2"},{"response_times":[1750.724999998114,667.9900000017369,768.7450000012759,3069.389999996987,1775.2249999976484,945.7550000007031,584.2849999972386,734.3649999966146,632.6350000017555,1174.5449999943376],"keys_pressed":["leftarrow","rightarrow","leftarrow","leftarrow","leftarrow","leftarrow","leftarrow","leftarrow","leftarrow","leftarrow"],"horizon":10,"forced_choices":["leftarrow","rightarrow","leftarrow","leftarrow"],"right_color":"lightblue","left_color":"orange","left_mu":60,"right_mu":30,"left_numbers":[58,65,45,84,66,48,63,61,72,70],"right_numbers":[31,27,17,26,25,44,28,17,38,30],"points_earned":594,"phase":"task","trial_type":"horizons-task","trial_index":12,"time_elapsed":759145,"internal_node_id":"0.0-8.0","task_version":"0.2"},{"response_times":[1047.7350000001024,2883.3400000003166,599.2550000010524,1354.954999995185,1561.3499999963678],"keys_pressed":["leftarrow","rightarrow","leftarrow","leftarrow","leftarrow"],"horizon":5,"forced_choices":["leftarrow","rightarrow","leftarrow","leftarrow"],"right_color":"orange","left_color":"lightblue","left_mu":60,"right_mu":52,"left_numbers":[70,61,57,61,61],"right_numbers":[58,48,59,49,36],"points_earned":297,"phase":"task","trial_type":"horizons-task","trial_index":13,"time_elapsed":768099,"internal_node_id":"0.0-9.0","task_version":"0.2"},{"response_times":[713.3600000016158,587.3199999987846,493.0449999955017,524.6249999981374,1168.705000003567],"keys_pressed":["rightarrow","leftarrow","rightarrow","leftarrow","leftarrow"],"horizon":5,"forced_choices":["rightarrow","leftarrow","rightarrow","leftarrow"],"right_color":"lightblue","left_color":"orange","left_mu":60,"right_mu":40,"left_numbers":[50,65,68,56,62],"right_numbers":[43,56,44,41,40],"points_earned":270,"phase":"task","trial_type":"horizons-task","trial_index":14,"time_elapsed":773094,"internal_node_id":"0.0-10.0","task_version":"0.2"},{"response_times":[885.9700000029989,676.6300000017509,734.8199999979697,618.2650000046706,1456.5150000052527,595.0899999951944,542.1800000041258,626.7099999968195,1341.029999995837,2049.3900000001304],"keys_pressed":["leftarrow","rightarrow","rightarrow","leftarrow","leftarrow","leftarrow","leftarrow","leftarrow","leftarrow","leftarrow"],"horizon":10,"forced_choices":["leftarrow","rightarrow","rightarrow","leftarrow"],"right_color":"lightblue","left_color":"orange","left_mu":40,"right_mu":10,"left_numbers":[35,43,21,35,27,38,41,36,36,43],"right_numbers":[15,2,3,0,5,5,2,8,13,22],"points_earned":296,"phase":"task","trial_type":"horizons-task","trial_index":15,"time_elapsed":784290,"internal_node_id":"0.0-11.0","task_version":"0.2"},{"response_times":[1783.5750000013504,561.6500000031665,707.3149999997113,444.9850000018487,2362.9599999985658,485.6500000022352,507.76999999652617,1093.8999999997905,462.4500000064727,858.2650000024587],"keys_pressed":["rightarrow","rightarrow","leftarrow","rightarrow","rightarrow","rightarrow","rightarrow","rightarrow","rightarrow","rightarrow"],"horizon":10,"forced_choices":["rightarrow","rightarrow","leftarrow","rightarrow"],"right_color":"orange","left_color":"lightblue","left_mu":60,"right_mu":56,"left_numbers":[70,54,61,50,71,66,57,66,63,47],"right_numbers":[51,37,47,49,50,52,59,65,66,82],"points_earned":572,"phase":"task","trial_type":"horizons-task","trial_index":16,"time_elapsed":795066,"internal_node_id":"0.0-12.0","task_version":"0.2"},{"response_times":[1213.4399999995949,535.0450000042329,560.6450000050245,745.230000000447,1064.54999999539],"keys_pressed":["leftarrow","leftarrow","rightarrow","rightarrow","rightarrow"],"horizon":5,"forced_choices":["leftarrow","leftarrow","rightarrow","rightarrow"],"right_color":"lightblue","left_color":"orange","left_mu":60,"right_mu":64,"left_numbers":[63,41,62,55,63],"right_numbers":[62,65,56,83,56],"points_earned":299,"phase":"task","trial_type":"horizons-task","trial_index":17,"time_elapsed":800691,"internal_node_id":"0.0-13.0","task_version":"0.2"},{"response_times":[1403.9150000025984,1588.7799999982817,646.9100000031758,538.7499999997672,720.2800000014249],"keys_pressed":["leftarrow","rightarrow","rightarrow","rightarrow","rightarrow"],"horizon":5,"forced_choices":["leftarrow","rightarrow","rightarrow","rightarrow"],"right_color":"orange","left_color":"lightblue","left_mu":40,"right_mu":48,"left_numbers":[22,44,39,37,41],"right_numbers":[54,53,55,42,53],"points_earned":225,"phase":"task","trial_type":"horizons-task","trial_index":18,"time_elapsed":807095,"internal_node_id":"0.0-14.0","task_version":"0.2"},{"response_times":[963.5199999975739,1150.9150000056252,1022.3400000031106,1086.0150000008289,650.5099999995437,584.0299999981653,499.6549999996787,701.3200000001816,656.2550000016345,1161.7899999984074],"keys_pressed":["rightarrow","leftarrow","leftarrow","leftarrow","leftarrow","leftarrow","leftarrow","leftarrow","leftarrow","leftarrow"],"horizon":10,"forced_choices":["rightarrow","leftarrow","leftarrow","leftarrow"],"right_color":"orange","left_color":"lightblue","left_mu":40,"right_mu":44,"left_numbers":[32,30,43,45,32,47,25,26,26,44],"right_numbers":[47,43,41,48,34,49,45,47,49,43],"points_earned":365,"phase":"task","trial_type":"horizons-task","trial_index":19,"time_elapsed":817078,"internal_node_id":"0.0-15.0","task_version":"0.2"},{"response_times":[2569.930000005057,687.1249999967404,729.7899999975925,795.31000000122,902.82500000461],"keys_pressed":["leftarrow","rightarrow","rightarrow","rightarrow","rightarrow"],"horizon":5,"forced_choices":["leftarrow","rightarrow","rightarrow","rightarrow"],"right_color":"lightblue","left_color":"orange","left_mu":40,"right_mu":36,"left_numbers":[42,57,43,45,30],"right_numbers":[45,34,31,26,36],"points_earned":169,"phase":"task","trial_type":"horizons-task","trial_index":20,"time_elapsed":824268,"internal_node_id":"0.0-16.0","task_version":"0.2"},{"response_times":[1254.2499999981374,475.50000000046566,1081.9499999997206,748.0649999998277,2572.135000002105,573.2350000034785,1070.865000001504,468.2650000031572,487.75499999464955,509.7550000064075],"keys_pressed":["rightarrow","leftarrow","leftarrow","rightarrow","leftarrow","leftarrow","leftarrow","leftarrow","leftarrow","leftarrow"],"horizon":10,"forced_choices":["rightarrow","leftarrow","leftarrow","rightarrow"],"right_color":"orange","left_color":"lightblue","left_mu":40,"right_mu":48,"left_numbers":[37,33,30,54,25,41,36,32,33,27],"right_numbers":[54,50,46,68,46,45,50,45,45,57],"points_earned":379,"phase":"task","trial_type":"horizons-task","trial_index":21,"time_elapsed":835017,"internal_node_id":"0.0-17.0","task_version":"0.2"},{"response_times":[870.6400000009453,593.3799999984913,804.6449999965262,832.894999999553,3063.320000001113],"keys_pressed":["leftarrow","leftarrow","rightarrow","leftarrow","leftarrow"],"horizon":5,"forced_choices":["leftarrow","leftarrow","rightarrow","leftarrow"],"right_color":"orange","left_color":"lightblue","left_mu":40,"right_mu":20,"left_numbers":[38,42,39,31,46],"right_numbers":[16,17,26,8,24],"points_earned":183,"phase":"task","trial_type":"horizons-task","trial_index":22,"time_elapsed":842688,"internal_node_id":"0.0-18.0","task_version":"0.2"},{"response_times":[853.0900000040419,780.7000000029802,1239.0050000031479,957.6999999990221,2905.305000000284,506.9849999998696,414.3850000036182,463.62999999849126,455.9450000014622,504.0799999986775],"keys_pressed":["rightarrow","rightarrow","leftarrow","leftarrow","rightarrow","rightarrow","rightarrow","rightarrow","rightarrow","rightarrow"],"horizon":10,"forced_choices":["rightarrow","rightarrow","leftarrow","leftarrow"],"right_color":"lightblue","left_color":"orange","left_mu":40,"right_mu":52,"left_numbers":[41,38,47,27,44,30,36,45,39,49],"right_numbers":[59,45,37,55,52,52,51,60,54,46],"points_earned":493,"phase":"task","trial_type":"horizons-task","trial_index":23,"time_elapsed":853279,"internal_node_id":"0.0-19.0","task_version":"0.2"},{"response_times":[1247.1700000024866,1146.9249999936437,1028.5500000027241,1519.4149999951478,3127.635000004433],"keys_pressed":["leftarrow","rightarrow","leftarrow","rightarrow","leftarrow"],"horizon":5,"forced_choices":["leftarrow","rightarrow","leftarrow","rightarrow"],"right_color":"orange","left_color":"lightblue","left_mu":40,"right_mu":20,"left_numbers":[20,42,36,35,45],"right_numbers":[13,30,6,7,15],"points_earned":138,"phase":"task","trial_type":"horizons-task","trial_index":24,"time_elapsed":862855,"internal_node_id":"0.0-20.0","task_version":"0.2"},{"response_times":[1055.57499999844,1047.9550000018207,1087.7500000060536,1404.1500000021188,1706.9449999980861],"keys_pressed":["leftarrow","leftarrow","rightarrow","rightarrow","rightarrow"],"horizon":5,"forced_choices":["leftarrow","leftarrow","rightarrow","rightarrow"],"right_color":"lightblue","left_color":"orange","left_mu":40,"right_mu":60,"left_numbers":[31,34,49,38,39],"right_numbers":[44,67,59,75,57],"points_earned":256,"phase":"task","trial_type":"horizons-task","trial_index":25,"time_elapsed":870672,"internal_node_id":"0.0-21.0","task_version":"0.2"},{"response_times":[2061.2750000000233,667.6549999974668,1761.3750000018626,1243.9200000007404,3478.1050000019604],"keys_pressed":["leftarrow","rightarrow","rightarrow","leftarrow","leftarrow"],"horizon":5,"forced_choices":["leftarrow","rightarrow","rightarrow","leftarrow"],"right_color":"lightblue","left_color":"orange","left_mu":40,"right_mu":28,"left_numbers":[52,31,39,43,31],"right_numbers":[24,29,13,33,32],"points_earned":168,"phase":"task","trial_type":"horizons-task","trial_index":26,"time_elapsed":881394,"internal_node_id":"0.0-22.0","task_version":"0.2"},{"response_times":[974.7799999968847,981.8400000004331,728.5850000043865,667.0749999975087,4261.250000003143,1426.4750000002095,519.119999997085,548.5649999972666,474.2699999988545,378.1600000002654],"keys_pressed":["leftarrow","leftarrow","rightarrow","leftarrow","leftarrow","leftarrow","leftarrow","leftarrow","leftarrow","leftarrow"],"horizon":10,"forced_choices":["leftarrow","leftarrow","rightarrow","leftarrow"],"right_color":"lightblue","left_color":"orange","left_mu":40,"right_mu":10,"left_numbers":[36,23,41,33,49,59,42,44,43,43],"right_numbers":[18,10,7,12,14,10,5,9,10,10],"points_earned":379,"phase":"task","trial_type":"horizons-task","trial_index":27,"time_elapsed":893860,"internal_node_id":"0.0-23.0","task_version":"0.2"},{"response_times":[1045.8900000011781,780.9899999992922,923.3050000038929,881.6950000035577,1606.7600000023376],"keys_pressed":["leftarrow","leftarrow","rightarrow","leftarrow","leftarrow"],"horizon":5,"forced_choices":["leftarrow","leftarrow","rightarrow","leftarrow"],"right_color":"lightblue","left_color":"orange","left_mu":40,"right_mu":10,"left_numbers":[41,48,37,27,32],"right_numbers":[14,13,15,6,7],"points_earned":163,"phase":"task","trial_type":"horizons-task","trial_index":28,"time_elapsed":900609,"internal_node_id":"0.0-24.0","task_version":"0.2"},{"response_times":[1948.709999996936,1073.9400000020396,593.9999999974389,1663.2649999955902,2024.3950000003679,643.1949999970384,408.51000000105705,409.554999998305,360.98499999940395,443.40999999979977],"keys_pressed":["leftarrow","leftarrow","rightarrow","rightarrow","rightarrow","rightarrow","rightarrow","rightarrow","rightarrow","rightarrow"],"horizon":10,"forced_choices":["leftarrow","leftarrow","rightarrow","rightarrow"],"right_color":"orange","left_color":"lightblue","left_mu":60,"right_mu":68,"left_numbers":[58,40,47,65,64,64,47,51,59,59],"right_numbers":[74,70,72,76,78,70,61,60,75,71],"points_earned":661,"phase":"task","trial_type":"horizons-task","trial_index":29,"time_elapsed":911710,"internal_node_id":"0.0-25.0","task_version":"0.2"},{"response_times":[1146.9400000059977,869.9150000029476,639.4700000018347,814.5950000034645,1710.9749999945052],"keys_pressed":["rightarrow","rightarrow","rightarrow","leftarrow","rightarrow"],"horizon":5,"forced_choices":["rightarrow","rightarrow","rightarrow","leftarrow"],"right_color":"lightblue","left_color":"orange","left_mu":60,"right_mu":48,"left_numbers":[61,57,61,61,46],"right_numbers":[61,54,43,44,39],"points_earned":258,"phase":"task","trial_type":"horizons-task","trial_index":30,"time_elapsed":918405,"internal_node_id":"0.0-26.0","task_version":"0.2"},{"response_times":[881.0099999972153,1256.434999995632,598.1199999951059,813.4700000010198,1529.4300000023795],"keys_pressed":["leftarrow","leftarrow","leftarrow","rightarrow","leftarrow"],"horizon":5,"forced_choices":["leftarrow","leftarrow","leftarrow","rightarrow"],"right_color":"lightblue","left_color":"orange","left_mu":60,"right_mu":64,"left_numbers":[54,57,67,51,75],"right_numbers":[69,47,77,60,53],"points_earned":313,"phase":"task","trial_type":"horizons-task","trial_index":31,"time_elapsed":924999,"internal_node_id":"0.0-27.0","task_version":"0.2"},{"response_times":[1534.7699999983888,644.9050000009593,1279.9950000043027,736.0400000035297,777.4199999985285,458.46500000334345,424.640000004787,402.1450000000186,404.4549999962328,347.83999999484513],"keys_pressed":["leftarrow","rightarrow","rightarrow","rightarrow","rightarrow","rightarrow","rightarrow","rightarrow","rightarrow","rightarrow"],"horizon":10,"forced_choices":["leftarrow","rightarrow","rightarrow","rightarrow"],"right_color":"orange","left_color":"lightblue","left_mu":60,"right_mu":90,"left_numbers":[51,65,56,62,69,61,61,47,63,49],"right_numbers":[85,98,91,93,81,88,96,86,85,89],"points_earned":858,"phase":"task","trial_type":"horizons-task","trial_index":32,"time_elapsed":933517,"internal_node_id":"0.0-28.0","task_version":"0.2"},{"response_times":[1711.9400000009919,991.3299999971641,762.2249999984633,474.8749999998836,1319.3200000023935,985.3900000015274,417.7300000011455,496.9450000062352,310.4550000061281,615.0699999998324],"keys_pressed":["rightarrow","leftarrow","rightarrow","leftarrow","leftarrow","leftarrow","leftarrow","leftarrow","leftarrow","leftarrow"],"horizon":10,"forced_choices":["rightarrow","leftarrow","rightarrow","leftarrow"],"right_color":"orange","left_color":"lightblue","left_mu":60,"right_mu":52,"left_numbers":[52,60,53,49,54,80,54,71,52,67],"right_numbers":[44,21,42,41,49,58,51,45,43,46],"points_earned":573,"phase":"task","trial_type":"horizons-task","trial_index":33,"time_elapsed":943111,"internal_node_id":"0.0-29.0","task_version":"0.2"},{"response_times":[753.3550000007963,820.0499999948079,1513.3300000014715,2561.0949999972945,959.8100000002887],"keys_pressed":["rightarrow","leftarrow","leftarrow","rightarrow","rightarrow"],"horizon":5,"forced_choices":["rightarrow","leftarrow","leftarrow","rightarrow"],"right_color":"orange","left_color":"lightblue","left_mu":40,"right_mu":48,"left_numbers":[46,40,42,30,22],"right_numbers":[39,55,54,39,42],"points_earned":202,"phase":"task","trial_type":"horizons-task","trial_index":34,"time_elapsed":951231,"internal_node_id":"0.0-30.0","task_version":"0.2"},{"response_times":[1078.4100000018952,805.2949999982957,772.8599999973085,2610.845000002766,828.5000000032596],"keys_pressed":["leftarrow","rightarrow","leftarrow","leftarrow","leftarrow"],"horizon":5,"forced_choices":["leftarrow","rightarrow","leftarrow","leftarrow"],"right_color":"lightblue","left_color":"orange","left_mu":60,"right_mu":30,"left_numbers":[63,53,55,61,60],"right_numbers":[30,37,32,28,28],"points_earned":276,"phase":"task","trial_type":"horizons-task","trial_index":35,"time_elapsed":958840,"internal_node_id":"0.0-31.0","task_version":"0.2"},{"response_times":[802.5699999998324,1210.879999998724,976.7700000010664,970.1850000055274,2348.6200000043027],"keys_pressed":["leftarrow","rightarrow","leftarrow","rightarrow","leftarrow"],"horizon":5,"forced_choices":["leftarrow","rightarrow","leftarrow","rightarrow"],"right_color":"lightblue","left_color":"orange","left_mu":40,"right_mu":32,"left_numbers":[53,29,47,40,49],"right_numbers":[25,50,27,37,26],"points_earned":236,"phase":"task","trial_type":"horizons-task","trial_index":36,"time_elapsed":966680,"internal_node_id":"0.0-32.0","task_version":"0.2"},{"response_times":[702.2500000020955,720.0900000025285,525.9349999977276,707.7900000003865,940.5600000027334,881.5800000010058,626.7450000013923,1067.8150000020396,4641.450000002864,618.4500000016997],"keys_pressed":["rightarrow","leftarrow","rightarrow","rightarrow","rightarrow","leftarrow","leftarrow","rightarrow","rightarrow","rightarrow"],"horizon":10,"forced_choices":["rightarrow","leftarrow","rightarrow","rightarrow"],"right_color":"lightblue","left_color":"orange","left_mu":40,"right_mu":52,"left_numbers":[30,41,32,50,32,59,29,41,35,31],"right_numbers":[51,65,41,43,46,57,45,56,51,54],"points_earned":471,"phase":"task","trial_type":"horizons-task","trial_index":37,"time_elapsed":979625,"internal_node_id":"0.0-33.0","task_version":"0.2"},{"response_times":[936.809999999241,1331.790000003879,1234.9749999993946,1026.9800000023097,916.7299999971874,435.3300000001909,476.90000000142027,442.8750000006985,452.7700000035111,471.050000000163],"keys_pressed":["rightarrow","leftarrow","leftarrow","rightarrow","rightarrow","rightarrow","rightarrow","rightarrow","rightarrow","rightarrow"],"horizon":10,"forced_choices":["rightarrow","leftarrow","leftarrow","rightarrow"],"right_color":"orange","left_color":"lightblue","left_mu":60,"right_mu":90,"left_numbers":[67,62,61,61,66,56,53,60,42,46],"right_numbers":[91,81,83,75,72,96,92,76,86,88],"points_earned":799,"phase":"task","trial_type":"horizons-task","trial_index":38,"time_elapsed":988863,"internal_node_id":"0.0-34.0","task_version":"0.2"},{"response_times":[998.7350000010338,1032.5200000006007,1947.570000003907,664.2150000043912,575.7499999962747],"keys_pressed":["rightarrow","leftarrow","leftarrow","rightarrow","rightarrow"],"horizon":5,"forced_choices":["rightarrow","leftarrow","leftarrow","rightarrow"],"right_color":"orange","left_color":"lightblue","left_mu":60,"right_mu":72,"left_numbers":[56,57,64,46,49],"right_numbers":[79,80,65,69,75],"points_earned":344,"phase":"task","trial_type":"horizons-task","trial_index":39,"time_elapsed":995631,"internal_node_id":"0.0-35.0","task_version":"0.2"},{"response_times":[1043.2450000006938,1094.1000000019558,940.8649999967311,1088.1349999981467,531.8600000028964],"keys_pressed":["rightarrow","leftarrow","leftarrow","leftarrow","rightarrow"],"horizon":5,"forced_choices":["rightarrow","leftarrow","leftarrow","leftarrow"],"right_color":"orange","left_color":"lightblue","left_mu":60,"right_mu":72,"left_numbers":[73,67,55,59,73],"right_numbers":[86,67,63,64,77],"points_earned":344,"phase":"task","trial_type":"horizons-task","trial_index":40,"time_elapsed":1001838,"internal_node_id":"0.0-36.0","task_version":"0.2"},{"response_times":[825.3400000031106,682.0549999973737,2111.870000000694,1245.5899999985704,772.9449999970384,483.6500000018859,477.35999999719206,368.20499999879394,330.17000000108965,493.364999994752],"keys_pressed":["rightarrow","leftarrow","leftarrow","leftarrow","rightarrow","rightarrow","rightarrow","rightarrow","rightarrow","rightarrow"],"horizon":10,"forced_choices":["rightarrow","leftarrow","leftarrow","leftarrow"],"right_color":"orange","left_color":"lightblue","left_mu":40,"right_mu":70,"left_numbers":[33,39,37,45,41,35,27,39,49,45],"right_numbers":[60,85,79,67,69,84,64,67,71,76],"points_earned":612,"phase":"task","trial_type":"horizons-task","trial_index":41,"time_elapsed":1011142,"internal_node_id":"0.0-37.0","task_version":"0.2"},{"response_times":[1799.6199999978999,921.0400000009686,743.8099999999395,1058.4249999956228,1262.2600000031525],"keys_pressed":["rightarrow","rightarrow","leftarrow","leftarrow","rightarrow"],"horizon":5,"forced_choices":["rightarrow","rightarrow","leftarrow","leftarrow"],"right_color":"lightblue","left_color":"orange","left_mu":60,"right_mu":48,"left_numbers":[39,44,54,56,53],"right_numbers":[52,49,36,37,58],"points_earned":269,"phase":"task","trial_type":"horizons-task","trial_index":42,"time_elapsed":1018433,"internal_node_id":"0.0-38.0","task_version":"0.2"},{"response_times":[1397.0749999935506,903.6500000002561,682.5150000003632,2139.340000001597,7320.410000000149],"keys_pressed":["rightarrow","rightarrow","rightarrow","leftarrow","rightarrow"],"horizon":5,"forced_choices":["rightarrow","rightarrow","rightarrow","leftarrow"],"right_color":"lightblue","left_color":"orange","left_mu":40,"right_mu":60,"left_numbers":[36,33,43,45,35],"right_numbers":[65,66,66,54,65],"points_earned":307,"phase":"task","trial_type":"horizons-task","trial_index":43,"time_elapsed":1032389,"internal_node_id":"0.0-39.0","task_version":"0.2"},{"response_times":[1486.0550000012154,1043.7799999999115,2792.1900000000605,2014.3449999958975,777.880000001518],"keys_pressed":["leftarrow","rightarrow","rightarrow","leftarrow","rightarrow"],"horizon":5,"forced_choices":["leftarrow","rightarrow","rightarrow","leftarrow"],"right_color":"orange","left_color":"lightblue","left_mu":40,"right_mu":44,"left_numbers":[43,38,30,31,50],"right_numbers":[43,37,50,38,39],"points_earned":200,"phase":"task","trial_type":"horizons-task","trial_index":44,"time_elapsed":1042013,"internal_node_id":"0.0-40.0","task_version":"0.2"},{"response_times":[1192.8049999986542,924.1049999981187,1200.4850000012666,683.8500000012573,1216.2450000033714],"keys_pressed":["leftarrow","rightarrow","rightarrow","leftarrow","rightarrow"],"horizon":5,"forced_choices":["leftarrow","rightarrow","rightarrow","leftarrow"],"right_color":"lightblue","left_color":"orange","left_mu":40,"right_mu":10,"left_numbers":[36,23,44,35,53],"right_numbers":[11,7,18,6,26],"points_earned":122,"phase":"task","trial_type":"horizons-task","trial_index":45,"time_elapsed":1048737,"internal_node_id":"0.0-41.0","task_version":"0.2"},{"response_times":[813.0499999970198,680.4400000036694,539.0100000002421,1031.7250000007916,1018.4450000014622],"keys_pressed":["rightarrow","leftarrow","rightarrow","leftarrow","leftarrow"],"horizon":5,"forced_choices":["rightarrow","leftarrow","rightarrow","leftarrow"],"right_color":"orange","left_color":"lightblue","left_mu":60,"right_mu":52,"left_numbers":[48,63,63,56,59],"right_numbers":[48,43,64,56,62],"points_earned":290,"phase":"task","trial_type":"horizons-task","trial_index":46,"time_elapsed":1054327,"internal_node_id":"0.0-42.0","task_version":"0.2"},{"response_times":[1171.4550000033341,557.93999999878,769.199999995064,725.9100000008475,974.9099999971222,717.1649999944493,558.8500000014901,480.83999999659136,885.890000004787,598.3049999994691],"keys_pressed":["leftarrow","rightarrow","rightarrow","rightarrow","leftarrow","leftarrow","rightarrow","rightarrow","leftarrow","rightarrow"],"horizon":10,"forced_choices":["leftarrow","rightarrow","rightarrow","rightarrow"],"right_color":"orange","left_color":"lightblue","left_mu":40,"right_mu":48,"left_numbers":[47,46,40,38,41,41,37,47,41,38],"right_numbers":[47,53,49,39,55,54,48,31,40,59],"points_earned":449,"phase":"task","trial_type":"horizons-task","trial_index":47,"time_elapsed":1063276,"internal_node_id":"0.0-43.0","task_version":"0.2"},{"response_times":[1183.4349999988917,1351.8750000004657,487.320000000298,783.3700000047684,2365.9200000038836,596.2599999983795,624.8399999968242,532.1899999980815,1069.4399999994785,386.7899999967776],"keys_pressed":["leftarrow","leftarrow","rightarrow","rightarrow","leftarrow","leftarrow","leftarrow","leftarrow","leftarrow","leftarrow"],"horizon":10,"forced_choices":["leftarrow","leftarrow","rightarrow","rightarrow"],"right_color":"lightblue","left_color":"orange","left_mu":60,"right_mu":64,"left_numbers":[55,64,66,44,60,59,58,63,63,72],"right_numbers":[69,62,48,65,55,66,75,58,71,64],"points_earned":607,"phase":"task","trial_type":"horizons-task","trial_index":48,"time_elapsed":1074166,"internal_node_id":"0.0-44.0","task_version":"0.2"},{"response_times":[936.8099999993574,1124.0150000012945,1122.094999998808,763.1750000002794,756.6799999985378,624.0000000034925,396.1849999977276,764.015000000596,409.4199999962002,438.1300000024494],"keys_pressed":["rightarrow","rightarrow","rightarrow","leftarrow","leftarrow","leftarrow","leftarrow","leftarrow","leftarrow","leftarrow"],"horizon":10,"forced_choices":["rightarrow","rightarrow","rightarrow","leftarrow"],"right_color":"lightblue","left_color":"orange","left_mu":60,"right_mu":48,"left_numbers":[57,36,60,62,65,58,61,40,69,73],"right_numbers":[59,54,50,65,47,23,62,55,49,40],"points_earned":591,"phase":"task","trial_type":"horizons-task","trial_index":49,"time_elapsed":1083009,"internal_node_id":"0.0-45.0","task_version":"0.2"},{"response_times":[1812.7749999985099,1306.2149999968242,949.5250000036322,499.68000000086613,612.9350000044797],"keys_pressed":["leftarrow","rightarrow","leftarrow","rightarrow","rightarrow"],"horizon":5,"forced_choices":["leftarrow","rightarrow","leftarrow","rightarrow"],"right_color":"orange","left_color":"lightblue","left_mu":60,"right_mu":80,"left_numbers":[71,56,42,63,67],"right_numbers":[83,78,69,82,75],"points_earned":348,"phase":"task","trial_type":"horizons-task","trial_index":50,"time_elapsed":1089714,"internal_node_id":"0.0-46.0","task_version":"0.2"},{"view_history":"[{\"page_index\":0,\"viewing_time\":8313.05499999877},{\"page_index\":1,\"viewing_time\":3110.4049999993294}]","rt":11424.689999999711,"trial_type":"instructions","trial_index":51,"time_elapsed":1101148,"internal_node_id":"0.0-47.0","task_version":"0.2"},{"response_times":[1606.245000002673,590.4399999999441,729.9449999991339,604.5749999976251,1546.784999998752,459.2550000017509,636.109999999404,645.2200000057928,542.2849999957252,468.8250000036787],"keys_pressed":["leftarrow","rightarrow","leftarrow","rightarrow","leftarrow","leftarrow","rightarrow","leftarrow","leftarrow","leftarrow"],"horizon":10,"forced_choices":["leftarrow","rightarrow","leftarrow","rightarrow"],"right_color":"orange","left_color":"lightblue","left_mu":40,"right_mu":20,"left_numbers":[33,43,35,41,37,39,46,30,36,46],"right_numbers":[18,31,10,22,26,39,24,11,17,19],"points_earned":333,"phase":"task","trial_type":"horizons-task","trial_index":52,"time_elapsed":1110501,"internal_node_id":"0.0-48.0","task_version":"0.2"},{"response_times":[676.355000003241,4953.515000001062,1095.0900000024121,1322.7049999986775,834.8849999965169,1145.369999998482,569.3349999999627,586.9799999999814,617.7600000009406,610.5400000016671],"keys_pressed":["rightarrow","rightarrow","leftarrow","rightarrow","leftarrow","leftarrow","leftarrow","leftarrow","leftarrow","leftarrow"],"horizon":10,"forced_choices":["rightarrow","rightarrow","leftarrow","rightarrow"],"right_color":"lightblue","left_color":"orange","left_mu":60,"right_mu":40,"left_numbers":[75,56,55,62,51,69,57,58,73,55],"right_numbers":[43,35,31,43,47,32,42,40,46,46],"points_earned":539,"phase":"task","trial_type":"horizons-task","trial_index":53,"time_elapsed":1124420,"internal_node_id":"0.0-49.0","task_version":"0.2"},{"response_times":[3539.190000002971,698.365000003716,1037.0750000001863,794.7899999998044,773.484999998007,935.7000000018161,409.0550000036601,363.53499999665655,378.4250000026077,490.1450000035111],"keys_pressed":["rightarrow","leftarrow","leftarrow","rightarrow","rightarrow","rightarrow","rightarrow","rightarrow","rightarrow","rightarrow"],"horizon":10,"forced_choices":["rightarrow","leftarrow","leftarrow","rightarrow"],"right_color":"orange","left_color":"lightblue","left_mu":60,"right_mu":72,"left_numbers":[48,63,62,65,66,70,47,60,73,66],"right_numbers":[79,62,77,71,61,64,80,65,75,73],"points_earned":693,"phase":"task","trial_type":"horizons-task","trial_index":54,"time_elapsed":1135348,"internal_node_id":"0.0-50.0","task_version":"0.2"},{"response_times":[2389.279999995837,984.3199999958742,807.7800000028219,1180.4550000017043,2013.580000006128],"keys_pressed":["rightarrow","leftarrow","leftarrow","leftarrow","rightarrow"],"horizon":5,"forced_choices":["rightarrow","leftarrow","leftarrow","leftarrow"],"right_color":"orange","left_color":"lightblue","left_mu":40,"right_mu":44,"left_numbers":[45,32,45,49,47],"right_numbers":[42,36,40,36,51],"points_earned":219,"phase":"task","trial_type":"horizons-task","trial_index":55,"time_elapsed":1144232,"internal_node_id":"0.0-51.0","task_version":"0.2"},{"response_times":[1033.8300000003073,522.069999998901,998.8099999972619,942.9399999934249,1645.6199999954551,979.2049999958836,560.4299999976065,656.2600000035018,1086.10999999661,787.4349999981932],"keys_pressed":["leftarrow","rightarrow","rightarrow","leftarrow","rightarrow","leftarrow","rightarrow","rightarrow","leftarrow","rightarrow"],"horizon":10,"forced_choices":["leftarrow","rightarrow","rightarrow","leftarrow"],"right_color":"orange","left_color":"lightblue","left_mu":40,"right_mu":44,"left_numbers":[37,45,41,52,30,46,47,30,67,38],"right_numbers":[40,49,39,43,31,59,47,42,44,50],"points_earned":460,"phase":"task","trial_type":"horizons-task","trial_index":56,"time_elapsed":1154951,"internal_node_id":"0.0-52.0","task_version":"0.2"},{"response_times":[1840.5199999979232,616.4250000000466,793.3550000016112,781.8499999993946,724.0449999952689,935.0300000007264,606.2099999981001,728.8899999985006,725.4000000031665,445.44499999750406],"keys_pressed":["leftarrow","rightarrow","leftarrow","rightarrow","leftarrow","leftarrow","rightarrow","leftarrow","leftarrow","leftarrow"],"horizon":10,"forced_choices":["leftarrow","rightarrow","leftarrow","rightarrow"],"right_color":"lightblue","left_color":"orange","left_mu":40,"right_mu":32,"left_numbers":[38,33,51,35,48,36,13,52,38,42],"right_numbers":[36,36,32,30,33,22,27,33,23,23],"points_earned":398,"phase":"task","trial_type":"horizons-task","trial_index":57,"time_elapsed":1164657,"internal_node_id":"0.0-53.0","task_version":"0.2"},{"response_times":[762.4950000026729,1057.64500000095,1098.39500000095,1225.5999999979977,1095.3850000007078],"keys_pressed":["leftarrow","leftarrow","rightarrow","leftarrow","leftarrow"],"horizon":5,"forced_choices":["leftarrow","leftarrow","rightarrow","leftarrow"],"right_color":"orange","left_color":"lightblue","left_mu":60,"right_mu":80,"left_numbers":[67,66,63,81,48],"right_numbers":[73,71,78,81,73],"points_earned":340,"phase":"task","trial_type":"horizons-task","trial_index":58,"time_elapsed":1171429,"internal_node_id":"0.0-54.0","task_version":"0.2"},{"response_times":[864.125,590.5200000053737,520.3349999936763,1014.5000000048894,1628.8599999970756,1207.2499999993015,1147.9000000036322,630.8500000012573,892.1300000001211,690.4299999950454],"keys_pressed":["leftarrow","rightarrow","leftarrow","leftarrow","leftarrow","leftarrow","rightarrow","leftarrow","rightarrow","leftarrow"],"horizon":10,"forced_choices":["leftarrow","rightarrow","leftarrow","leftarrow"],"right_color":"orange","left_color":"lightblue","left_mu":60,"right_mu":52,"left_numbers":[61,61,61,66,53,52,57,38,65,57],"right_numbers":[53,54,50,56,50,48,59,46,48,54],"points_earned":549,"phase":"task","trial_type":"horizons-task","trial_index":59,"time_elapsed":1182124,"internal_node_id":"0.0-55.0","task_version":"0.2"},{"response_times":[919.9499999959953,1640.9050000002608,917.3550000051036,1388.6600000041071,1272.8449999995064],"keys_pressed":["rightarrow","leftarrow","rightarrow","rightarrow","leftarrow"],"horizon":5,"forced_choices":["rightarrow","leftarrow","rightarrow","rightarrow"],"right_color":"lightblue","left_color":"orange","left_mu":40,"right_mu":52,"left_numbers":[45,45,44,43,46],"right_numbers":[60,60,58,64,37],"points_earned":273,"phase":"task","trial_type":"horizons-task","trial_index":60,"time_elapsed":1189771,"internal_node_id":"0.0-56.0","task_version":"0.2"},{"response_times":[988.955000000773,733.5200000016484,652.2550000008196,1046.30500000366,818.2100000048522],"keys_pressed":["rightarrow","leftarrow","rightarrow","rightarrow","leftarrow"],"horizon":5,"forced_choices":["rightarrow","leftarrow","rightarrow","rightarrow"],"right_color":"lightblue","left_color":"orange","left_mu":40,"right_mu":28,"left_numbers":[38,36,43,38,47],"right_numbers":[20,25,38,46,28],"points_earned":187,"phase":"task","trial_type":"horizons-task","trial_index":61,"time_elapsed":1195518,"internal_node_id":"0.0-57.0","task_version":"0.2"},{"response_times":[1370.244999998249,950.2999999970198,463.83000000054017,901.2399999992922,807.5949999985751,912.2800000042189,503.45999999996275,886.0050000003539,716.8249999957625,776.230000003241],"keys_pressed":["rightarrow","leftarrow","rightarrow","rightarrow","leftarrow","leftarrow","leftarrow","rightarrow","leftarrow","leftarrow"],"horizon":10,"forced_choices":["rightarrow","leftarrow","rightarrow","rightarrow"],"right_color":"lightblue","left_color":"orange","left_mu":40,"right_mu":28,"left_numbers":[33,32,32,51,41,46,40,28,45,48],"right_numbers":[38,30,23,38,29,31,21,28,20,28],"points_earned":379,"phase":"task","trial_type":"horizons-task","trial_index":62,"time_elapsed":1205317,"internal_node_id":"0.0-58.0","task_version":"0.2"},{"response_times":[1650.8400000021793,690.5200000037439,933.5849999990314,678.269999996759,966.6550000037532,535.610000006156,516.3350000001956,1053.169999999227,613.3800000024494,392.89999999897555],"keys_pressed":["leftarrow","rightarrow","rightarrow","rightarrow","leftarrow","leftarrow","leftarrow","rightarrow","leftarrow","leftarrow"],"horizon":10,"forced_choices":["leftarrow","rightarrow","rightarrow","rightarrow"],"right_color":"lightblue","left_color":"orange","left_mu":40,"right_mu":36,"left_numbers":[26,43,31,31,41,56,32,33,38,41],"right_numbers":[34,33,41,47,26,23,38,27,27,35],"points_earned":382,"phase":"task","trial_type":"horizons-task","trial_index":63,"time_elapsed":1214859,"internal_node_id":"0.0-59.0","task_version":"0.2"},{"response_times":[1971.5300000023562,434.97000000206754,916.2100000029895,519.1149999953341,868.9549999982119,438.0999999991618,410.71000000368804,333.3899999996647,361.9800000016112,274.2050000014715],"keys_pressed":["leftarrow","leftarrow","leftarrow","rightarrow","leftarrow","leftarrow","leftarrow","leftarrow","leftarrow","leftarrow"],"horizon":10,"forced_choices":["leftarrow","leftarrow","leftarrow","rightarrow"],"right_color":"orange","left_color":"lightblue","left_mu":60,"right_mu":68,"left_numbers":[50,73,58,62,72,65,59,66,40,55],"right_numbers":[66,66,60,64,64,69,67,50,57,77],"points_earned":602,"phase":"task","trial_type":"horizons-task","trial_index":64,"time_elapsed":1222909,"internal_node_id":"0.0-60.0","task_version":"0.2"},{"response_times":[789.3350000013597,538.3900000015274,1047.6699999999255,1199.809999998426,568.8300000037998],"keys_pressed":["leftarrow","rightarrow","rightarrow","rightarrow","rightarrow"],"horizon":5,"forced_choices":["leftarrow","rightarrow","rightarrow","rightarrow"],"right_color":"orange","left_color":"lightblue","left_mu":60,"right_mu":90,"left_numbers":[54,63,78,65,64],"right_numbers":[93,78,98,87,97],"points_earned":414,"phase":"task","trial_type":"horizons-task","trial_index":65,"time_elapsed":1228558,"internal_node_id":"0.0-61.0","task_version":"0.2"},{"response_times":[1222.8350000004284,522.1150000069756,1413.1400000043213,861.3499999991618,1220.479999996489],"keys_pressed":["leftarrow","leftarrow","leftarrow","rightarrow","leftarrow"],"horizon":5,"forced_choices":["leftarrow","leftarrow","leftarrow","rightarrow"],"right_color":"orange","left_color":"lightblue","left_mu":60,"right_mu":68,"left_numbers":[51,52,71,72,49],"right_numbers":[51,78,73,67,61],"points_earned":290,"phase":"task","trial_type":"horizons-task","trial_index":66,"time_elapsed":1235303,"internal_node_id":"0.0-62.0","task_version":"0.2"},{"response_times":[657.1699999985285,852.6449999990873,738.5399999984074,558.3450000050943,814.6199999973178],"keys_pressed":["rightarrow","leftarrow","rightarrow","leftarrow","leftarrow"],"horizon":5,"forced_choices":["rightarrow","leftarrow","rightarrow","leftarrow"],"right_color":"lightblue","left_color":"orange","left_mu":60,"right_mu":30,"left_numbers":[65,64,63,38,52],"right_numbers":[24,27,28,24,19],"points_earned":206,"phase":"task","trial_type":"horizons-task","trial_index":67,"time_elapsed":1240430,"internal_node_id":"0.0-63.0","task_version":"0.2"},{"response_times":[550.9899999960326,701.6399999991991,717.2900000005029,949.3700000019744,845.3800000061747,817.015000000596,761.8300000031013,673.9349999988917,927.6900000039022,518.7300000034738],"keys_pressed":["rightarrow","rightarrow","leftarrow","leftarrow","rightarrow","rightarrow","rightarrow","rightarrow","rightarrow","rightarrow"],"horizon":10,"forced_choices":["rightarrow","rightarrow","leftarrow","leftarrow"],"right_color":"orange","left_color":"lightblue","left_mu":40,"right_mu":70,"left_numbers":[41,37,30,43,35,30,35,40,42,31],"right_numbers":[67,68,56,84,66,75,74,76,65,70],"points_earned":634,"phase":"task","trial_type":"horizons-task","trial_index":68,"time_elapsed":1249406,"internal_node_id":"0.0-64.0","task_version":"0.2"},{"response_times":[801.7400000025518,585.8599999991711,879.1150000032503,615.5099999960512,479.974999994738,672.9200000045821,615.744999995688,748.4949999998789,877.5250000033993,614.3200000005309],"keys_pressed":["leftarrow","rightarrow","leftarrow","rightarrow","leftarrow","rightarrow","leftarrow","leftarrow","rightarrow","rightarrow"],"horizon":10,"forced_choices":["leftarrow","rightarrow","leftarrow","rightarrow"],"right_color":"lightblue","left_color":"orange","left_mu":40,"right_mu":36,"left_numbers":[31,34,36,34,38,38,34,34,50,21],"right_numbers":[33,30,30,22,35,49,36,21,24,27],"points_earned":325,"phase":"task","trial_type":"horizons-task","trial_index":69,"time_elapsed":1257807,"internal_node_id":"0.0-65.0","task_version":"0.2"},{"response_times":[692.5300000002608,818.7349999933504,680.2600000009406,904.9999999988358,952.0999999949709,745.0649999955203,2378.6949999993667,785.665000003064,528.1299999987241,431.284999998752],"keys_pressed":["leftarrow","leftarrow","rightarrow","rightarrow","rightarrow","rightarrow","leftarrow","rightarrow","rightarrow","rightarrow"],"horizon":10,"forced_choices":["leftarrow","leftarrow","rightarrow","rightarrow"],"right_color":"lightblue","left_color":"orange","left_mu":40,"right_mu":60,"left_numbers":[40,55,52,34,49,21,23,25,31,37],"right_numbers":[70,53,57,66,60,49,48,66,70,53],"points_earned":539,"phase":"task","trial_type":"horizons-task","trial_index":70,"time_elapsed":1268241,"internal_node_id":"0.0-66.0","task_version":"0.2"},{"response_times":[1083.6899999994785,597.9399999994785,957.3099999979604,957.5699999986682,975.8650000002235],"keys_pressed":["rightarrow","rightarrow","leftarrow","rightarrow","leftarrow"],"horizon":5,"forced_choices":["rightarrow","rightarrow","leftarrow","rightarrow"],"right_color":"lightblue","left_color":"orange","left_mu":40,"right_mu":32,"left_numbers":[39,42,32,45,38],"right_numbers":[18,27,28,35,36],"points_earned":150,"phase":"task","trial_type":"horizons-task","trial_index":71,"time_elapsed":1274330,"internal_node_id":"0.0-67.0","task_version":"0.2"},{"response_times":[557.3100000037812,621.7000000032131,969.7250000026543,675.8249999985565,1019.3050000017975,1107.3549999999814,768.759999999078,782.0949999950826,594.8999999966472,656.494999995688],"keys_pressed":["rightarrow","rightarrow","leftarrow","rightarrow","leftarrow","leftarrow","leftarrow","rightarrow","rightarrow","rightarrow"],"horizon":10,"forced_choices":["rightarrow","rightarrow","leftarrow","rightarrow"],"right_color":"lightblue","left_color":"orange","left_mu":40,"right_mu":32,"left_numbers":[46,32,29,54,39,54,24,42,41,39],"right_numbers":[31,30,40,33,23,29,36,42,21,31],"points_earned":334,"phase":"task","trial_type":"horizons-task","trial_index":72,"time_elapsed":1283590,"internal_node_id":"0.0-68.0","task_version":"0.2"},{"response_times":[839.0100000035018,746.2650000015274,1005.4999999993015,942.125000001397,815.9599999997299,937.4249999965541,558.9099999996834,1133.8150000008754,514.414999997709,440.6549999983981],"keys_pressed":["rightarrow","leftarrow","leftarrow","rightarrow","leftarrow","leftarrow","leftarrow","leftarrow","leftarrow","leftarrow"],"horizon":10,"forced_choices":["rightarrow","leftarrow","leftarrow","rightarrow"],"right_color":"orange","left_color":"lightblue","left_mu":60,"right_mu":56,"left_numbers":[53,76,64,44,63,69,60,56,49,60],"right_numbers":[59,43,62,49,55,63,52,49,51,47],"points_earned":605,"phase":"task","trial_type":"horizons-task","trial_index":73,"time_elapsed":1293031,"internal_node_id":"0.0-69.0","task_version":"0.2"},{"response_times":[645.7399999997579,898.7850000048056,2637.404999994207,1373.0700000014622,685.1550000065472],"keys_pressed":["rightarrow","rightarrow","leftarrow","leftarrow","rightarrow"],"horizon":5,"forced_choices":["rightarrow","rightarrow","leftarrow","leftarrow"],"right_color":"lightblue","left_color":"orange","left_mu":40,"right_mu":52,"left_numbers":[39,35,25,44,41],"right_numbers":[56,62,48,64,60],"points_earned":247,"phase":"task","trial_type":"horizons-task","trial_index":74,"time_elapsed":1300780,"internal_node_id":"0.0-70.0","task_version":"0.2"},{"response_times":[1764.3150000004098,16242.10000000312,741.8550000002142,776.6300000001211,598.0199999976903,542.7199999976438,429.07499999995343,362.99999999743886,499.45499999728054,341.2650000026915],"keys_pressed":["leftarrow","leftarrow","rightarrow","leftarrow","rightarrow","rightarrow","rightarrow","rightarrow","rightarrow","rightarrow"],"horizon":10,"forced_choices":["leftarrow","leftarrow","rightarrow","leftarrow"],"right_color":"orange","left_color":"lightblue","left_mu":60,"right_mu":80,"left_numbers":[63,61,63,50,58,56,66,70,56,58],"right_numbers":[107,78,81,76,86,82,88,74,81,79],"points_earned":745,"phase":"task","trial_type":"horizons-task","trial_index":75,"time_elapsed":1324585,"internal_node_id":"0.0-71.0","task_version":"0.2"},{"response_times":[825.8949999946635,605.5000000051223,1009.3150000029709,534.1899999985471,561.5000000032596],"keys_pressed":["rightarrow","leftarrow","leftarrow","rightarrow","rightarrow"],"horizon":5,"forced_choices":["rightarrow","leftarrow","leftarrow","rightarrow"],"right_color":"orange","left_color":"lightblue","left_mu":60,"right_mu":56,"left_numbers":[61,59,53,69,55],"right_numbers":[60,50,63,64,49],"points_earned":285,"phase":"task","trial_type":"horizons-task","trial_index":76,"time_elapsed":1329634,"internal_node_id":"0.0-72.0","task_version":"0.2"},{"response_times":[738.8600000047591,578.8450000034645,732.2449999991804,1871.5000000009313,859.3699999982491],"keys_pressed":["rightarrow","rightarrow","leftarrow","leftarrow","leftarrow"],"horizon":5,"forced_choices":["rightarrow","rightarrow","leftarrow","leftarrow"],"right_color":"orange","left_color":"lightblue","left_mu":40,"right_mu":70,"left_numbers":[43,36,35,55,30],"right_numbers":[76,72,57,68,65],"points_earned":268,"phase":"task","trial_type":"horizons-task","trial_index":77,"time_elapsed":1335926,"internal_node_id":"0.0-73.0","task_version":"0.2"},{"response_times":[4563.945000001695,634.6400000038557,593.1150000032503,751.6300000061747,1388.2599999997765,677.0749999994878,596.4949999980163,560.2849999996834,550.4950000031386,986.9650000035763],"keys_pressed":["leftarrow","rightarrow","rightarrow","leftarrow","rightarrow","leftarrow","leftarrow","leftarrow","rightarrow","leftarrow"],"horizon":10,"forced_choices":["leftarrow","rightarrow","rightarrow","leftarrow"],"right_color":"lightblue","left_color":"orange","left_mu":40,"right_mu":28,"left_numbers":[47,40,37,34,49,35,29,47,44,29],"right_numbers":[21,38,32,23,23,33,31,26,17,26],"points_earned":331,"phase":"task","trial_type":"horizons-task","trial_index":78,"time_elapsed":1348769,"internal_node_id":"0.0-74.0","task_version":"0.2"},{"response_times":[1745.385000001872,762.9399999934249,752.5400000014342,591.2150000005495,639.4749999963678,818.2749999978114,441.9850000049919,531.5350000020117,487.1100000019651,364.45999999693595],"keys_pressed":["rightarrow","leftarrow","leftarrow","leftarrow","rightarrow","rightarrow","rightarrow","rightarrow","rightarrow","rightarrow"],"horizon":10,"forced_choices":["rightarrow","leftarrow","leftarrow","leftarrow"],"right_color":"orange","left_color":"lightblue","left_mu":60,"right_mu":72,"left_numbers":[52,60,64,57,63,55,50,65,68,65],"right_numbers":[70,57,74,75,73,74,61,74,78,72],"points_earned":683,"phase":"task","trial_type":"horizons-task","trial_index":79,"time_elapsed":1357413,"internal_node_id":"0.0-75.0","task_version":"0.2"},{"response_times":[776.9649999972899,2356.169999999227,977.7450000036042,759.6249999988358,717.7100000046194,21980.84999999986,651.474999998929,567.2800000028219,577.1099999984726,576.2749999994412],"keys_pressed":["rightarrow","rightarrow","leftarrow","leftarrow","leftarrow","leftarrow","leftarrow","leftarrow","leftarrow","leftarrow"],"horizon":10,"forced_choices":["rightarrow","rightarrow","leftarrow","leftarrow"],"right_color":"lightblue","left_color":"orange","left_mu":60,"right_mu":48,"left_numbers":[73,35,63,66,58,72,67,70,64,62],"right_numbers":[42,44,59,45,50,45,47,50,40,36],"points_earned":608,"phase":"task","trial_type":"horizons-task","trial_index":80,"time_elapsed":1388868,"internal_node_id":"0.0-76.0","task_version":"0.2"},{"response_times":[885.9049999956042,695.060000005411,1010.6200000010431,897.0249999985099,1497.2200000048615],"keys_pressed":["rightarrow","leftarrow","leftarrow","leftarrow","rightarrow"],"horizon":5,"forced_choices":["rightarrow","leftarrow","leftarrow","leftarrow"],"right_color":"orange","left_color":"lightblue","left_mu":40,"right_mu":70,"left_numbers":[31,42,55,37,49],"right_numbers":[72,62,77,71,71],"points_earned":277,"phase":"task","trial_type":"horizons-task","trial_index":81,"time_elapsed":1395360,"internal_node_id":"0.0-77.0","task_version":"0.2"},{"response_times":[800.8100000007544,630.8050000006333,716.4699999995064,534.6750000026077,1617.4250000040047,676.5150000064168,457.95499999797903,482.585000005085,400.000000001397,401.96000000298955],"keys_pressed":["rightarrow","rightarrow","rightarrow","leftarrow","leftarrow","rightarrow","rightarrow","rightarrow","rightarrow","rightarrow"],"horizon":10,"forced_choices":["rightarrow","rightarrow","rightarrow","leftarrow"],"right_color":"lightblue","left_color":"orange","left_mu":40,"right_mu":60,"left_numbers":[34,42,37,48,29,25,40,24,57,30],"right_numbers":[46,49,53,56,57,65,62,46,58,55],"points_earned":511,"phase":"task","trial_type":"horizons-task","trial_index":82,"time_elapsed":1403594,"internal_node_id":"0.0-78.0","task_version":"0.2"},{"response_times":[780.0300000016578,756.294999999227,566.4650000035763,882.6199999966193,915.0550000048243],"keys_pressed":["leftarrow","leftarrow","rightarrow","rightarrow","rightarrow"],"horizon":5,"forced_choices":["leftarrow","leftarrow","rightarrow","rightarrow"],"right_color":"orange","left_color":"lightblue","left_mu":60,"right_mu":68,"left_numbers":[59,69,54,63,54],"right_numbers":[73,78,78,60,67],"points_earned":333,"phase":"task","trial_type":"horizons-task","trial_index":83,"time_elapsed":1409005,"internal_node_id":"0.0-79.0","task_version":"0.2"},{"response_times":[803.7849999964237,919.925000002142,663.2299999983516,971.2650000001304,3260.5550000006333,1316.68000000366,1107.6800000008661,1640.0449999999255,288.6949999956414,454.4599999936763],"keys_pressed":["leftarrow","leftarrow","rightarrow","leftarrow","leftarrow","rightarrow","rightarrow","leftarrow","leftarrow","leftarrow"],"horizon":10,"forced_choices":["leftarrow","leftarrow","rightarrow","leftarrow"],"right_color":"orange","left_color":"lightblue","left_mu":40,"right_mu":20,"left_numbers":[35,40,48,46,42,43,39,41,30,39],"right_numbers":[18,11,30,22,18,13,25,37,17,18],"points_earned":341,"phase":"task","trial_type":"horizons-task","trial_index":84,"time_elapsed":1421941,"internal_node_id":"0.0-80.0","task_version":"0.2"},{"response_times":[697.2299999978859,1010.5449999973644,1110.8300000051968,504.9300000029616,572.4399999964517,442.53500000201166,276.5349999971222,222.32000000076368,344.0000000046566,440.32500000321306],"keys_pressed":["leftarrow","rightarrow","leftarrow","rightarrow","rightarrow","rightarrow","rightarrow","rightarrow","rightarrow","rightarrow"],"horizon":10,"forced_choices":["leftarrow","rightarrow","leftarrow","rightarrow"],"right_color":"orange","left_color":"lightblue","left_mu":60,"right_mu":80,"left_numbers":[59,44,61,58,52,50,59,63,58,58],"right_numbers":[81,78,87,83,73,83,96,74,85,72],"points_earned":764,"phase":"task","trial_type":"horizons-task","trial_index":85,"time_elapsed":1429091,"internal_node_id":"0.0-81.0","task_version":"0.2"},{"response_times":[695.5200000011828,678.045000000624,788.4299999931827,599.9900000025518,448.400000001071],"keys_pressed":["leftarrow","rightarrow","leftarrow","rightarrow","leftarrow"],"horizon":5,"forced_choices":["leftarrow","rightarrow","leftarrow","rightarrow"],"right_color":"lightblue","left_color":"orange","left_mu":40,"right_mu":36,"left_numbers":[36,41,44,45,32],"right_numbers":[33,33,40,37,32],"points_earned":182,"phase":"task","trial_type":"horizons-task","trial_index":86,"time_elapsed":1433807,"internal_node_id":"0.0-82.0","task_version":"0.2"},{"response_times":[589.7799999946728,696.6049999974202,620.159999998752,524.8050000008661,1518.4149999986403,620.564999997383,668.9899999983609,452.97500000032596,537.5500000007451,312.5149999978021],"keys_pressed":["rightarrow","leftarrow","rightarrow","leftarrow","leftarrow","leftarrow","leftarrow","leftarrow","leftarrow","leftarrow"],"horizon":10,"forced_choices":["rightarrow","leftarrow","rightarrow","leftarrow"],"right_color":"lightblue","left_color":"orange","left_mu":60,"right_mu":30,"left_numbers":[64,57,60,58,68,60,67,74,68,54],"right_numbers":[15,31,28,30,30,29,26,36,24,28],"points_earned":549,"phase":"task","trial_type":"horizons-task","trial_index":87,"time_elapsed":1441858,"internal_node_id":"0.0-83.0","task_version":"0.2"},{"response_times":[784.5850000013597,775.6999999983236,542.105000000447,683.6800000020303,1801.9849999982398],"keys_pressed":["rightarrow","rightarrow","leftarrow","rightarrow","leftarrow"],"horizon":5,"forced_choices":["rightarrow","rightarrow","leftarrow","rightarrow"],"right_color":"orange","left_color":"lightblue","left_mu":60,"right_mu":56,"left_numbers":[65,66,58,70,42],"right_numbers":[51,48,59,49,57],"points_earned":248,"phase":"task","trial_type":"horizons-task","trial_index":88,"time_elapsed":1447952,"internal_node_id":"0.0-84.0","task_version":"0.2"},{"response_times":[1653.1150000011548,681.1099999975413,876.6299999989569,754.0250000020023,964.8600000001024,678.5400000007357,577.1300000052433,563.4500000015832,464.7899999981746,445.18000000249594],"keys_pressed":["rightarrow","leftarrow","rightarrow","leftarrow","rightarrow","leftarrow","leftarrow","leftarrow","leftarrow","leftarrow"],"horizon":10,"forced_choices":["rightarrow","leftarrow","rightarrow","leftarrow"],"right_color":"lightblue","left_color":"orange","left_mu":60,"right_mu":40,"left_numbers":[66,56,52,55,64,56,52,64,53,65],"right_numbers":[39,39,51,43,30,39,35,36,42,38],"points_earned":521,"phase":"task","trial_type":"horizons-task","trial_index":89,"time_elapsed":1457120,"internal_node_id":"0.0-85.0","task_version":"0.2"},{"response_times":[1626.8300000010058,750.9449999998324,682.4249999991152,739.204999997979,915.7950000008568,1794.1250000004657,549.8599999991711,601.1849999993574,508.6299999966286,552.4799999983516],"keys_pressed":["leftarrow","leftarrow","leftarrow","rightarrow","rightarrow","rightarrow","rightarrow","rightarrow","rightarrow","rightarrow"],"horizon":10,"forced_choices":["leftarrow","leftarrow","leftarrow","rightarrow"],"right_color":"lightblue","left_color":"orange","left_mu":60,"right_mu":64,"left_numbers":[55,62,65,54,60,56,64,52,66,60],"right_numbers":[37,61,50,65,64,68,61,55,60,68],"points_earned":623,"phase":"task","trial_type":"horizons-task","trial_index":90,"time_elapsed":1467350,"internal_node_id":"0.0-86.0","task_version":"0.2"},{"response_times":[895.105000003241,594.4450000023935,795.7800000004936,644.2400000013877,752.4549999942537],"keys_pressed":["rightarrow","rightarrow","leftarrow","rightarrow","leftarrow"],"horizon":5,"forced_choices":["rightarrow","rightarrow","leftarrow","rightarrow"],"right_color":"lightblue","left_color":"orange","left_mu":60,"right_mu":40,"left_numbers":[56,59,47,51,64],"right_numbers":[49,46,33,32,30],"points_earned":238,"phase":"task","trial_type":"horizons-task","trial_index":91,"time_elapsed":1472545,"internal_node_id":"0.0-87.0","task_version":"0.2"},{"rt":50906.84000000334,"responses":{"age":"20","gender-categorical":"Female","gender-free-response":"","ethnicity":"Not Hispanic or Latino","race":["White"],"language":"Yes","fluency":"Very well"},"survey":"demographics","trial_type":"survey-demo","trial_index":92,"time_elapsed":1523538,"internal_node_id":"0.0-88.0","task_version":"0.2"},{"rt":45282.93500000285,"responses":{"difficulty":"4","fun":"5","clarity":"5","strategy":"I did not use any strategy","feedback":"None"},"survey":"debrief","trial_type":"survey-debrief","trial_index":93,"time_elapsed":1568844,"internal_node_id":"0.0-89.0","task_version":"0.2","interactions":"[]"}]