[{"view_history":"[{\"page_index\":0,\"viewing_time\":40835}]","rt":40836,"trial_type":"instructions","trial_index":0,"time_elapsed":40842,"internal_node_id":"0.0-0.0","task_version":"0.2"},{"item_order":[1,7,2,10,16,8,3,13,4,11,15,0,14,5,6,9,12],"responses":{"Q02":"3","Q08":"0","Q03":"2","Q11":"1","Q17":"2","Q09":"3","Q04":"4","Q14":"1","Q05":"2","Q12":"1","Q16":"3","Q01":"1","Q15":"2","Q06":"3","Q07":"3","Q10":"4","Q13":"3"},"radio_events":[18077,23413,32764,42525,47061,52117,63676,73413,78276,81509,89404,120437,126477,133365,136357,145869,151709,152381,153093],"key_events":[],"mouse_events":[0,11541,11903,18077,23413,31589,32764,42525,47061,52117,62533,63676,73413,78276,81509,89404,102037,119461,120437,126477,133365,136357,145869,151709,152381,153093,154470],"rt":154470,"survey":"pswq","trial_type":"survey-template","trial_index":1,"time_elapsed":195325,"internal_node_id":"0.0-1.0","task_version":"0.2"},{"item_order":[7,8,14,5,2,3,11,15,0,1,6,13,12,9,4,10],"responses":{"Q08":"5","Q09":"4","Q15":"5","Q06":"5","Q03":"4","Q04":"4","Q12":"5","Q16":"4","Q01":"5","Q02":"5","Q07":"4","Q14":"4","Q13":"5","Q10":"1","Q05":"3","Q11":"4"},"radio_events":[23748,24699,25659,26906,27643,28299,29107,29883,31659,32451,33266,34451,35339,36043,37267,38251,78531,88091],"key_events":[],"mouse_events":[23115,23748,24699,25659,26394,26906,27643,28299,29107,29883,31659,32451,33266,34451,35339,36043,37267,38251,78531,87027,88091,90902],"rt":90903,"survey":"nfc","trial_type":"survey-template","trial_index":2,"time_elapsed":286238,"internal_node_id":"0.0-2.0","task_version":"0.2"},{"item_order":[2,8,6,12,5,3,7,10,9,1,4,11,0],"responses":{"Q03":"4","Q09":"2","Q07":"3","Q13":"4","Q06":"0","Q04":"4","Q08":"4","Q11":"4","Q10":"4","Q02":"3","Q05":"2","Q12":"3","Q01":"2"},"radio_events":[4930,5690,6737,7594,8857,10129,11507,18394,18842,19778,20555,21410,22361,32930,47842,75418,82282,85450],"key_events":[],"mouse_events":[4258,4930,5690,6737,7594,8857,10129,11507,18394,18842,19778,20555,21410,22361,32194,32930,47842,75418,82282,85450,86301],"rt":86301,"survey":"ius12","trial_type":"survey-template","trial_index":3,"time_elapsed":372550,"internal_node_id":"0.0-3.0","task_version":"0.2"},{"view_history":"[{\"page_index\":0,\"viewing_time\":50816},{\"page_index\":1,\"viewing_time\":5927},{\"page_index\":2,\"viewing_time\":2390},{\"page_index\":1,\"viewing_time\":9660},{\"page_index\":2,\"viewing_time\":21038},{\"page_index\":3,\"viewing_time\":13788},{\"page_index\":4,\"viewing_time\":23758},{\"page_index\":5,\"viewing_time\":10979},{\"page_index\":6,\"viewing_time\":17117},{\"page_index\":7,\"viewing_time\":17681},{\"page_index\":8,\"viewing_time\":15263},{\"page_index\":9,\"viewing_time\":21083}]","rt":209501,"trial_type":"instructions","trial_index":4,"time_elapsed":582053,"internal_node_id":"0.0-4.0-0.0","task_version":"0.2"},{"response_times":[2639,2268,951,1732,5043],"keys_pressed":["rightarrow","leftarrow","rightarrow","rightarrow","rightarrow"],"horizon":5,"forced_choices":["rightarrow","leftarrow","rightarrow","rightarrow"],"right_color":"lightblue","left_color":"orange","left_mu":40,"right_mu":20,"left_numbers":[33,37,41,35,32],"right_numbers":[16,23,21,19,14],"points_earned":107,"phase":"practice","trial_type":"horizons-task","trial_index":5,"time_elapsed":596208,"internal_node_id":"0.0-4.0-1.0","task_version":"0.2"},{"response_times":[5301,1386,998,710,1289,1014,3043,1388,870,1661],"keys_pressed":["leftarrow","leftarrow","rightarrow","rightarrow","leftarrow","rightarrow","leftarrow","leftarrow","leftarrow","leftarrow"],"horizon":10,"forced_choices":["leftarrow","leftarrow","rightarrow","rightarrow"],"right_color":"orange","left_color":"lightblue","left_mu":60,"right_mu":70,"left_numbers":[52,56,63,55,54,47,39,60,69,71],"right_numbers":[65,58,92,74,76,63,78,66,71,74],"points_earned":630,"phase":"practice","trial_type":"horizons-task","trial_index":6,"time_elapsed":615378,"internal_node_id":"0.0-4.0-2.0","task_version":"0.2"},{"view_history":"[{\"page_index\":0,\"viewing_time\":284782},{\"page_index\":1,\"viewing_time\":8207},{\"page_index\":2,\"viewing_time\":15161},{\"page_index\":3,\"viewing_time\":5752}]","rt":313902,"trial_type":"instructions","trial_index":7,"time_elapsed":929281,"internal_node_id":"0.0-4.0-3.0","task_version":"0.2"},{"responses":["true","false","true"],"num_errors":0,"rt":45133,"trial_type":"horizons-comprehension","trial_index":8,"time_elapsed":974419,"internal_node_id":"0.0-4.0-4.0","task_version":"0.2"},{"trial_type":"call-function","trial_index":9,"time_elapsed":974422,"internal_node_id":"0.0-5.0","task_version":"0.2"},{"view_history":"[{\"page_index\":0,\"viewing_time\":4266},{\"page_index\":1,\"viewing_time\":9136}]","rt":13402,"trial_type":"instructions","trial_index":10,"time_elapsed":987825,"internal_node_id":"0.0-6.0","task_version":"0.2"},{"response_times":[1928,1130,1957,1532,949],"keys_pressed":["leftarrow","leftarrow","leftarrow","rightarrow","leftarrow"],"horizon":5,"forced_choices":["leftarrow","leftarrow","leftarrow","rightarrow"],"right_color":"orange","left_color":"lightblue","left_mu":40,"right_mu":32,"left_numbers":[46,50,38,40,37],"right_numbers":[32,27,25,31,26],"points_earned":202,"phase":"task","trial_type":"horizons-task","trial_index":11,"time_elapsed":996849,"internal_node_id":"0.0-7.0","task_version":"0.2"},{"response_times":[5066,925,1739,1184,2327,1043,1248,728,550,483],"keys_pressed":["rightarrow","rightarrow","rightarrow","leftarrow","leftarrow","rightarrow","rightarrow","rightarrow","rightarrow","rightarrow"],"horizon":10,"forced_choices":["rightarrow","rightarrow","rightarrow","leftarrow"],"right_color":"lightblue","left_color":"orange","left_mu":60,"right_mu":90,"left_numbers":[75,54,65,66,58,62,65,65,69,52],"right_numbers":[101,81,94,108,108,77,82,87,76,82],"points_earned":804,"phase":"task","trial_type":"horizons-task","trial_index":12,"time_elapsed":1013649,"internal_node_id":"0.0-8.0","task_version":"0.2"},{"response_times":[1172,929,943,1295,1064,545,761,547,565,500],"keys_pressed":["leftarrow","rightarrow","leftarrow","rightarrow","rightarrow","leftarrow","leftarrow","leftarrow","leftarrow","leftarrow"],"horizon":10,"forced_choices":["leftarrow","rightarrow","leftarrow","rightarrow"],"right_color":"lightblue","left_color":"orange","left_mu":40,"right_mu":10,"left_numbers":[37,54,36,38,37,33,40,27,37,39],"right_numbers":[26,14,8,6,3,1,19,10,13,15],"points_earned":272,"phase":"task","trial_type":"horizons-task","trial_index":13,"time_elapsed":1023489,"internal_node_id":"0.0-9.0","task_version":"0.2"},{"response_times":[1109,748,940,821,614,541,640,943,1159,596],"keys_pressed":["leftarrow","rightarrow","leftarrow","leftarrow","leftarrow","leftarrow","rightarrow","rightarrow","leftarrow","leftarrow"],"horizon":10,"forced_choices":["leftarrow","rightarrow","leftarrow","leftarrow"],"right_color":"orange","left_color":"lightblue","left_mu":60,"right_mu":48,"left_numbers":[59,57,60,73,67,45,61,64,60,50],"right_numbers":[40,47,62,60,51,50,46,50,40,49],"points_earned":557,"phase":"task","trial_type":"horizons-task","trial_index":14,"time_elapsed":1033119,"internal_node_id":"0.0-10.0","task_version":"0.2"},{"response_times":[926,765,1648,659,750],"keys_pressed":["leftarrow","rightarrow","leftarrow","rightarrow","leftarrow"],"horizon":5,"forced_choices":["leftarrow","rightarrow","leftarrow","rightarrow"],"right_color":"lightblue","left_color":"orange","left_mu":40,"right_mu":20,"left_numbers":[48,32,38,30,27],"right_numbers":[17,29,12,18,9],"points_earned":160,"phase":"task","trial_type":"horizons-task","trial_index":15,"time_elapsed":1039389,"internal_node_id":"0.0-11.0","task_version":"0.2"},{"response_times":[631,1264,749,793,601,580,549,458,486,527],"keys_pressed":["leftarrow","rightarrow","rightarrow","leftarrow","rightarrow","rightarrow","rightarrow","rightarrow","rightarrow","rightarrow"],"horizon":10,"forced_choices":["leftarrow","rightarrow","rightarrow","leftarrow"],"right_color":"lightblue","left_color":"orange","left_mu":40,"right_mu":70,"left_numbers":[33,37,42,29,23,33,23,38,40,48],"right_numbers":[55,82,67,73,66,74,68,66,79,62],"points_earned":626,"phase":"task","trial_type":"horizons-task","trial_index":16,"time_elapsed":1047538,"internal_node_id":"0.0-12.0","task_version":"0.2"},{"response_times":[781,1278,1338,616,495],"keys_pressed":["rightarrow","leftarrow","rightarrow","leftarrow","leftarrow"],"horizon":5,"forced_choices":["rightarrow","leftarrow","rightarrow","leftarrow"],"right_color":"orange","left_color":"lightblue","left_mu":60,"right_mu":40,"left_numbers":[57,66,60,67,60],"right_numbers":[37,38,33,34,33],"points_earned":263,"phase":"task","trial_type":"horizons-task","trial_index":17,"time_elapsed":1053569,"internal_node_id":"0.0-13.0","task_version":"0.2"},{"response_times":[814,611,1067,1304,547,518,453,619,522,462],"keys_pressed":["rightarrow","rightarrow","leftarrow","leftarrow","rightarrow","rightarrow","rightarrow","leftarrow","rightarrow","rightarrow"],"horizon":10,"forced_choices":["rightarrow","rightarrow","leftarrow","leftarrow"],"right_color":"lightblue","left_color":"orange","left_mu":60,"right_mu":90,"left_numbers":[41,64,46,70,80,63,56,67,51,71],"right_numbers":[84,94,88,81,90,87,92,83,87,89],"points_earned":806,"phase":"task","trial_type":"horizons-task","trial_index":18,"time_elapsed":1061989,"internal_node_id":"0.0-14.0","task_version":"0.2"},{"response_times":[812,1104,603,572,2195,574,462,518,418,361],"keys_pressed":["leftarrow","rightarrow","leftarrow","rightarrow","rightarrow","rightarrow","leftarrow","rightarrow","rightarrow","rightarrow"],"horizon":10,"forced_choices":["leftarrow","rightarrow","leftarrow","rightarrow"],"right_color":"lightblue","left_color":"orange","left_mu":40,"right_mu":44,"left_numbers":[36,32,24,33,39,41,43,60,31,52],"right_numbers":[43,45,32,59,42,50,50,46,52,48],"points_earned":445,"phase":"task","trial_type":"horizons-task","trial_index":19,"time_elapsed":1071130,"internal_node_id":"0.0-15.0","task_version":"0.2"},{"response_times":[1031,486,741,1908,2853,1118,511,561,537,594],"keys_pressed":["rightarrow","leftarrow","leftarrow","leftarrow","rightarrow","rightarrow","leftarrow","leftarrow","leftarrow","leftarrow"],"horizon":10,"forced_choices":["rightarrow","leftarrow","leftarrow","leftarrow"],"right_color":"orange","left_color":"lightblue","left_mu":60,"right_mu":40,"left_numbers":[61,54,65,62,75,59,47,48,72,53],"right_numbers":[45,39,54,37,24,41,42,25,43,39],"points_earned":511,"phase":"task","trial_type":"horizons-task","trial_index":20,"time_elapsed":1082981,"internal_node_id":"0.0-16.0","task_version":"0.2"},{"response_times":[753,435,1777,2378,804],"keys_pressed":["rightarrow","leftarrow","leftarrow","rightarrow","rightarrow"],"horizon":5,"forced_choices":["rightarrow","leftarrow","leftarrow","rightarrow"],"right_color":"orange","left_color":"lightblue","left_mu":40,"right_mu":52,"left_numbers":[45,53,34,36,37],"right_numbers":[52,41,34,59,40],"points_earned":238,"phase":"task","trial_type":"horizons-task","trial_index":21,"time_elapsed":1090639,"internal_node_id":"0.0-17.0","task_version":"0.2"},{"response_times":[867,2760,2153,1022,622],"keys_pressed":["leftarrow","rightarrow","rightarrow","leftarrow","rightarrow"],"horizon":5,"forced_choices":["leftarrow","rightarrow","rightarrow","leftarrow"],"right_color":"lightblue","left_color":"orange","left_mu":40,"right_mu":60,"left_numbers":[31,41,45,45,49],"right_numbers":[46,66,63,53,60],"points_earned":265,"phase":"task","trial_type":"horizons-task","trial_index":22,"time_elapsed":1099569,"internal_node_id":"0.0-18.0","task_version":"0.2"},{"response_times":[855,573,1133,824,1302,679,634,657,749,391],"keys_pressed":["leftarrow","rightarrow","rightarrow","rightarrow","leftarrow","leftarrow","rightarrow","leftarrow","leftarrow","leftarrow"],"horizon":10,"forced_choices":["leftarrow","rightarrow","rightarrow","rightarrow"],"right_color":"orange","left_color":"lightblue","left_mu":40,"right_mu":48,"left_numbers":[48,37,44,43,51,33,28,41,37,43],"right_numbers":[54,48,44,42,37,44,42,53,39,53],"points_earned":429,"phase":"task","trial_type":"horizons-task","trial_index":23,"time_elapsed":1108890,"internal_node_id":"0.0-19.0","task_version":"0.2"},{"response_times":[3154,517,479,1387,1362,614,498,379,408,415],"keys_pressed":["rightarrow","leftarrow","rightarrow","leftarrow","leftarrow","leftarrow","leftarrow","leftarrow","leftarrow","leftarrow"],"horizon":10,"forced_choices":["rightarrow","leftarrow","rightarrow","leftarrow"],"right_color":"orange","left_color":"lightblue","left_mu":60,"right_mu":48,"left_numbers":[59,69,44,54,71,66,68,51,66,61],"right_numbers":[47,44,60,58,44,51,52,48,37,48],"points_earned":613,"phase":"task","trial_type":"horizons-task","trial_index":24,"time_elapsed":1119608,"internal_node_id":"0.0-20.0","task_version":"0.2"},{"response_times":[1244,852,454,1713,1743],"keys_pressed":["rightarrow","leftarrow","rightarrow","rightarrow","rightarrow"],"horizon":5,"forced_choices":["rightarrow","leftarrow","rightarrow","rightarrow"],"right_color":"orange","left_color":"lightblue","left_mu":60,"right_mu":52,"left_numbers":[40,65,66,70,36],"right_numbers":[50,47,48,61,64],"points_earned":288,"phase":"task","trial_type":"horizons-task","trial_index":25,"time_elapsed":1127129,"internal_node_id":"0.0-21.0","task_version":"0.2"},{"response_times":[985,466,567,523,1635,583,599,384,455,479],"keys_pressed":["leftarrow","rightarrow","rightarrow","rightarrow","leftarrow","rightarrow","rightarrow","rightarrow","rightarrow","rightarrow"],"horizon":10,"forced_choices":["leftarrow","rightarrow","rightarrow","rightarrow"],"right_color":"lightblue","left_color":"orange","left_mu":40,"right_mu":70,"left_numbers":[41,34,46,34,42,38,43,42,34,33],"right_numbers":[69,64,65,62,73,62,57,67,74,68],"points_earned":602,"phase":"task","trial_type":"horizons-task","trial_index":26,"time_elapsed":1135319,"internal_node_id":"0.0-22.0","task_version":"0.2"},{"response_times":[1096,616366,1024,649,479],"keys_pressed":["leftarrow","rightarrow","rightarrow","rightarrow","rightarrow"],"horizon":5,"forced_choices":["leftarrow","rightarrow","rightarrow","rightarrow"],"right_color":"orange","left_color":"lightblue","left_mu":60,"right_mu":64,"left_numbers":[59,60,59,63,61],"right_numbers":[53,64,76,61,60],"points_earned":320,"phase":"task","trial_type":"horizons-task","trial_index":27,"time_elapsed":1756451,"internal_node_id":"0.0-23.0","task_version":"0.2"},{"response_times":[635,702,592,561,683,499,396,301,647,423],"keys_pressed":["leftarrow","rightarrow","leftarrow","rightarrow","leftarrow","leftarrow","leftarrow","leftarrow","leftarrow","leftarrow"],"horizon":10,"forced_choices":["leftarrow","rightarrow","leftarrow","rightarrow"],"right_color":"lightblue","left_color":"orange","left_mu":40,"right_mu":20,"left_numbers":[41,45,36,49,50,45,31,37,58,36],"right_numbers":[16,29,19,20,19,33,22,32,29,22],"points_earned":383,"phase":"task","trial_type":"horizons-task","trial_index":28,"time_elapsed":1763411,"internal_node_id":"0.0-24.0","task_version":"0.2"},{"response_times":[588,930,698,1253,908],"keys_pressed":["leftarrow","leftarrow","rightarrow","rightarrow","rightarrow"],"horizon":5,"forced_choices":["leftarrow","leftarrow","rightarrow","rightarrow"],"right_color":"lightblue","left_color":"orange","left_mu":40,"right_mu":28,"left_numbers":[33,38,43,34,37],"right_numbers":[27,24,24,21,27],"points_earned":143,"phase":"task","trial_type":"horizons-task","trial_index":29,"time_elapsed":1769311,"internal_node_id":"0.0-25.0","task_version":"0.2"},{"response_times":[723,525,414,1732,1449],"keys_pressed":["leftarrow","rightarrow","leftarrow","rightarrow","rightarrow"],"horizon":5,"forced_choices":["leftarrow","rightarrow","leftarrow","rightarrow"],"right_color":"lightblue","left_color":"orange","left_mu":40,"right_mu":44,"left_numbers":[37,33,45,30,45],"right_numbers":[43,54,61,43,35],"points_earned":214,"phase":"task","trial_type":"horizons-task","trial_index":30,"time_elapsed":1775671,"internal_node_id":"0.0-26.0","task_version":"0.2"},{"response_times":[828,349,352,588,1178],"keys_pressed":["leftarrow","rightarrow","leftarrow","rightarrow","leftarrow"],"horizon":5,"forced_choices":["leftarrow","rightarrow","leftarrow","rightarrow"],"right_color":"lightblue","left_color":"orange","left_mu":40,"right_mu":10,"left_numbers":[38,49,38,50,25],"right_numbers":[24,4,22,8,9],"points_earned":113,"phase":"task","trial_type":"horizons-task","trial_index":31,"time_elapsed":1780491,"internal_node_id":"0.0-27.0","task_version":"0.2"},{"response_times":[672,648,858,802,721],"keys_pressed":["rightarrow","leftarrow","leftarrow","leftarrow","leftarrow"],"horizon":5,"forced_choices":["rightarrow","leftarrow","leftarrow","leftarrow"],"right_color":"orange","left_color":"lightblue","left_mu":60,"right_mu":40,"left_numbers":[60,60,72,59,65],"right_numbers":[39,43,35,45,40],"points_earned":295,"phase":"task","trial_type":"horizons-task","trial_index":32,"time_elapsed":1785710,"internal_node_id":"0.0-28.0","task_version":"0.2"},{"response_times":[605,514,379,503,1111,862,561,582,617,355],"keys_pressed":["rightarrow","leftarrow","rightarrow","leftarrow","leftarrow","rightarrow","leftarrow","leftarrow","leftarrow","leftarrow"],"horizon":10,"forced_choices":["rightarrow","leftarrow","rightarrow","leftarrow"],"right_color":"orange","left_color":"lightblue","left_mu":60,"right_mu":40,"left_numbers":[63,75,64,64,54,57,56,51,42,72],"right_numbers":[50,43,35,33,45,20,36,42,46,44],"points_earned":519,"phase":"task","trial_type":"horizons-task","trial_index":33,"time_elapsed":1793310,"internal_node_id":"0.0-29.0","task_version":"0.2"},{"response_times":[552,822,505,564,1270],"keys_pressed":["leftarrow","leftarrow","rightarrow","leftarrow","leftarrow"],"horizon":5,"forced_choices":["leftarrow","leftarrow","rightarrow","leftarrow"],"right_color":"lightblue","left_color":"orange","left_mu":40,"right_mu":28,"left_numbers":[42,36,37,46,44],"right_numbers":[35,21,27,20,29],"points_earned":195,"phase":"task","trial_type":"horizons-task","trial_index":34,"time_elapsed":1798542,"internal_node_id":"0.0-30.0","task_version":"0.2"},{"response_times":[651,856,496,828,1202],"keys_pressed":["rightarrow","rightarrow","leftarrow","leftarrow","leftarrow"],"horizon":5,"forced_choices":["rightarrow","rightarrow","leftarrow","leftarrow"],"right_color":"lightblue","left_color":"orange","left_mu":60,"right_mu":90,"left_numbers":[75,56,47,68,50],"right_numbers":[98,85,82,92,85],"points_earned":348,"phase":"task","trial_type":"horizons-task","trial_index":35,"time_elapsed":1804090,"internal_node_id":"0.0-31.0","task_version":"0.2"},{"response_times":[951,792,473,1421,1279],"keys_pressed":["rightarrow","rightarrow","rightarrow","leftarrow","rightarrow"],"horizon":5,"forced_choices":["rightarrow","rightarrow","rightarrow","leftarrow"],"right_color":"lightblue","left_color":"orange","left_mu":60,"right_mu":72,"left_numbers":[65,57,59,69,66],"right_numbers":[69,75,55,65,69],"points_earned":337,"phase":"task","trial_type":"horizons-task","trial_index":36,"time_elapsed":1810511,"internal_node_id":"0.0-32.0","task_version":"0.2"},{"response_times":[738,566,658,747,1252,477,1332,605,482,346],"keys_pressed":["rightarrow","rightarrow","leftarrow","leftarrow","rightarrow","leftarrow","rightarrow","rightarrow","rightarrow","rightarrow"],"horizon":10,"forced_choices":["rightarrow","rightarrow","leftarrow","leftarrow"],"right_color":"orange","left_color":"lightblue","left_mu":60,"right_mu":80,"left_numbers":[68,56,55,42,49,63,61,63,55,58],"right_numbers":[80,81,99,84,69,89,69,85,86,76],"points_earned":706,"phase":"task","trial_type":"horizons-task","trial_index":37,"time_elapsed":1819222,"internal_node_id":"0.0-33.0","task_version":"0.2"},{"response_times":[791,528,819,839,1325],"keys_pressed":["leftarrow","leftarrow","rightarrow","rightarrow","leftarrow"],"horizon":5,"forced_choices":["leftarrow","leftarrow","rightarrow","rightarrow"],"right_color":"orange","left_color":"lightblue","left_mu":60,"right_mu":52,"left_numbers":[55,68,55,70,61],"right_numbers":[58,69,49,55,50],"points_earned":288,"phase":"task","trial_type":"horizons-task","trial_index":38,"time_elapsed":1825040,"internal_node_id":"0.0-34.0","task_version":"0.2"},{"response_times":[714,646,462,614,1416,589,701,780,702,453],"keys_pressed":["leftarrow","leftarrow","leftarrow","rightarrow","rightarrow","leftarrow","rightarrow","rightarrow","leftarrow","leftarrow"],"horizon":10,"forced_choices":["leftarrow","leftarrow","leftarrow","rightarrow"],"right_color":"orange","left_color":"lightblue","left_mu":40,"right_mu":32,"left_numbers":[43,30,17,45,35,42,24,47,44,24],"right_numbers":[34,20,16,36,27,30,53,34,31,43],"points_earned":350,"phase":"task","trial_type":"horizons-task","trial_index":39,"time_elapsed":1833630,"internal_node_id":"0.0-35.0","task_version":"0.2"},{"response_times":[963,458,1087,587,1430,533,439,353,631,482],"keys_pressed":["rightarrow","leftarrow","leftarrow","leftarrow","leftarrow","leftarrow","leftarrow","leftarrow","rightarrow","leftarrow"],"horizon":10,"forced_choices":["rightarrow","leftarrow","leftarrow","leftarrow"],"right_color":"lightblue","left_color":"orange","left_mu":40,"right_mu":36,"left_numbers":[38,46,42,43,37,49,19,32,34,45],"right_numbers":[30,38,24,30,25,42,33,35,26,51],"points_earned":369,"phase":"task","trial_type":"horizons-task","trial_index":40,"time_elapsed":1842100,"internal_node_id":"0.0-36.0","task_version":"0.2"},{"response_times":[704,445,509,952,1027],"keys_pressed":["leftarrow","rightarrow","leftarrow","leftarrow","leftarrow"],"horizon":5,"forced_choices":["leftarrow","rightarrow","leftarrow","leftarrow"],"right_color":"orange","left_color":"lightblue","left_mu":60,"right_mu":48,"left_numbers":[60,62,65,65,53],"right_numbers":[43,37,55,43,34],"points_earned":280,"phase":"task","trial_type":"horizons-task","trial_index":41,"time_elapsed":1847260,"internal_node_id":"0.0-37.0","task_version":"0.2"},{"response_times":[2410,1217,652,563,667,1594,470,957,449,577],"keys_pressed":["leftarrow","leftarrow","rightarrow","leftarrow","leftarrow","rightarrow","leftarrow","rightarrow","leftarrow","leftarrow"],"horizon":10,"forced_choices":["leftarrow","leftarrow","rightarrow","leftarrow"],"right_color":"lightblue","left_color":"orange","left_mu":40,"right_mu":28,"left_numbers":[34,40,45,42,33,46,25,45,42,28],"right_numbers":[15,25,28,35,24,22,19,36,35,21],"points_earned":330,"phase":"task","trial_type":"horizons-task","trial_index":42,"time_elapsed":1858350,"internal_node_id":"0.0-38.0","task_version":"0.2"},{"response_times":[3024,822,1211,1109,612],"keys_pressed":["rightarrow","rightarrow","leftarrow","leftarrow","rightarrow"],"horizon":5,"forced_choices":["rightarrow","rightarrow","leftarrow","leftarrow"],"right_color":"orange","left_color":"lightblue","left_mu":60,"right_mu":64,"left_numbers":[58,41,58,67,52],"right_numbers":[67,61,68,38,63],"points_earned":316,"phase":"task","trial_type":"horizons-task","trial_index":43,"time_elapsed":1866650,"internal_node_id":"0.0-39.0","task_version":"0.2"},{"response_times":[715,665,565,927,1207],"keys_pressed":["rightarrow","rightarrow","rightarrow","leftarrow","rightarrow"],"horizon":5,"forced_choices":["rightarrow","rightarrow","rightarrow","leftarrow"],"right_color":"lightblue","left_color":"orange","left_mu":60,"right_mu":90,"left_numbers":[57,59,57,63,68],"right_numbers":[96,96,85,86,74],"points_earned":414,"phase":"task","trial_type":"horizons-task","trial_index":44,"time_elapsed":1872241,"internal_node_id":"0.0-40.0","task_version":"0.2"},{"response_times":[578,456,755,671,1803,844,561,417,367,456],"keys_pressed":["leftarrow","rightarrow","rightarrow","leftarrow","rightarrow","rightarrow","rightarrow","rightarrow","rightarrow","rightarrow"],"horizon":10,"forced_choices":["leftarrow","rightarrow","rightarrow","leftarrow"],"right_color":"orange","left_color":"lightblue","left_mu":40,"right_mu":48,"left_numbers":[36,34,30,43,31,26,41,58,47,51],"right_numbers":[55,52,48,49,57,58,53,48,53,44],"points_earned":492,"phase":"task","trial_type":"horizons-task","trial_index":45,"time_elapsed":1880671,"internal_node_id":"0.0-41.0","task_version":"0.2"},{"response_times":[690,359,322,611,1481,634,769,644,747,285],"keys_pressed":["rightarrow","leftarrow","rightarrow","rightarrow","leftarrow","leftarrow","rightarrow","rightarrow","rightarrow","rightarrow"],"horizon":10,"forced_choices":["rightarrow","leftarrow","rightarrow","rightarrow"],"right_color":"lightblue","left_color":"orange","left_mu":40,"right_mu":44,"left_numbers":[46,44,39,29,50,34,34,35,36,34],"right_numbers":[43,43,44,39,39,38,54,29,41,38],"points_earned":416,"phase":"task","trial_type":"horizons-task","trial_index":46,"time_elapsed":1888730,"internal_node_id":"0.0-42.0","task_version":"0.2"},{"response_times":[703,947,404,576,1779],"keys_pressed":["leftarrow","leftarrow","rightarrow","rightarrow","leftarrow"],"horizon":5,"forced_choices":["leftarrow","leftarrow","rightarrow","rightarrow"],"right_color":"orange","left_color":"lightblue","left_mu":40,"right_mu":32,"left_numbers":[37,34,36,42,35],"right_numbers":[18,29,21,36,37],"points_earned":163,"phase":"task","trial_type":"horizons-task","trial_index":47,"time_elapsed":1894658,"internal_node_id":"0.0-43.0","task_version":"0.2"},{"response_times":[1067,582,388,560,980],"keys_pressed":["rightarrow","leftarrow","rightarrow","leftarrow","leftarrow"],"horizon":5,"forced_choices":["rightarrow","leftarrow","rightarrow","leftarrow"],"right_color":"lightblue","left_color":"orange","left_mu":60,"right_mu":30,"left_numbers":[71,59,52,63,60],"right_numbers":[37,34,38,33,38],"points_earned":257,"phase":"task","trial_type":"horizons-task","trial_index":48,"time_elapsed":1899740,"internal_node_id":"0.0-44.0","task_version":"0.2"},{"response_times":[1347,599,2002,1223,904],"keys_pressed":["leftarrow","rightarrow","rightarrow","leftarrow","rightarrow"],"horizon":5,"forced_choices":["leftarrow","rightarrow","rightarrow","leftarrow"],"right_color":"orange","left_color":"lightblue","left_mu":40,"right_mu":48,"left_numbers":[36,52,39,47,51],"right_numbers":[53,61,47,33,66],"points_earned":257,"phase":"task","trial_type":"horizons-task","trial_index":49,"time_elapsed":1907331,"internal_node_id":"0.0-45.0","task_version":"0.2"},{"response_times":[564,560,550,335,566,2020,457,238,228,215],"keys_pressed":["rightarrow","rightarrow","leftarrow","rightarrow","leftarrow","leftarrow","leftarrow","leftarrow","leftarrow","leftarrow"],"horizon":10,"forced_choices":["rightarrow","rightarrow","leftarrow","rightarrow"],"right_color":"lightblue","left_color":"orange","left_mu":60,"right_mu":30,"left_numbers":[74,66,48,52,54,54,61,58,66,68],"right_numbers":[49,20,25,34,34,36,32,33,29,21],"points_earned":512,"phase":"task","trial_type":"horizons-task","trial_index":50,"time_elapsed":1914581,"internal_node_id":"0.0-46.0","task_version":"0.2"},{"view_history":"[{\"page_index\":0,\"viewing_time\":7237},{\"page_index\":1,\"viewing_time\":3120}]","rt":10357,"trial_type":"instructions","trial_index":51,"time_elapsed":1924943,"internal_node_id":"0.0-47.0","task_version":"0.2"},{"response_times":[1921,531,395,529,1693,464,403,229,262,244],"keys_pressed":["rightarrow","leftarrow","rightarrow","leftarrow","leftarrow","leftarrow","leftarrow","leftarrow","leftarrow","leftarrow"],"horizon":10,"forced_choices":["rightarrow","leftarrow","rightarrow","leftarrow"],"right_color":"lightblue","left_color":"orange","left_mu":60,"right_mu":30,"left_numbers":[74,61,59,57,57,69,52,55,61,54],"right_numbers":[21,14,31,31,37,26,13,41,22,24],"points_earned":518,"phase":"task","trial_type":"horizons-task","trial_index":52,"time_elapsed":1933141,"internal_node_id":"0.0-48.0","task_version":"0.2"},{"response_times":[536,337,404,555,1053,562,226,277,219,206],"keys_pressed":["rightarrow","rightarrow","leftarrow","rightarrow","leftarrow","leftarrow","leftarrow","leftarrow","leftarrow","leftarrow"],"horizon":10,"forced_choices":["rightarrow","rightarrow","leftarrow","rightarrow"],"right_color":"lightblue","left_color":"orange","left_mu":40,"right_mu":20,"left_numbers":[46,31,44,39,51,44,37,34,41,31],"right_numbers":[27,21,29,18,17,18,22,28,21,20],"points_earned":348,"phase":"task","trial_type":"horizons-task","trial_index":53,"time_elapsed":1939031,"internal_node_id":"0.0-49.0","task_version":"0.2"},{"response_times":[893,1060,839,580,1271,631,466,340,264,356],"keys_pressed":["leftarrow","rightarrow","rightarrow","rightarrow","leftarrow","leftarrow","leftarrow","leftarrow","leftarrow","leftarrow"],"horizon":10,"forced_choices":["leftarrow","rightarrow","rightarrow","rightarrow"],"right_color":"orange","left_color":"lightblue","left_mu":60,"right_mu":64,"left_numbers":[69,60,68,59,61,66,57,73,61,65],"right_numbers":[69,47,64,75,67,61,64,63,69,60],"points_earned":638,"phase":"task","trial_type":"horizons-task","trial_index":54,"time_elapsed":1947250,"internal_node_id":"0.0-50.0","task_version":"0.2"},{"response_times":[618,685,628,701,1335],"keys_pressed":["leftarrow","leftarrow","rightarrow","leftarrow","leftarrow"],"horizon":5,"forced_choices":["leftarrow","leftarrow","rightarrow","leftarrow"],"right_color":"orange","left_color":"lightblue","left_mu":40,"right_mu":52,"left_numbers":[45,23,42,60,50],"right_numbers":[48,52,55,58,54],"points_earned":233,"phase":"task","trial_type":"horizons-task","trial_index":55,"time_elapsed":1952731,"internal_node_id":"0.0-51.0","task_version":"0.2"},{"response_times":[1683,624,456,891,1079],"keys_pressed":["rightarrow","leftarrow","rightarrow","leftarrow","leftarrow"],"horizon":5,"forced_choices":["rightarrow","leftarrow","rightarrow","leftarrow"],"right_color":"orange","left_color":"lightblue","left_mu":60,"right_mu":48,"left_numbers":[56,53,67,68,50],"right_numbers":[56,37,51,39,51],"points_earned":278,"phase":"task","trial_type":"horizons-task","trial_index":56,"time_elapsed":1958981,"internal_node_id":"0.0-52.0","task_version":"0.2"},{"response_times":[762,952,598,558,1080],"keys_pressed":["rightarrow","rightarrow","leftarrow","leftarrow","leftarrow"],"horizon":5,"forced_choices":["rightarrow","rightarrow","leftarrow","leftarrow"],"right_color":"orange","left_color":"lightblue","left_mu":60,"right_mu":80,"left_numbers":[56,48,54,62,48],"right_numbers":[82,56,83,86,78],"points_earned":302,"phase":"task","trial_type":"horizons-task","trial_index":57,"time_elapsed":1964441,"internal_node_id":"0.0-53.0","task_version":"0.2"},{"response_times":[1063,397,847,674,1921],"keys_pressed":["rightarrow","leftarrow","leftarrow","rightarrow","leftarrow"],"horizon":5,"forced_choices":["rightarrow","leftarrow","leftarrow","rightarrow"],"right_color":"orange","left_color":"lightblue","left_mu":60,"right_mu":56,"left_numbers":[62,57,63,56,72],"right_numbers":[55,37,57,55,62],"points_earned":302,"phase":"task","trial_type":"horizons-task","trial_index":58,"time_elapsed":1970860,"internal_node_id":"0.0-54.0","task_version":"0.2"},{"response_times":[486,761,475,340,393,1347,1572,963,393,361],"keys_pressed":["leftarrow","leftarrow","rightarrow","rightarrow","leftarrow","rightarrow","rightarrow","rightarrow","rightarrow","rightarrow"],"horizon":10,"forced_choices":["leftarrow","leftarrow","rightarrow","rightarrow"],"right_color":"orange","left_color":"lightblue","left_mu":60,"right_mu":52,"left_numbers":[52,50,73,52,55,60,58,58,61,57],"right_numbers":[53,45,51,53,41,47,47,63,51,54],"points_earned":523,"phase":"task","trial_type":"horizons-task","trial_index":59,"time_elapsed":1979461,"internal_node_id":"0.0-55.0","task_version":"0.2"},{"response_times":[828,404,811,919,3424],"keys_pressed":["rightarrow","leftarrow","leftarrow","leftarrow","leftarrow"],"horizon":5,"forced_choices":["rightarrow","leftarrow","leftarrow","leftarrow"],"right_color":"lightblue","left_color":"orange","left_mu":40,"right_mu":36,"left_numbers":[50,35,39,43,32],"right_numbers":[38,37,32,18,49],"points_earned":187,"phase":"task","trial_type":"horizons-task","trial_index":60,"time_elapsed":1987371,"internal_node_id":"0.0-56.0","task_version":"0.2"},{"response_times":[700,666,552,631,1485],"keys_pressed":["leftarrow","leftarrow","leftarrow","rightarrow","leftarrow"],"horizon":5,"forced_choices":["leftarrow","leftarrow","leftarrow","rightarrow"],"right_color":"orange","left_color":"lightblue","left_mu":60,"right_mu":68,"left_numbers":[61,51,58,53,66],"right_numbers":[68,76,61,63,58],"points_earned":299,"phase":"task","trial_type":"horizons-task","trial_index":61,"time_elapsed":1992920,"internal_node_id":"0.0-57.0","task_version":"0.2"},{"response_times":[857,431,669,517,963],"keys_pressed":["leftarrow","rightarrow","rightarrow","rightarrow","rightarrow"],"horizon":5,"forced_choices":["leftarrow","rightarrow","rightarrow","rightarrow"],"right_color":"lightblue","left_color":"orange","left_mu":40,"right_mu":70,"left_numbers":[45,44,47,46,55],"right_numbers":[67,68,69,51,68],"points_earned":301,"phase":"task","trial_type":"horizons-task","trial_index":62,"time_elapsed":1997870,"internal_node_id":"0.0-58.0","task_version":"0.2"},{"response_times":[790,452,878,878,4067,561,415,511,386,345],"keys_pressed":["rightarrow","leftarrow","leftarrow","rightarrow","leftarrow","leftarrow","rightarrow","leftarrow","leftarrow","leftarrow"],"horizon":10,"forced_choices":["rightarrow","leftarrow","leftarrow","rightarrow"],"right_color":"lightblue","left_color":"orange","left_mu":40,"right_mu":36,"left_numbers":[45,46,44,31,42,46,32,37,27,25],"right_numbers":[40,47,32,17,28,42,22,40,26,30],"points_earned":346,"phase":"task","trial_type":"horizons-task","trial_index":63,"time_elapsed":2008661,"internal_node_id":"0.0-59.0","task_version":"0.2"},{"response_times":[1020,540,515,530,1173],"keys_pressed":["rightarrow","leftarrow","rightarrow","rightarrow","leftarrow"],"horizon":5,"forced_choices":["rightarrow","leftarrow","rightarrow","rightarrow"],"right_color":"lightblue","left_color":"orange","left_mu":40,"right_mu":44,"left_numbers":[36,45,40,39,41],"right_numbers":[47,50,43,45,39],"points_earned":221,"phase":"task","trial_type":"horizons-task","trial_index":64,"time_elapsed":2013951,"internal_node_id":"0.0-60.0","task_version":"0.2"},{"response_times":[1262,551,962,3680,452,312,264,265,389,498],"keys_pressed":["rightarrow","rightarrow","leftarrow","rightarrow","rightarrow","rightarrow","rightarrow","rightarrow","rightarrow","rightarrow"],"horizon":10,"forced_choices":["rightarrow","rightarrow","leftarrow","rightarrow"],"right_color":"orange","left_color":"lightblue","left_mu":60,"right_mu":80,"left_numbers":[75,64,62,79,57,56,56,64,67,45],"right_numbers":[68,73,68,79,69,73,80,72,88,79],"points_earned":743,"phase":"task","trial_type":"horizons-task","trial_index":65,"time_elapsed":2024110,"internal_node_id":"0.0-61.0","task_version":"0.2"},{"response_times":[67596,578,445,543,472,349,498,434,251,229],"keys_pressed":["leftarrow","rightarrow","rightarrow","leftarrow","rightarrow","rightarrow","leftarrow","rightarrow","rightarrow","rightarrow"],"horizon":10,"forced_choices":["leftarrow","rightarrow","rightarrow","leftarrow"],"right_color":"lightblue","left_color":"orange","left_mu":40,"right_mu":60,"left_numbers":[39,41,45,37,50,43,33,44,33,28],"right_numbers":[64,68,62,68,45,58,60,68,49,62],"points_earned":521,"phase":"task","trial_type":"horizons-task","trial_index":66,"time_elapsed":2097019,"internal_node_id":"0.0-62.0","task_version":"0.2"},{"response_times":[690,469,375,761,508,798,362,323,476,274],"keys_pressed":["rightarrow","leftarrow","leftarrow","leftarrow","rightarrow","leftarrow","leftarrow","leftarrow","leftarrow","leftarrow"],"horizon":10,"forced_choices":["rightarrow","leftarrow","leftarrow","leftarrow"],"right_color":"lightblue","left_color":"orange","left_mu":40,"right_mu":10,"left_numbers":[36,29,35,33,51,35,51,26,35,38],"right_numbers":[14,18,4,0,17,16,11,16,0,22],"points_earned":313,"phase":"task","trial_type":"horizons-task","trial_index":67,"time_elapsed":2103562,"internal_node_id":"0.0-63.0","task_version":"0.2"},{"response_times":[1289,750,462,310,350,1178,652,518,522,488],"keys_pressed":["leftarrow","leftarrow","rightarrow","rightarrow","leftarrow","rightarrow","rightarrow","rightarrow","leftarrow","leftarrow"],"horizon":10,"forced_choices":["leftarrow","leftarrow","rightarrow","rightarrow"],"right_color":"lightblue","left_color":"orange","left_mu":40,"right_mu":28,"left_numbers":[36,38,60,46,27,44,34,39,34,42],"right_numbers":[25,26,36,17,31,43,35,23,33,26],"points_earned":331,"phase":"task","trial_type":"horizons-task","trial_index":68,"time_elapsed":2111602,"internal_node_id":"0.0-64.0","task_version":"0.2"},{"response_times":[717,293,455,914,439,814,308,363,266,227],"keys_pressed":["leftarrow","rightarrow","leftarrow","leftarrow","rightarrow","rightarrow","rightarrow","rightarrow","rightarrow","rightarrow"],"horizon":10,"forced_choices":["leftarrow","rightarrow","leftarrow","leftarrow"],"right_color":"orange","left_color":"lightblue","left_mu":60,"right_mu":56,"left_numbers":[54,53,59,58,59,39,48,51,70,55],"right_numbers":[37,65,64,55,66,57,51,51,56,59],"points_earned":576,"phase":"task","trial_type":"horizons-task","trial_index":69,"time_elapsed":2117911,"internal_node_id":"0.0-65.0","task_version":"0.2"},{"response_times":[882,325,527,395,7169],"keys_pressed":["rightarrow","leftarrow","leftarrow","rightarrow","leftarrow"],"horizon":5,"forced_choices":["rightarrow","leftarrow","leftarrow","rightarrow"],"right_color":"lightblue","left_color":"orange","left_mu":40,"right_mu":36,"left_numbers":[37,30,52,38,44],"right_numbers":[46,26,37,38,32],"points_earned":210,"phase":"task","trial_type":"horizons-task","trial_index":70,"time_elapsed":2128721,"internal_node_id":"0.0-66.0","task_version":"0.2"},{"response_times":[1043,539,361,316,380,1857,728,705,387,760],"keys_pressed":["leftarrow","leftarrow","rightarrow","rightarrow","leftarrow","rightarrow","leftarrow","rightarrow","rightarrow","leftarrow"],"horizon":10,"forced_choices":["leftarrow","leftarrow","rightarrow","rightarrow"],"right_color":"orange","left_color":"lightblue","left_mu":40,"right_mu":32,"left_numbers":[40,35,39,22,42,40,43,35,41,45],"right_numbers":[28,25,31,26,42,55,27,24,12,18],"points_earned":353,"phase":"task","trial_type":"horizons-task","trial_index":71,"time_elapsed":2137318,"internal_node_id":"0.0-67.0","task_version":"0.2"},{"response_times":[811,735,930,426,421,396,401,2529,366,431],"keys_pressed":["rightarrow","leftarrow","leftarrow","rightarrow","leftarrow","rightarrow","leftarrow","leftarrow","leftarrow","leftarrow"],"horizon":10,"forced_choices":["rightarrow","leftarrow","leftarrow","rightarrow"],"right_color":"orange","left_color":"lightblue","left_mu":60,"right_mu":56,"left_numbers":[64,68,67,74,74,65,59,50,66,48],"right_numbers":[61,57,72,61,63,48,58,56,48,49],"points_earned":602,"phase":"task","trial_type":"horizons-task","trial_index":72,"time_elapsed":2146281,"internal_node_id":"0.0-68.0","task_version":"0.2"},{"response_times":[746,361,767,684,864],"keys_pressed":["leftarrow","rightarrow","leftarrow","leftarrow","leftarrow"],"horizon":5,"forced_choices":["leftarrow","rightarrow","leftarrow","leftarrow"],"right_color":"orange","left_color":"lightblue","left_mu":60,"right_mu":56,"left_numbers":[75,59,66,58,66],"right_numbers":[54,60,49,51,47],"points_earned":325,"phase":"task","trial_type":"horizons-task","trial_index":73,"time_elapsed":2151211,"internal_node_id":"0.0-69.0","task_version":"0.2"},{"response_times":[848,587,424,1062,594],"keys_pressed":["rightarrow","rightarrow","leftarrow","rightarrow","leftarrow"],"horizon":5,"forced_choices":["rightarrow","rightarrow","leftarrow","rightarrow"],"right_color":"lightblue","left_color":"orange","left_mu":40,"right_mu":20,"left_numbers":[38,46,34,46,33],"right_numbers":[28,10,22,27,24],"points_earned":132,"phase":"task","trial_type":"horizons-task","trial_index":74,"time_elapsed":2156241,"internal_node_id":"0.0-70.0","task_version":"0.2"},{"response_times":[737,347,935,639,1112],"keys_pressed":["rightarrow","leftarrow","leftarrow","leftarrow","leftarrow"],"horizon":5,"forced_choices":["rightarrow","leftarrow","leftarrow","leftarrow"],"right_color":"lightblue","left_color":"orange","left_mu":40,"right_mu":10,"left_numbers":[40,45,43,41,38],"right_numbers":[8,22,1,16,16],"points_earned":175,"phase":"task","trial_type":"horizons-task","trial_index":75,"time_elapsed":2161521,"internal_node_id":"0.0-71.0","task_version":"0.2"},{"response_times":[979,351,441,1417,1467],"keys_pressed":["leftarrow","rightarrow","rightarrow","rightarrow","rightarrow"],"horizon":5,"forced_choices":["leftarrow","rightarrow","rightarrow","rightarrow"],"right_color":"orange","left_color":"lightblue","left_mu":40,"right_mu":48,"left_numbers":[30,37,26,58,33],"right_numbers":[50,53,43,39,54],"points_earned":219,"phase":"task","trial_type":"horizons-task","trial_index":76,"time_elapsed":2167692,"internal_node_id":"0.0-72.0","task_version":"0.2"},{"response_times":[633,425,721,507,1488],"keys_pressed":["leftarrow","rightarrow","leftarrow","rightarrow","rightarrow"],"horizon":5,"forced_choices":["leftarrow","rightarrow","leftarrow","rightarrow"],"right_color":"lightblue","left_color":"orange","left_mu":60,"right_mu":72,"left_numbers":[51,67,57,61,61],"right_numbers":[76,70,76,71,72],"points_earned":321,"phase":"task","trial_type":"horizons-task","trial_index":77,"time_elapsed":2172991,"internal_node_id":"0.0-73.0","task_version":"0.2"},{"response_times":[3377,6858,644,562,684],"keys_pressed":["rightarrow","rightarrow","leftarrow","rightarrow","rightarrow"],"horizon":5,"forced_choices":["rightarrow","rightarrow","leftarrow","rightarrow"],"right_color":"orange","left_color":"lightblue","left_mu":60,"right_mu":80,"left_numbers":[62,64,56,59,69],"right_numbers":[85,74,87,83,86],"points_earned":384,"phase":"task","trial_type":"horizons-task","trial_index":78,"time_elapsed":2186631,"internal_node_id":"0.0-74.0","task_version":"0.2"},{"response_times":[1037,515,461,474,399,1431,549,285,288,360],"keys_pressed":["rightarrow","rightarrow","rightarrow","leftarrow","rightarrow","leftarrow","leftarrow","leftarrow","leftarrow","leftarrow"],"horizon":10,"forced_choices":["rightarrow","rightarrow","rightarrow","leftarrow"],"right_color":"lightblue","left_color":"orange","left_mu":60,"right_mu":72,"left_numbers":[52,69,52,61,53,56,51,48,57,61],"right_numbers":[71,68,78,59,58,86,75,63,70,63],"points_earned":609,"phase":"task","trial_type":"horizons-task","trial_index":79,"time_elapsed":2193951,"internal_node_id":"0.0-75.0","task_version":"0.2"},{"response_times":[1022,492,799,389,1133],"keys_pressed":["rightarrow","leftarrow","leftarrow","rightarrow","rightarrow"],"horizon":5,"forced_choices":["rightarrow","leftarrow","leftarrow","rightarrow"],"right_color":"orange","left_color":"lightblue","left_mu":60,"right_mu":68,"left_numbers":[56,53,51,50,62],"right_numbers":[66,68,81,69,69],"points_earned":308,"phase":"task","trial_type":"horizons-task","trial_index":80,"time_elapsed":2199307,"internal_node_id":"0.0-76.0","task_version":"0.2"},{"response_times":[473,396,387,279,1330,499,310,304,402,367],"keys_pressed":["rightarrow","leftarrow","leftarrow","rightarrow","rightarrow","rightarrow","rightarrow","rightarrow","rightarrow","rightarrow"],"horizon":10,"forced_choices":["rightarrow","leftarrow","leftarrow","rightarrow"],"right_color":"orange","left_color":"lightblue","left_mu":60,"right_mu":68,"left_numbers":[69,51,54,66,51,68,58,67,56,66],"right_numbers":[82,59,72,84,63,63,64,79,66,65],"points_earned":671,"phase":"task","trial_type":"horizons-task","trial_index":81,"time_elapsed":2205571,"internal_node_id":"0.0-77.0","task_version":"0.2"},{"response_times":[600,580,755,495,474,1971,784,531,415,335],"keys_pressed":["leftarrow","leftarrow","leftarrow","rightarrow","rightarrow","rightarrow","rightarrow","rightarrow","rightarrow","rightarrow"],"horizon":10,"forced_choices":["leftarrow","leftarrow","leftarrow","rightarrow"],"right_color":"orange","left_color":"lightblue","left_mu":60,"right_mu":68,"left_numbers":[63,63,56,49,48,56,64,60,61,53],"right_numbers":[70,70,75,77,64,57,54,80,73,73],"points_earned":660,"phase":"task","trial_type":"horizons-task","trial_index":82,"time_elapsed":2214031,"internal_node_id":"0.0-78.0","task_version":"0.2"},{"response_times":[886,418,425,258,1362],"keys_pressed":["leftarrow","rightarrow","rightarrow","leftarrow","leftarrow"],"horizon":5,"forced_choices":["leftarrow","rightarrow","rightarrow","leftarrow"],"right_color":"lightblue","left_color":"orange","left_mu":40,"right_mu":70,"left_numbers":[38,31,44,47,48],"right_numbers":[60,77,60,53,63],"points_earned":270,"phase":"task","trial_type":"horizons-task","trial_index":83,"time_elapsed":2218891,"internal_node_id":"0.0-79.0","task_version":"0.2"},{"response_times":[861,451,331,755,1510,583,552,305,384,307],"keys_pressed":["rightarrow","leftarrow","rightarrow","rightarrow","leftarrow","leftarrow","leftarrow","leftarrow","leftarrow","leftarrow"],"horizon":10,"forced_choices":["rightarrow","leftarrow","rightarrow","rightarrow"],"right_color":"orange","left_color":"lightblue","left_mu":60,"right_mu":52,"left_numbers":[50,72,60,59,72,58,49,60,72,60],"right_numbers":[41,53,63,60,49,41,53,46,50,63],"points_earned":607,"phase":"task","trial_type":"horizons-task","trial_index":84,"time_elapsed":2226447,"internal_node_id":"0.0-80.0","task_version":"0.2"},{"response_times":[660,413,426,422,2050,976,450,348,327,476],"keys_pressed":["leftarrow","rightarrow","leftarrow","rightarrow","rightarrow","rightarrow","rightarrow","rightarrow","rightarrow","rightarrow"],"horizon":10,"forced_choices":["leftarrow","rightarrow","leftarrow","rightarrow"],"right_color":"lightblue","left_color":"orange","left_mu":60,"right_mu":72,"left_numbers":[44,70,67,44,74,56,61,50,70,68],"right_numbers":[66,79,65,64,83,71,67,83,70,54],"points_earned":682,"phase":"task","trial_type":"horizons-task","trial_index":85,"time_elapsed":2234511,"internal_node_id":"0.0-81.0","task_version":"0.2"},{"response_times":[650,538,575,649,1029],"keys_pressed":["rightarrow","rightarrow","leftarrow","rightarrow","leftarrow"],"horizon":5,"forced_choices":["rightarrow","rightarrow","leftarrow","rightarrow"],"right_color":"lightblue","left_color":"orange","left_mu":60,"right_mu":30,"left_numbers":[57,64,57,64,71],"right_numbers":[29,34,32,29,32],"points_earned":220,"phase":"task","trial_type":"horizons-task","trial_index":86,"time_elapsed":2239460,"internal_node_id":"0.0-82.0","task_version":"0.2"},{"response_times":[2713,486,597,436,612,1382,780,616,475,389],"keys_pressed":["rightarrow","rightarrow","leftarrow","leftarrow","rightarrow","leftarrow","rightarrow","rightarrow","rightarrow","rightarrow"],"horizon":10,"forced_choices":["rightarrow","rightarrow","leftarrow","leftarrow"],"right_color":"orange","left_color":"lightblue","left_mu":60,"right_mu":64,"left_numbers":[55,69,60,61,56,50,64,64,71,59],"right_numbers":[72,55,75,60,62,62,68,78,69,68],"points_earned":643,"phase":"task","trial_type":"horizons-task","trial_index":87,"time_elapsed":2249461,"internal_node_id":"0.0-83.0","task_version":"0.2"},{"response_times":[732,405,781,399,1042,1508,683,704,388,451],"keys_pressed":["rightarrow","leftarrow","leftarrow","rightarrow","rightarrow","leftarrow","rightarrow","rightarrow","rightarrow","rightarrow"],"horizon":10,"forced_choices":["rightarrow","leftarrow","leftarrow","rightarrow"],"right_color":"orange","left_color":"lightblue","left_mu":40,"right_mu":52,"left_numbers":[28,27,41,32,43,49,36,38,44,28],"right_numbers":[51,66,49,53,47,46,55,46,43,50],"points_earned":462,"phase":"task","trial_type":"horizons-task","trial_index":88,"time_elapsed":2258061,"internal_node_id":"0.0-84.0","task_version":"0.2"},{"response_times":[859,512,377,730,1323,1076,721,381,417,597],"keys_pressed":["leftarrow","leftarrow","rightarrow","leftarrow","rightarrow","leftarrow","rightarrow","rightarrow","rightarrow","rightarrow"],"horizon":10,"forced_choices":["leftarrow","leftarrow","rightarrow","leftarrow"],"right_color":"orange","left_color":"lightblue","left_mu":40,"right_mu":52,"left_numbers":[46,43,54,28,42,18,59,40,45,35],"right_numbers":[46,39,32,55,43,52,50,50,52,48],"points_earned":410,"phase":"task","trial_type":"horizons-task","trial_index":89,"time_elapsed":2266572,"internal_node_id":"0.0-85.0","task_version":"0.2"},{"response_times":[686,590,583,547,1965],"keys_pressed":["leftarrow","leftarrow","rightarrow","leftarrow","leftarrow"],"horizon":5,"forced_choices":["leftarrow","leftarrow","rightarrow","leftarrow"],"right_color":"lightblue","left_color":"orange","left_mu":40,"right_mu":60,"left_numbers":[37,29,44,39,27],"right_numbers":[61,74,62,59,59],"points_earned":194,"phase":"task","trial_type":"horizons-task","trial_index":90,"time_elapsed":2272451,"internal_node_id":"0.0-86.0","task_version":"0.2"},{"response_times":[697,629,522,631,1067,2007,599,354,387,461],"keys_pressed":["leftarrow","leftarrow","rightarrow","leftarrow","rightarrow","rightarrow","rightarrow","rightarrow","rightarrow","rightarrow"],"horizon":10,"forced_choices":["leftarrow","leftarrow","rightarrow","leftarrow"],"right_color":"lightblue","left_color":"orange","left_mu":40,"right_mu":60,"left_numbers":[57,51,44,34,44,43,29,49,46,43],"right_numbers":[54,68,63,73,64,58,62,63,62,80],"points_earned":594,"phase":"task","trial_type":"horizons-task","trial_index":91,"time_elapsed":2281316,"internal_node_id":"0.0-87.0","task_version":"0.2"},{"rt":25033,"responses":{"age":"40","gender-categorical":"Male","gender-free-response":"","ethnicity":"Not Hispanic or Latino","race":["White"],"language":"Yes","fluency":"Very well"},"survey":"demographics","trial_type":"survey-demo","trial_index":92,"time_elapsed":2306362,"internal_node_id":"0.0-88.0","task_version":"0.2"},{"rt":140078,"responses":{"difficulty":"5","fun":"5","clarity":"5","strategy":"No","feedback":"I like this survey.Thanks"},"survey":"debrief","trial_type":"survey-debrief","trial_index":93,"time_elapsed":2446447,"internal_node_id":"0.0-89.0","task_version":"0.2","interactions":"[{\"event\":\"focus\",\"trial\":0,\"time\":0},{\"event\":\"blur\",\"trial\":1,\"time\":145239},{\"event\":\"focus\",\"trial\":1,\"time\":157745},{\"event\":\"blur\",\"trial\":3,\"time\":298465},{\"event\":\"focus\",\"trial\":3,\"time\":301802},{\"event\":\"blur\",\"trial\":7,\"time\":917224},{\"event\":\"focus\",\"trial\":7,\"time\":922274},{\"event\":\"blur\",\"trial\":8,\"time\":956487},{\"event\":\"focus\",\"trial\":8,\"time\":958758},{\"event\":\"blur\",\"trial\":8,\"time\":969113},{\"event\":\"focus\",\"trial\":8,\"time\":972701},{\"event\":\"blur\",\"trial\":27,\"time\":1216701},{\"event\":\"focus\",\"trial\":27,\"time\":1728849},{\"event\":\"blur\",\"trial\":27,\"time\":1728853},{\"event\":\"focus\",\"trial\":27,\"time\":1750926},{\"event\":\"blur\",\"trial\":93,\"time\":2406649},{\"event\":\"focus\",\"trial\":93,\"time\":2418096},{\"event\":\"blur\",\"trial\":93,\"time\":2436672},{\"event\":\"focus\",\"trial\":93,\"time\":2438198}]"}]