[{"view_history":"[{\"page_index\":0,\"viewing_time\":2478}]","rt":2478,"trial_type":"instructions","trial_index":0,"time_elapsed":2486,"internal_node_id":"0.0-0.0","task_version":"0.2"},{"item_order":[11,3,7,10,1,14,9,5,8,12,13,6,2,16,15,4,0],"responses":{"Q12":"2","Q04":"2","Q08":"2","Q11":"3","Q02":"2","Q15":"1","Q10":"3","Q06":"3","Q09":"3","Q13":"2","Q14":"2","Q07":"2","Q03":"3","Q17":"0","Q16":"4","Q05":"2","Q01":"3"},"radio_events":[6235,11015,12373,17728,18993,21567,31366,35310,39791,48469,50905,53549,54804,59523,64883,66137,68945],"key_events":[],"mouse_events":[1,6235,7720,10031,11015,12373,15517,16577,17728,18993,21567,31366,34271,35310,39791,47548,48469,49998,50905,51972,53549,54804,57905,59523,60844,62668,63866,64883,66137,68945,70519],"rt":70520,"survey":"pswq","trial_type":"survey-template","trial_index":1,"time_elapsed":73033,"internal_node_id":"0.0-1.0","task_version":"0.2"},{"item_order":[11,3,6,10,7,4,2,0,12,9,5,1,8],"responses":{"Q12":"1","Q04":"1","Q07":"1","Q11":"2","Q08":"2","Q05":"2","Q03":"0","Q01":"1","Q13":"4","Q10":"2","Q06":"2","Q02":"2","Q09":"0"},"radio_events":[10637,15270,21864,24314,27044,31449,36080,41256,43892,50037,50738,52604,55770],"key_events":[],"mouse_events":[10637,15270,18174,20549,21864,24314,27044,31449,36080,41256,43892,50037,50738,52604,55770,57212],"rt":57212,"survey":"ius12","trial_type":"survey-template","trial_index":2,"time_elapsed":130264,"internal_node_id":"0.0-2.0","task_version":"0.2"},{"item_order":[14,6,5,12,3,9,11,10,2,1,4,8,7,15,0,13],"responses":{"Q15":"1","Q07":"5","Q06":"4","Q13":"4","Q04":"4","Q10":"1","Q12":"1","Q11":"1","Q03":"1","Q02":"1","Q05":"1","Q09":"3","Q08":"3","Q16":"5","Q01":"1","Q14":"2"},"radio_events":[10452,11582,17857,20590,24285,32847,34188,43459,45234,51483,55604,59032,71206,77186,81411,89870,91659],"key_events":[],"mouse_events":[8554,9551,10452,11582,17857,20590,24285,28705,31960,32847,34188,40608,43459,45234,51483,55604,59032,71206,75844,77186,81411,86387,88720,89870,91659,92632],"rt":92632,"survey":"nfc","trial_type":"survey-template","trial_index":3,"time_elapsed":222918,"internal_node_id":"0.0-3.0","task_version":"0.2"},{"view_history":"[{\"page_index\":0,\"viewing_time\":2205},{\"page_index\":1,\"viewing_time\":3413},{\"page_index\":2,\"viewing_time\":7544},{\"page_index\":3,\"viewing_time\":6682},{\"page_index\":4,\"viewing_time\":5290},{\"page_index\":5,\"viewing_time\":3808},{\"page_index\":6,\"viewing_time\":6230},{\"page_index\":7,\"viewing_time\":6590},{\"page_index\":8,\"viewing_time\":11900},{\"page_index\":9,\"viewing_time\":11852}]","rt":65515,"trial_type":"instructions","trial_index":4,"time_elapsed":288438,"internal_node_id":"0.0-4.0-0.0","task_version":"0.2"},{"response_times":[1973,1686,720,900,3939],"keys_pressed":["rightarrow","leftarrow","rightarrow","rightarrow","leftarrow"],"horizon":5,"forced_choices":["rightarrow","leftarrow","rightarrow","rightarrow"],"right_color":"lightblue","left_color":"orange","left_mu":40,"right_mu":20,"left_numbers":[39,33,36,55,38],"right_numbers":[20,5,10,22,24],"points_earned":123,"phase":"practice","trial_type":"horizons-task","trial_index":5,"time_elapsed":299322,"internal_node_id":"0.0-4.0-1.0","task_version":"0.2"},{"response_times":[1243,1019,1059,909,5350,3520,3479,11750,1750,2209],"keys_pressed":["leftarrow","leftarrow","rightarrow","rightarrow","leftarrow","rightarrow","leftarrow","leftarrow","rightarrow","leftarrow"],"horizon":10,"forced_choices":["leftarrow","leftarrow","rightarrow","rightarrow"],"right_color":"orange","left_color":"lightblue","left_mu":60,"right_mu":70,"left_numbers":[63,62,76,59,51,65,41,66,64,55],"right_numbers":[83,72,63,75,81,88,85,64,81,75],"points_earned":645,"phase":"practice","trial_type":"horizons-task","trial_index":6,"time_elapsed":333120,"internal_node_id":"0.0-4.0-2.0","task_version":"0.2"},{"view_history":"[{\"page_index\":0,\"viewing_time\":2216},{\"page_index\":1,\"viewing_time\":4914},{\"page_index\":2,\"viewing_time\":4107},{\"page_index\":3,\"viewing_time\":3599}]","rt":14837,"trial_type":"instructions","trial_index":7,"time_elapsed":347959,"internal_node_id":"0.0-4.0-3.0","task_version":"0.2"},{"responses":["true","false","true"],"num_errors":0,"rt":12920,"trial_type":"horizons-comprehension","trial_index":8,"time_elapsed":360887,"internal_node_id":"0.0-4.0-4.0","task_version":"0.2"},{"trial_type":"call-function","trial_index":9,"time_elapsed":360894,"internal_node_id":"0.0-5.0","task_version":"0.2"},{"view_history":"[{\"page_index\":0,\"viewing_time\":1578},{\"page_index\":1,\"viewing_time\":4871}]","rt":6450,"trial_type":"instructions","trial_index":10,"time_elapsed":367344,"internal_node_id":"0.0-6.0","task_version":"0.2"},{"response_times":[1494,1000,1320,1209,2579],"keys_pressed":["leftarrow","leftarrow","rightarrow","leftarrow","rightarrow"],"horizon":5,"forced_choices":["leftarrow","leftarrow","rightarrow","leftarrow"],"right_color":"orange","left_color":"lightblue","left_mu":40,"right_mu":48,"left_numbers":[25,36,32,54,47],"right_numbers":[60,48,43,41,53],"points_earned":211,"phase":"task","trial_type":"horizons-task","trial_index":11,"time_elapsed":376470,"internal_node_id":"0.0-7.0","task_version":"0.2"},{"response_times":[1034,1020,960,1110,2229,7001,3130,10982,3999,6030],"keys_pressed":["rightarrow","rightarrow","leftarrow","rightarrow","leftarrow","leftarrow","rightarrow","leftarrow","rightarrow","leftarrow"],"horizon":10,"forced_choices":["rightarrow","rightarrow","leftarrow","rightarrow"],"right_color":"orange","left_color":"lightblue","left_mu":60,"right_mu":64,"left_numbers":[54,61,50,56,57,69,56,46,59,65],"right_numbers":[70,63,68,45,66,55,58,61,74,64],"points_earned":597,"phase":"task","trial_type":"horizons-task","trial_index":12,"time_elapsed":415476,"internal_node_id":"0.0-8.0","task_version":"0.2"},{"response_times":[3831,930,1089,1170,19201,2200,9550,1639,3000,1679],"keys_pressed":["rightarrow","leftarrow","leftarrow","rightarrow","rightarrow","leftarrow","rightarrow","leftarrow","rightarrow","leftarrow"],"horizon":10,"forced_choices":["rightarrow","leftarrow","leftarrow","rightarrow"],"right_color":"lightblue","left_color":"orange","left_mu":60,"right_mu":52,"left_numbers":[72,65,60,66,56,56,49,58,66,56],"right_numbers":[56,48,57,51,39,56,41,68,60,46],"points_earned":542,"phase":"task","trial_type":"horizons-task","trial_index":13,"time_elapsed":461272,"internal_node_id":"0.0-9.0","task_version":"0.2"},{"response_times":[1034,730,879,1040,2591,13439,2279,7359,2950,1559],"keys_pressed":["rightarrow","leftarrow","rightarrow","rightarrow","leftarrow","rightarrow","leftarrow","leftarrow","rightarrow","leftarrow"],"horizon":10,"forced_choices":["rightarrow","leftarrow","rightarrow","rightarrow"],"right_color":"orange","left_color":"lightblue","left_mu":40,"right_mu":32,"left_numbers":[41,49,41,40,38,38,22,34,39,39],"right_numbers":[42,29,26,55,26,25,29,27,29,31],"points_earned":359,"phase":"task","trial_type":"horizons-task","trial_index":14,"time_elapsed":496647,"internal_node_id":"0.0-10.0","task_version":"0.2"},{"response_times":[1309,1621,861,969,3160],"keys_pressed":["leftarrow","leftarrow","rightarrow","rightarrow","leftarrow"],"horizon":5,"forced_choices":["leftarrow","leftarrow","rightarrow","rightarrow"],"right_color":"orange","left_color":"lightblue","left_mu":60,"right_mu":64,"left_numbers":[67,55,52,66,60],"right_numbers":[56,72,59,63,55],"points_earned":304,"phase":"task","trial_type":"horizons-task","trial_index":15,"time_elapsed":506071,"internal_node_id":"0.0-11.0","task_version":"0.2"},{"response_times":[846,839,1060,890,2258,4150,2441,4720,3549,2671],"keys_pressed":["rightarrow","leftarrow","leftarrow","leftarrow","rightarrow","rightarrow","leftarrow","rightarrow","leftarrow","rightarrow"],"horizon":10,"forced_choices":["rightarrow","leftarrow","leftarrow","leftarrow"],"right_color":"orange","left_color":"lightblue","left_mu":40,"right_mu":28,"left_numbers":[44,37,39,50,36,55,26,45,48,51],"right_numbers":[26,24,8,33,27,24,40,26,28,32],"points_earned":335,"phase":"task","trial_type":"horizons-task","trial_index":16,"time_elapsed":531001,"internal_node_id":"0.0-12.0","task_version":"0.2"},{"response_times":[1069,759,1381,1039,4230],"keys_pressed":["rightarrow","leftarrow","leftarrow","rightarrow","leftarrow"],"horizon":5,"forced_choices":["rightarrow","leftarrow","leftarrow","rightarrow"],"right_color":"lightblue","left_color":"orange","left_mu":40,"right_mu":52,"left_numbers":[36,32,42,25,37],"right_numbers":[38,46,58,49,47],"points_earned":198,"phase":"task","trial_type":"horizons-task","trial_index":17,"time_elapsed":540985,"internal_node_id":"0.0-13.0","task_version":"0.2"},{"response_times":[816,978,1051,999,2219],"keys_pressed":["rightarrow","rightarrow","rightarrow","leftarrow","leftarrow"],"horizon":5,"forced_choices":["rightarrow","rightarrow","rightarrow","leftarrow"],"right_color":"lightblue","left_color":"orange","left_mu":60,"right_mu":48,"left_numbers":[62,53,58,51,63],"right_numbers":[58,57,58,33,59],"points_earned":287,"phase":"task","trial_type":"horizons-task","trial_index":18,"time_elapsed":548556,"internal_node_id":"0.0-14.0","task_version":"0.2"},{"response_times":[832,839,711,830,2280,1519,2479,2870,2531,2487],"keys_pressed":["leftarrow","leftarrow","rightarrow","rightarrow","leftarrow","rightarrow","leftarrow","rightarrow","leftarrow","rightarrow"],"horizon":10,"forced_choices":["leftarrow","leftarrow","rightarrow","rightarrow"],"right_color":"orange","left_color":"lightblue","left_mu":40,"right_mu":36,"left_numbers":[31,44,45,47,36,38,54,31,28,34],"right_numbers":[43,23,47,51,32,40,21,29,20,19],"points_earned":379,"phase":"task","trial_type":"horizons-task","trial_index":19,"time_elapsed":567446,"internal_node_id":"0.0-15.0","task_version":"0.2"},{"response_times":[831,810,739,1091,2449,1389,1570,1601,1599,7380],"keys_pressed":["leftarrow","leftarrow","rightarrow","rightarrow","leftarrow","rightarrow","leftarrow","rightarrow","leftarrow","leftarrow"],"horizon":10,"forced_choices":["leftarrow","leftarrow","rightarrow","rightarrow"],"right_color":"orange","left_color":"lightblue","left_mu":60,"right_mu":64,"left_numbers":[64,62,64,76,46,69,52,76,60,76],"right_numbers":[66,70,66,68,42,70,68,73,60,66],"points_earned":637,"phase":"task","trial_type":"horizons-task","trial_index":20,"time_elapsed":588416,"internal_node_id":"0.0-16.0","task_version":"0.2"},{"response_times":[1181,700,729,751,2230],"keys_pressed":["leftarrow","rightarrow","leftarrow","rightarrow","leftarrow"],"horizon":5,"forced_choices":["leftarrow","rightarrow","leftarrow","rightarrow"],"right_color":"orange","left_color":"lightblue","left_mu":60,"right_mu":80,"left_numbers":[68,58,49,67,47],"right_numbers":[94,83,72,79,79],"points_earned":326,"phase":"task","trial_type":"horizons-task","trial_index":21,"time_elapsed":595515,"internal_node_id":"0.0-17.0","task_version":"0.2"},{"response_times":[791,1041,1240,1100,2289],"keys_pressed":["leftarrow","leftarrow","leftarrow","rightarrow","rightarrow"],"horizon":5,"forced_choices":["leftarrow","leftarrow","leftarrow","rightarrow"],"right_color":"lightblue","left_color":"orange","left_mu":60,"right_mu":30,"left_numbers":[48,55,77,44,59],"right_numbers":[24,17,35,22,23],"points_earned":225,"phase":"task","trial_type":"horizons-task","trial_index":22,"time_elapsed":603487,"internal_node_id":"0.0-18.0","task_version":"0.2"},{"response_times":[1002,771,789,711,2389],"keys_pressed":["rightarrow","leftarrow","rightarrow","leftarrow","rightarrow"],"horizon":5,"forced_choices":["rightarrow","leftarrow","rightarrow","leftarrow"],"right_color":"lightblue","left_color":"orange","left_mu":60,"right_mu":30,"left_numbers":[59,60,68,66,63],"right_numbers":[45,26,32,30,20],"points_earned":223,"phase":"task","trial_type":"horizons-task","trial_index":23,"time_elapsed":610653,"internal_node_id":"0.0-19.0","task_version":"0.2"},{"response_times":[886,940,750,959,1999],"keys_pressed":["leftarrow","leftarrow","rightarrow","leftarrow","rightarrow"],"horizon":5,"forced_choices":["leftarrow","leftarrow","rightarrow","leftarrow"],"right_color":"lightblue","left_color":"orange","left_mu":60,"right_mu":72,"left_numbers":[72,64,42,70,58],"right_numbers":[58,70,55,69,71],"points_earned":332,"phase":"task","trial_type":"horizons-task","trial_index":24,"time_elapsed":617697,"internal_node_id":"0.0-20.0","task_version":"0.2"},{"response_times":[900,899,960,1641,1809],"keys_pressed":["rightarrow","rightarrow","leftarrow","rightarrow","leftarrow"],"horizon":5,"forced_choices":["rightarrow","rightarrow","leftarrow","rightarrow"],"right_color":"orange","left_color":"lightblue","left_mu":40,"right_mu":10,"left_numbers":[34,40,33,53,47],"right_numbers":[17,13,16,18,0],"points_earned":128,"phase":"task","trial_type":"horizons-task","trial_index":25,"time_elapsed":625414,"internal_node_id":"0.0-21.0","task_version":"0.2"},{"response_times":[785,711,789,1150,1620],"keys_pressed":["rightarrow","rightarrow","leftarrow","leftarrow","rightarrow"],"horizon":5,"forced_choices":["rightarrow","rightarrow","leftarrow","leftarrow"],"right_color":"orange","left_color":"lightblue","left_mu":40,"right_mu":10,"left_numbers":[41,31,36,42,52],"right_numbers":[3,5,17,11,22],"points_earned":108,"phase":"task","trial_type":"horizons-task","trial_index":26,"time_elapsed":631976,"internal_node_id":"0.0-22.0","task_version":"0.2"},{"response_times":[673,830,2589,1311,1271],"keys_pressed":["rightarrow","leftarrow","leftarrow","leftarrow","rightarrow"],"horizon":5,"forced_choices":["rightarrow","leftarrow","leftarrow","leftarrow"],"right_color":"lightblue","left_color":"orange","left_mu":60,"right_mu":56,"left_numbers":[49,59,67,58,48],"right_numbers":[53,69,64,60,53],"points_earned":290,"phase":"task","trial_type":"horizons-task","trial_index":27,"time_elapsed":640154,"internal_node_id":"0.0-23.0","task_version":"0.2"},{"response_times":[776,601,849,680,2680],"keys_pressed":["leftarrow","rightarrow","rightarrow","leftarrow","leftarrow"],"horizon":5,"forced_choices":["leftarrow","rightarrow","rightarrow","leftarrow"],"right_color":"lightblue","left_color":"orange","left_mu":40,"right_mu":70,"left_numbers":[27,37,38,44,44],"right_numbers":[76,63,76,76,68],"points_earned":254,"phase":"task","trial_type":"horizons-task","trial_index":28,"time_elapsed":647243,"internal_node_id":"0.0-24.0","task_version":"0.2"},{"response_times":[747,849,1089,789,1890],"keys_pressed":["leftarrow","leftarrow","rightarrow","leftarrow","rightarrow"],"horizon":5,"forced_choices":["leftarrow","leftarrow","rightarrow","leftarrow"],"right_color":"lightblue","left_color":"orange","left_mu":40,"right_mu":52,"left_numbers":[30,35,21,28,33],"right_numbers":[46,52,48,50,57],"points_earned":198,"phase":"task","trial_type":"horizons-task","trial_index":29,"time_elapsed":654113,"internal_node_id":"0.0-25.0","task_version":"0.2"},{"response_times":[616,580,931,709,1150],"keys_pressed":["leftarrow","rightarrow","leftarrow","rightarrow","leftarrow"],"horizon":5,"forced_choices":["leftarrow","rightarrow","leftarrow","rightarrow"],"right_color":"lightblue","left_color":"orange","left_mu":60,"right_mu":72,"left_numbers":[66,52,60,60,54],"right_numbers":[82,74,66,71,69],"points_earned":325,"phase":"task","trial_type":"horizons-task","trial_index":30,"time_elapsed":659605,"internal_node_id":"0.0-26.0","task_version":"0.2"},{"response_times":[745,590,951,850,5499,1720,1769,2081,1439,1670],"keys_pressed":["rightarrow","leftarrow","leftarrow","rightarrow","rightarrow","leftarrow","rightarrow","leftarrow","rightarrow","leftarrow"],"horizon":10,"forced_choices":["rightarrow","leftarrow","leftarrow","rightarrow"],"right_color":"lightblue","left_color":"orange","left_mu":40,"right_mu":20,"left_numbers":[41,37,27,38,34,40,38,33,38,41],"right_numbers":[31,14,10,32,14,17,28,27,21,25],"points_earned":304,"phase":"task","trial_type":"horizons-task","trial_index":31,"time_elapsed":678426,"internal_node_id":"0.0-27.0","task_version":"0.2"},{"response_times":[694,599,590,1030,2200,2330,1370,3509,1860,970],"keys_pressed":["leftarrow","rightarrow","leftarrow","leftarrow","rightarrow","leftarrow","rightarrow","leftarrow","rightarrow","leftarrow"],"horizon":10,"forced_choices":["leftarrow","rightarrow","leftarrow","leftarrow"],"right_color":"orange","left_color":"lightblue","left_mu":60,"right_mu":90,"left_numbers":[61,45,64,75,72,60,56,62,57,59],"right_numbers":[83,84,84,77,90,104,80,91,87,81],"points_earned":722,"phase":"task","trial_type":"horizons-task","trial_index":32,"time_elapsed":695086,"internal_node_id":"0.0-28.0","task_version":"0.2"},{"response_times":[744,1030,750,920,2080,1320,1620,1210,790,670],"keys_pressed":["rightarrow","rightarrow","leftarrow","leftarrow","rightarrow","leftarrow","rightarrow","leftarrow","rightarrow","leftarrow"],"horizon":10,"forced_choices":["rightarrow","rightarrow","leftarrow","leftarrow"],"right_color":"orange","left_color":"lightblue","left_mu":40,"right_mu":44,"left_numbers":[31,37,49,44,23,39,39,37,34,51],"right_numbers":[36,41,40,40,37,43,48,54,56,59],"points_earned":438,"phase":"task","trial_type":"horizons-task","trial_index":33,"time_elapsed":707725,"internal_node_id":"0.0-29.0","task_version":"0.2"},{"response_times":[654,650,710,720,2440,1229,1170,2360,1170,700],"keys_pressed":["rightarrow","leftarrow","rightarrow","leftarrow","leftarrow","rightarrow","leftarrow","rightarrow","leftarrow","rightarrow"],"horizon":10,"forced_choices":["rightarrow","leftarrow","rightarrow","leftarrow"],"right_color":"lightblue","left_color":"orange","left_mu":60,"right_mu":68,"left_numbers":[63,66,54,65,53,76,47,54,64,60],"right_numbers":[83,68,76,73,69,69,75,83,61,79],"points_earned":685,"phase":"task","trial_type":"horizons-task","trial_index":34,"time_elapsed":721035,"internal_node_id":"0.0-30.0","task_version":"0.2"},{"response_times":[579,481,550,691,2199,1090,930,5590,1060,1940],"keys_pressed":["rightarrow","leftarrow","rightarrow","leftarrow","rightarrow","leftarrow","rightarrow","rightarrow","leftarrow","rightarrow"],"horizon":10,"forced_choices":["rightarrow","leftarrow","rightarrow","leftarrow"],"right_color":"lightblue","left_color":"orange","left_mu":60,"right_mu":30,"left_numbers":[60,60,64,55,51,70,60,66,53,54],"right_numbers":[30,23,16,26,42,32,30,39,39,41],"points_earned":436,"phase":"task","trial_type":"horizons-task","trial_index":35,"time_elapsed":737657,"internal_node_id":"0.0-31.0","task_version":"0.2"},{"response_times":[1074,650,659,669,4922],"keys_pressed":["leftarrow","rightarrow","leftarrow","rightarrow","leftarrow"],"horizon":5,"forced_choices":["leftarrow","rightarrow","leftarrow","rightarrow"],"right_color":"orange","left_color":"lightblue","left_mu":40,"right_mu":28,"left_numbers":[32,52,38,54,55],"right_numbers":[26,29,29,22,25],"points_earned":176,"phase":"task","trial_type":"horizons-task","trial_index":36,"time_elapsed":747136,"internal_node_id":"0.0-32.0","task_version":"0.2"},{"response_times":[1035,730,579,700,1820],"keys_pressed":["leftarrow","leftarrow","leftarrow","rightarrow","rightarrow"],"horizon":5,"forced_choices":["leftarrow","leftarrow","leftarrow","rightarrow"],"right_color":"lightblue","left_color":"orange","left_mu":40,"right_mu":20,"left_numbers":[24,32,38,35,21],"right_numbers":[21,13,14,15,25],"points_earned":134,"phase":"task","trial_type":"horizons-task","trial_index":37,"time_elapsed":753506,"internal_node_id":"0.0-33.0","task_version":"0.2"},{"response_times":[735,520,1219,640,2060,1210,880,777,720,590],"keys_pressed":["rightarrow","leftarrow","leftarrow","rightarrow","leftarrow","rightarrow","leftarrow","rightarrow","leftarrow","rightarrow"],"horizon":10,"forced_choices":["rightarrow","leftarrow","leftarrow","rightarrow"],"right_color":"orange","left_color":"lightblue","left_mu":40,"right_mu":48,"left_numbers":[37,38,35,38,52,35,42,25,44,40],"right_numbers":[48,35,41,52,46,46,39,52,45,47],"points_earned":456,"phase":"task","trial_type":"horizons-task","trial_index":38,"time_elapsed":764365,"internal_node_id":"0.0-34.0","task_version":"0.2"},{"response_times":[667,660,1240,2270,1941,3829,1650,1150,829,950],"keys_pressed":["leftarrow","rightarrow","rightarrow","rightarrow","leftarrow","leftarrow","rightarrow","leftarrow","leftarrow","rightarrow"],"horizon":10,"forced_choices":["leftarrow","rightarrow","rightarrow","rightarrow"],"right_color":"lightblue","left_color":"orange","left_mu":40,"right_mu":60,"left_numbers":[41,55,35,34,35,41,44,46,23,36],"right_numbers":[59,66,70,61,53,54,70,57,63,67],"points_earned":520,"phase":"task","trial_type":"horizons-task","trial_index":39,"time_elapsed":781055,"internal_node_id":"0.0-35.0","task_version":"0.2"},{"response_times":[1696,1280,1000,1272,5870,1509,2909,880,909,620],"keys_pressed":["leftarrow","rightarrow","leftarrow","rightarrow","leftarrow","rightarrow","leftarrow","rightarrow","leftarrow","rightarrow"],"horizon":10,"forced_choices":["leftarrow","rightarrow","leftarrow","rightarrow"],"right_color":"orange","left_color":"lightblue","left_mu":40,"right_mu":28,"left_numbers":[34,35,44,38,43,44,34,49,44,32],"right_numbers":[36,36,29,25,25,34,19,40,28,30],"points_earned":364,"phase":"task","trial_type":"horizons-task","trial_index":40,"time_elapsed":800509,"internal_node_id":"0.0-36.0","task_version":"0.2"},{"response_times":[733,530,719,1770,1641],"keys_pressed":["leftarrow","rightarrow","leftarrow","leftarrow","rightarrow"],"horizon":5,"forced_choices":["leftarrow","rightarrow","leftarrow","leftarrow"],"right_color":"orange","left_color":"lightblue","left_mu":60,"right_mu":90,"left_numbers":[61,44,66,57,67],"right_numbers":[102,83,87,82,91],"points_earned":358,"phase":"task","trial_type":"horizons-task","trial_index":41,"time_elapsed":807406,"internal_node_id":"0.0-37.0","task_version":"0.2"},{"response_times":[826,580,820,830,1830,1120,1590,939,779,740],"keys_pressed":["leftarrow","rightarrow","rightarrow","leftarrow","rightarrow","leftarrow","rightarrow","leftarrow","rightarrow","leftarrow"],"horizon":10,"forced_choices":["leftarrow","rightarrow","rightarrow","leftarrow"],"right_color":"lightblue","left_color":"orange","left_mu":60,"right_mu":48,"left_numbers":[66,59,64,51,46,61,69,58,81,67],"right_numbers":[54,62,30,46,48,48,48,56,51,41],"points_earned":542,"phase":"task","trial_type":"horizons-task","trial_index":42,"time_elapsed":818968,"internal_node_id":"0.0-38.0","task_version":"0.2"},{"response_times":[772,600,639,730,2611,1610,1260,1729,1209,1000],"keys_pressed":["rightarrow","leftarrow","rightarrow","leftarrow","leftarrow","rightarrow","leftarrow","rightarrow","rightarrow","rightarrow"],"horizon":10,"forced_choices":["rightarrow","leftarrow","rightarrow","leftarrow"],"right_color":"lightblue","left_color":"orange","left_mu":40,"right_mu":60,"left_numbers":[44,45,34,53,31,42,16,29,48,41],"right_numbers":[63,72,61,55,63,56,60,62,58,51],"points_earned":496,"phase":"task","trial_type":"horizons-task","trial_index":43,"time_elapsed":832638,"internal_node_id":"0.0-39.0","task_version":"0.2"},{"response_times":[934,1201,949,739,1300,2250,1011,1160,1399,2070],"keys_pressed":["leftarrow","rightarrow","leftarrow","rightarrow","leftarrow","rightarrow","rightarrow","rightarrow","rightarrow","rightarrow"],"horizon":10,"forced_choices":["leftarrow","rightarrow","leftarrow","rightarrow"],"right_color":"lightblue","left_color":"orange","left_mu":60,"right_mu":72,"left_numbers":[47,67,61,59,71,64,51,50,61,61],"right_numbers":[63,57,79,83,67,80,65,81,68,70],"points_earned":683,"phase":"task","trial_type":"horizons-task","trial_index":44,"time_elapsed":847157,"internal_node_id":"0.0-40.0","task_version":"0.2"},{"response_times":[761,811,701,808,691,1259,751,960,830,1259],"keys_pressed":["leftarrow","leftarrow","rightarrow","leftarrow","rightarrow","rightarrow","leftarrow","rightarrow","leftarrow","rightarrow"],"horizon":10,"forced_choices":["leftarrow","leftarrow","rightarrow","leftarrow"],"right_color":"orange","left_color":"lightblue","left_mu":40,"right_mu":48,"left_numbers":[35,43,40,33,40,27,42,32,41,37],"right_numbers":[61,57,64,41,49,31,56,47,44,64],"points_earned":449,"phase":"task","trial_type":"horizons-task","trial_index":45,"time_elapsed":857500,"internal_node_id":"0.0-41.0","task_version":"0.2"},{"response_times":[681,519,560,761,2108],"keys_pressed":["rightarrow","leftarrow","rightarrow","rightarrow","rightarrow"],"horizon":5,"forced_choices":["rightarrow","leftarrow","rightarrow","rightarrow"],"right_color":"orange","left_color":"lightblue","left_mu":40,"right_mu":32,"left_numbers":[45,29,34,36,38],"right_numbers":[33,30,23,33,20],"points_earned":138,"phase":"task","trial_type":"horizons-task","trial_index":46,"time_elapsed":863636,"internal_node_id":"0.0-42.0","task_version":"0.2"},{"response_times":[785,640,710,810,1120,1269,930,770,670,620],"keys_pressed":["rightarrow","rightarrow","leftarrow","leftarrow","rightarrow","rightarrow","rightarrow","rightarrow","rightarrow","rightarrow"],"horizon":10,"forced_choices":["rightarrow","rightarrow","leftarrow","leftarrow"],"right_color":"orange","left_color":"lightblue","left_mu":60,"right_mu":90,"left_numbers":[76,57,52,56,64,62,63,62,60,42],"right_numbers":[79,87,88,104,105,101,96,101,89,86],"points_earned":852,"phase":"task","trial_type":"horizons-task","trial_index":47,"time_elapsed":873467,"internal_node_id":"0.0-43.0","task_version":"0.2"},{"response_times":[707,579,770,690,1860],"keys_pressed":["leftarrow","rightarrow","leftarrow","rightarrow","leftarrow"],"horizon":5,"forced_choices":["leftarrow","rightarrow","leftarrow","rightarrow"],"right_color":"lightblue","left_color":"orange","left_mu":60,"right_mu":56,"left_numbers":[64,46,62,71,65],"right_numbers":[48,42,52,50,55],"points_earned":283,"phase":"task","trial_type":"horizons-task","trial_index":48,"time_elapsed":879579,"internal_node_id":"0.0-44.0","task_version":"0.2"},{"response_times":[673,919,771,1319,780],"keys_pressed":["rightarrow","rightarrow","leftarrow","leftarrow","rightarrow"],"horizon":5,"forced_choices":["rightarrow","rightarrow","leftarrow","leftarrow"],"right_color":"orange","left_color":"lightblue","left_mu":60,"right_mu":90,"left_numbers":[57,49,68,60,57],"right_numbers":[91,88,90,86,89],"points_earned":396,"phase":"task","trial_type":"horizons-task","trial_index":49,"time_elapsed":885546,"internal_node_id":"0.0-45.0","task_version":"0.2"},{"response_times":[644,600,620,710,2420],"keys_pressed":["rightarrow","leftarrow","rightarrow","leftarrow","rightarrow"],"horizon":5,"forced_choices":["rightarrow","leftarrow","rightarrow","leftarrow"],"right_color":"lightblue","left_color":"orange","left_mu":40,"right_mu":60,"left_numbers":[29,34,47,46,35],"right_numbers":[60,64,47,61,48],"points_earned":235,"phase":"task","trial_type":"horizons-task","trial_index":50,"time_elapsed":892047,"internal_node_id":"0.0-46.0","task_version":"0.2"},{"view_history":"[{\"page_index\":0,\"viewing_time\":3557},{\"page_index\":1,\"viewing_time\":2526}]","rt":6083,"trial_type":"instructions","trial_index":51,"time_elapsed":898134,"internal_node_id":"0.0-47.0","task_version":"0.2"},{"response_times":[1331,969,810,890,1538,2591,810,570,1780,450],"keys_pressed":["leftarrow","leftarrow","leftarrow","rightarrow","leftarrow","rightarrow","leftarrow","leftarrow","leftarrow","leftarrow"],"horizon":10,"forced_choices":["leftarrow","leftarrow","leftarrow","rightarrow"],"right_color":"lightblue","left_color":"orange","left_mu":40,"right_mu":20,"left_numbers":[37,34,45,39,40,51,52,38,34,41],"right_numbers":[11,17,12,15,9,19,24,21,14,25],"points_earned":355,"phase":"task","trial_type":"horizons-task","trial_index":52,"time_elapsed":911389,"internal_node_id":"0.0-48.0","task_version":"0.2"},{"response_times":[705,789,1511,819,1041],"keys_pressed":["leftarrow","rightarrow","rightarrow","leftarrow","leftarrow"],"horizon":5,"forced_choices":["leftarrow","rightarrow","rightarrow","leftarrow"],"right_color":"lightblue","left_color":"orange","left_mu":60,"right_mu":48,"left_numbers":[76,81,50,39,56],"right_numbers":[40,42,51,44,44],"points_earned":264,"phase":"task","trial_type":"horizons-task","trial_index":53,"time_elapsed":917759,"internal_node_id":"0.0-49.0","task_version":"0.2"},{"response_times":[564,600,700,801,2578,1521,4320,1150,900,970],"keys_pressed":["rightarrow","leftarrow","leftarrow","leftarrow","rightarrow","leftarrow","rightarrow","leftarrow","leftarrow","leftarrow"],"horizon":10,"forced_choices":["rightarrow","leftarrow","leftarrow","leftarrow"],"right_color":"lightblue","left_color":"orange","left_mu":60,"right_mu":56,"left_numbers":[50,54,66,63,57,59,54,60,63,53],"right_numbers":[46,61,51,52,67,53,44,44,61,70],"points_earned":575,"phase":"task","trial_type":"horizons-task","trial_index":54,"time_elapsed":933370,"internal_node_id":"0.0-50.0","task_version":"0.2"},{"response_times":[753,720,740,850,1459],"keys_pressed":["leftarrow","leftarrow","rightarrow","rightarrow","leftarrow"],"horizon":5,"forced_choices":["leftarrow","leftarrow","rightarrow","rightarrow"],"right_color":"orange","left_color":"lightblue","left_mu":40,"right_mu":36,"left_numbers":[35,39,38,31,32],"right_numbers":[31,14,40,33,30],"points_earned":179,"phase":"task","trial_type":"horizons-task","trial_index":55,"time_elapsed":939396,"internal_node_id":"0.0-51.0","task_version":"0.2"},{"response_times":[808,619,920,620,2080,1170,1570,1190,610,620],"keys_pressed":["leftarrow","rightarrow","rightarrow","rightarrow","leftarrow","rightarrow","rightarrow","rightarrow","rightarrow","rightarrow"],"horizon":10,"forced_choices":["leftarrow","rightarrow","rightarrow","rightarrow"],"right_color":"lightblue","left_color":"orange","left_mu":60,"right_mu":68,"left_numbers":[76,60,58,50,52,67,50,56,53,46],"right_numbers":[67,67,62,68,77,77,60,91,76,57],"points_earned":686,"phase":"task","trial_type":"horizons-task","trial_index":56,"time_elapsed":951109,"internal_node_id":"0.0-52.0","task_version":"0.2"},{"response_times":[785,610,650,840,660,1120,940,560,520,510],"keys_pressed":["leftarrow","rightarrow","leftarrow","rightarrow","leftarrow","rightarrow","rightarrow","rightarrow","rightarrow","rightarrow"],"horizon":10,"forced_choices":["leftarrow","rightarrow","leftarrow","rightarrow"],"right_color":"orange","left_color":"lightblue","left_mu":60,"right_mu":80,"left_numbers":[56,51,64,47,55,70,66,72,59,63],"right_numbers":[86,98,72,62,82,89,82,74,73,78],"points_earned":731,"phase":"task","trial_type":"horizons-task","trial_index":57,"time_elapsed":959809,"internal_node_id":"0.0-53.0","task_version":"0.2"},{"response_times":[765,710,610,1460,2360],"keys_pressed":["rightarrow","leftarrow","rightarrow","leftarrow","rightarrow"],"horizon":5,"forced_choices":["rightarrow","leftarrow","rightarrow","leftarrow"],"right_color":"lightblue","left_color":"orange","left_mu":60,"right_mu":68,"left_numbers":[45,58,51,63,58],"right_numbers":[75,73,58,71,77],"points_earned":331,"phase":"task","trial_type":"horizons-task","trial_index":58,"time_elapsed":967220,"internal_node_id":"0.0-54.0","task_version":"0.2"},{"response_times":[605,620,660,900,990,2309,1071,979,1241,900],"keys_pressed":["leftarrow","rightarrow","leftarrow","rightarrow","leftarrow","rightarrow","rightarrow","leftarrow","rightarrow","leftarrow"],"horizon":10,"forced_choices":["leftarrow","rightarrow","leftarrow","rightarrow"],"right_color":"lightblue","left_color":"orange","left_mu":60,"right_mu":56,"left_numbers":[58,51,60,65,60,54,57,61,58,63],"right_numbers":[67,71,44,60,60,60,60,58,54,57],"points_earned":607,"phase":"task","trial_type":"horizons-task","trial_index":59,"time_elapsed":978999,"internal_node_id":"0.0-55.0","task_version":"0.2"},{"response_times":[656,511,669,640,1629],"keys_pressed":["rightarrow","leftarrow","leftarrow","leftarrow","rightarrow"],"horizon":5,"forced_choices":["rightarrow","leftarrow","leftarrow","leftarrow"],"right_color":"orange","left_color":"lightblue","left_mu":60,"right_mu":80,"left_numbers":[52,48,67,47,54],"right_numbers":[80,91,90,76,81],"points_earned":323,"phase":"task","trial_type":"horizons-task","trial_index":60,"time_elapsed":984610,"internal_node_id":"0.0-56.0","task_version":"0.2"},{"response_times":[706,1200,820,1300,1590],"keys_pressed":["rightarrow","rightarrow","leftarrow","rightarrow","leftarrow"],"horizon":5,"forced_choices":["rightarrow","rightarrow","leftarrow","rightarrow"],"right_color":"lightblue","left_color":"orange","left_mu":60,"right_mu":52,"left_numbers":[62,75,53,45,49],"right_numbers":[56,57,43,47,46],"points_earned":262,"phase":"task","trial_type":"horizons-task","trial_index":61,"time_elapsed":991728,"internal_node_id":"0.0-57.0","task_version":"0.2"},{"response_times":[897,480,581,679,2281,939,1559,840,650,569],"keys_pressed":["rightarrow","leftarrow","leftarrow","leftarrow","rightarrow","rightarrow","leftarrow","rightarrow","rightarrow","rightarrow"],"horizon":10,"forced_choices":["rightarrow","leftarrow","leftarrow","leftarrow"],"right_color":"orange","left_color":"lightblue","left_mu":60,"right_mu":80,"left_numbers":[60,62,59,64,62,51,49,54,67,64],"right_numbers":[83,73,74,74,79,65,66,77,72,86],"points_earned":696,"phase":"task","trial_type":"horizons-task","trial_index":62,"time_elapsed":1002711,"internal_node_id":"0.0-58.0","task_version":"0.2"},{"response_times":[674,671,660,730,2000],"keys_pressed":["rightarrow","rightarrow","rightarrow","leftarrow","rightarrow"],"horizon":5,"forced_choices":["rightarrow","rightarrow","rightarrow","leftarrow"],"right_color":"orange","left_color":"lightblue","left_mu":40,"right_mu":44,"left_numbers":[41,30,29,40,42],"right_numbers":[53,30,46,50,54],"points_earned":223,"phase":"task","trial_type":"horizons-task","trial_index":63,"time_elapsed":1008949,"internal_node_id":"0.0-59.0","task_version":"0.2"},{"response_times":[676,690,690,850,909,2690,990,660,1345,625],"keys_pressed":["rightarrow","rightarrow","rightarrow","leftarrow","leftarrow","rightarrow","leftarrow","leftarrow","rightarrow","leftarrow"],"horizon":10,"forced_choices":["rightarrow","rightarrow","rightarrow","leftarrow"],"right_color":"lightblue","left_color":"orange","left_mu":60,"right_mu":48,"left_numbers":[57,62,57,51,59,69,57,45,70,58],"right_numbers":[50,45,52,44,52,35,42,48,41,42],"points_earned":493,"phase":"task","trial_type":"horizons-task","trial_index":64,"time_elapsed":1020580,"internal_node_id":"0.0-60.0","task_version":"0.2"},{"response_times":[615,529,910,1020,2379],"keys_pressed":["rightarrow","leftarrow","leftarrow","rightarrow","leftarrow"],"horizon":5,"forced_choices":["rightarrow","leftarrow","leftarrow","rightarrow"],"right_color":"orange","left_color":"lightblue","left_mu":40,"right_mu":48,"left_numbers":[36,53,34,32,29],"right_numbers":[59,49,53,37,57],"points_earned":212,"phase":"task","trial_type":"horizons-task","trial_index":65,"time_elapsed":1027540,"internal_node_id":"0.0-61.0","task_version":"0.2"},{"response_times":[706,650,680,670,2700,2710,700,1429,641,870],"keys_pressed":["leftarrow","leftarrow","rightarrow","leftarrow","rightarrow","leftarrow","rightarrow","leftarrow","rightarrow","rightarrow"],"horizon":10,"forced_choices":["leftarrow","leftarrow","rightarrow","leftarrow"],"right_color":"lightblue","left_color":"orange","left_mu":40,"right_mu":52,"left_numbers":[46,37,36,36,37,35,49,37,40,41],"right_numbers":[47,60,43,40,55,54,39,52,55,47],"points_earned":430,"phase":"task","trial_type":"horizons-task","trial_index":66,"time_elapsed":1040805,"internal_node_id":"0.0-62.0","task_version":"0.2"},{"response_times":[1000,549,690,1129,1362],"keys_pressed":["leftarrow","rightarrow","leftarrow","leftarrow","rightarrow"],"horizon":5,"forced_choices":["leftarrow","rightarrow","leftarrow","leftarrow"],"right_color":"orange","left_color":"lightblue","left_mu":40,"right_mu":36,"left_numbers":[43,39,30,41,32],"right_numbers":[22,38,34,35,24],"points_earned":176,"phase":"task","trial_type":"horizons-task","trial_index":67,"time_elapsed":1047046,"internal_node_id":"0.0-63.0","task_version":"0.2"},{"response_times":[770,600,680,900,1179,731,1490,510,760,580],"keys_pressed":["leftarrow","rightarrow","rightarrow","leftarrow","leftarrow","leftarrow","rightarrow","leftarrow","leftarrow","rightarrow"],"horizon":10,"forced_choices":["leftarrow","rightarrow","rightarrow","leftarrow"],"right_color":"orange","left_color":"lightblue","left_mu":60,"right_mu":40,"left_numbers":[64,51,52,60,58,58,66,54,56,63],"right_numbers":[46,32,28,47,43,23,44,45,56,36],"points_earned":490,"phase":"task","trial_type":"horizons-task","trial_index":68,"time_elapsed":1056749,"internal_node_id":"0.0-64.0","task_version":"0.2"},{"response_times":[716,549,560,1280,1990,829,961,630,460,420],"keys_pressed":["leftarrow","rightarrow","leftarrow","leftarrow","rightarrow","leftarrow","rightarrow","leftarrow","leftarrow","leftarrow"],"horizon":10,"forced_choices":["leftarrow","rightarrow","leftarrow","leftarrow"],"right_color":"orange","left_color":"lightblue","left_mu":40,"right_mu":36,"left_numbers":[39,50,32,35,44,47,56,57,39,36],"right_numbers":[32,31,36,38,23,34,23,19,23,36],"points_earned":362,"phase":"task","trial_type":"horizons-task","trial_index":69,"time_elapsed":1066655,"internal_node_id":"0.0-65.0","task_version":"0.2"},{"response_times":[601,500,530,1478,1460],"keys_pressed":["rightarrow","leftarrow","rightarrow","rightarrow","leftarrow"],"horizon":5,"forced_choices":["rightarrow","leftarrow","rightarrow","rightarrow"],"right_color":"orange","left_color":"lightblue","left_mu":60,"right_mu":40,"left_numbers":[62,70,63,46,60],"right_numbers":[38,44,41,30,24],"points_earned":239,"phase":"task","trial_type":"horizons-task","trial_index":70,"time_elapsed":1072729,"internal_node_id":"0.0-66.0","task_version":"0.2"},{"response_times":[622,629,1028,1222,2970],"keys_pressed":["rightarrow","leftarrow","leftarrow","rightarrow","leftarrow"],"horizon":5,"forced_choices":["rightarrow","leftarrow","leftarrow","rightarrow"],"right_color":"lightblue","left_color":"orange","left_mu":60,"right_mu":52,"left_numbers":[59,65,47,57,59],"right_numbers":[74,57,46,52,46],"points_earned":297,"phase":"task","trial_type":"horizons-task","trial_index":71,"time_elapsed":1080716,"internal_node_id":"0.0-67.0","task_version":"0.2"},{"response_times":[731,470,810,629,1661,700,700,530,539,500],"keys_pressed":["leftarrow","rightarrow","rightarrow","leftarrow","rightarrow","rightarrow","rightarrow","rightarrow","rightarrow","rightarrow"],"horizon":10,"forced_choices":["leftarrow","rightarrow","rightarrow","leftarrow"],"right_color":"lightblue","left_color":"orange","left_mu":40,"right_mu":70,"left_numbers":[41,29,43,46,37,49,40,37,36,40],"right_numbers":[58,78,67,73,78,77,66,68,71,68],"points_earned":660,"phase":"task","trial_type":"horizons-task","trial_index":72,"time_elapsed":1089489,"internal_node_id":"0.0-68.0","task_version":"0.2"},{"response_times":[727,500,579,701,739],"keys_pressed":["leftarrow","rightarrow","rightarrow","leftarrow","leftarrow"],"horizon":5,"forced_choices":["leftarrow","rightarrow","rightarrow","leftarrow"],"right_color":"orange","left_color":"lightblue","left_mu":60,"right_mu":40,"left_numbers":[64,52,65,78,58],"right_numbers":[42,39,41,45,38],"points_earned":280,"phase":"task","trial_type":"horizons-task","trial_index":73,"time_elapsed":1094240,"internal_node_id":"0.0-69.0","task_version":"0.2"},{"response_times":[637,788,622,910,1400,820,1580,1139,670,621],"keys_pressed":["rightarrow","rightarrow","leftarrow","leftarrow","leftarrow","leftarrow","leftarrow","rightarrow","leftarrow","leftarrow"],"horizon":10,"forced_choices":["rightarrow","rightarrow","leftarrow","leftarrow"],"right_color":"orange","left_color":"lightblue","left_mu":40,"right_mu":10,"left_numbers":[35,41,39,27,48,33,36,43,35,37],"right_numbers":[8,9,0,6,15,7,7,0,8,9],"points_earned":272,"phase":"task","trial_type":"horizons-task","trial_index":74,"time_elapsed":1104930,"internal_node_id":"0.0-70.0","task_version":"0.2"},{"response_times":[727,570,639,800,700],"keys_pressed":["leftarrow","rightarrow","rightarrow","rightarrow","rightarrow"],"horizon":5,"forced_choices":["leftarrow","rightarrow","rightarrow","rightarrow"],"right_color":"lightblue","left_color":"orange","left_mu":40,"right_mu":70,"left_numbers":[49,45,49,32,44],"right_numbers":[74,66,71,64,74],"points_earned":324,"phase":"task","trial_type":"horizons-task","trial_index":75,"time_elapsed":1109874,"internal_node_id":"0.0-71.0","task_version":"0.2"},{"response_times":[594,790,710,949,769],"keys_pressed":["rightarrow","rightarrow","leftarrow","leftarrow","rightarrow"],"horizon":5,"forced_choices":["rightarrow","rightarrow","leftarrow","leftarrow"],"right_color":"orange","left_color":"lightblue","left_mu":40,"right_mu":44,"left_numbers":[59,35,29,37,43],"right_numbers":[32,47,45,45,18],"points_earned":163,"phase":"task","trial_type":"horizons-task","trial_index":76,"time_elapsed":1115191,"internal_node_id":"0.0-72.0","task_version":"0.2"},{"response_times":[516,670,540,629,2121,1930,730,780,559,601],"keys_pressed":["leftarrow","leftarrow","rightarrow","leftarrow","rightarrow","leftarrow","rightarrow","leftarrow","rightarrow","rightarrow"],"horizon":10,"forced_choices":["leftarrow","leftarrow","rightarrow","leftarrow"],"right_color":"lightblue","left_color":"orange","left_mu":60,"right_mu":72,"left_numbers":[57,62,58,62,64,52,63,49,53,67],"right_numbers":[63,78,78,70,66,72,69,74,71,64],"points_earned":630,"phase":"task","trial_type":"horizons-task","trial_index":77,"time_elapsed":1125775,"internal_node_id":"0.0-73.0","task_version":"0.2"},{"response_times":[702,500,819,740,669],"keys_pressed":["rightarrow","leftarrow","leftarrow","rightarrow","leftarrow"],"horizon":5,"forced_choices":["rightarrow","leftarrow","leftarrow","rightarrow"],"right_color":"lightblue","left_color":"orange","left_mu":40,"right_mu":20,"left_numbers":[44,44,38,26,55],"right_numbers":[18,7,14,6,14],"points_earned":161,"phase":"task","trial_type":"horizons-task","trial_index":78,"time_elapsed":1130715,"internal_node_id":"0.0-74.0","task_version":"0.2"},{"response_times":[731,561,549,650,600,1310,1031,960,890,1039],"keys_pressed":["leftarrow","leftarrow","rightarrow","rightarrow","leftarrow","rightarrow","rightarrow","leftarrow","leftarrow","rightarrow"],"horizon":10,"forced_choices":["leftarrow","leftarrow","rightarrow","rightarrow"],"right_color":"orange","left_color":"lightblue","left_mu":40,"right_mu":32,"left_numbers":[40,44,40,41,26,46,34,40,28,30],"right_numbers":[23,20,38,46,33,45,26,38,19,15],"points_earned":348,"phase":"task","trial_type":"horizons-task","trial_index":79,"time_elapsed":1140546,"internal_node_id":"0.0-75.0","task_version":"0.2"},{"response_times":[652,609,590,641,829,3000,780,730,620,680],"keys_pressed":["rightarrow","rightarrow","rightarrow","leftarrow","leftarrow","rightarrow","leftarrow","rightarrow","leftarrow","rightarrow"],"horizon":10,"forced_choices":["rightarrow","rightarrow","rightarrow","leftarrow"],"right_color":"orange","left_color":"lightblue","left_mu":40,"right_mu":44,"left_numbers":[38,28,54,36,42,32,41,31,39,50],"right_numbers":[39,48,32,42,43,41,47,50,53,49],"points_earned":417,"phase":"task","trial_type":"horizons-task","trial_index":80,"time_elapsed":1151185,"internal_node_id":"0.0-76.0","task_version":"0.2"},{"response_times":[1044,970,580,679,1511,610,789,420,450,389],"keys_pressed":["leftarrow","leftarrow","leftarrow","rightarrow","leftarrow","rightarrow","leftarrow","leftarrow","leftarrow","leftarrow"],"horizon":10,"forced_choices":["leftarrow","leftarrow","leftarrow","rightarrow"],"right_color":"lightblue","left_color":"orange","left_mu":60,"right_mu":30,"left_numbers":[52,54,65,62,46,66,74,70,46,52],"right_numbers":[17,33,42,37,27,33,37,21,33,10],"points_earned":529,"phase":"task","trial_type":"horizons-task","trial_index":81,"time_elapsed":1160130,"internal_node_id":"0.0-77.0","task_version":"0.2"},{"response_times":[837,551,560,620,1890],"keys_pressed":["rightarrow","leftarrow","leftarrow","leftarrow","leftarrow"],"horizon":5,"forced_choices":["rightarrow","leftarrow","leftarrow","leftarrow"],"right_color":"orange","left_color":"lightblue","left_mu":40,"right_mu":28,"left_numbers":[49,35,44,34,25],"right_numbers":[13,22,34,28,36],"points_earned":151,"phase":"task","trial_type":"horizons-task","trial_index":82,"time_elapsed":1166095,"internal_node_id":"0.0-78.0","task_version":"0.2"},{"response_times":[613,650,709,751,2550],"keys_pressed":["rightarrow","rightarrow","leftarrow","rightarrow","rightarrow"],"horizon":5,"forced_choices":["rightarrow","rightarrow","leftarrow","rightarrow"],"right_color":"orange","left_color":"lightblue","left_mu":60,"right_mu":64,"left_numbers":[59,76,76,48,62],"right_numbers":[61,76,54,67,70],"points_earned":350,"phase":"task","trial_type":"horizons-task","trial_index":83,"time_elapsed":1172875,"internal_node_id":"0.0-79.0","task_version":"0.2"},{"response_times":[933,559,590,730,2210],"keys_pressed":["leftarrow","rightarrow","rightarrow","rightarrow","leftarrow"],"horizon":5,"forced_choices":["leftarrow","rightarrow","rightarrow","rightarrow"],"right_color":"lightblue","left_color":"orange","left_mu":60,"right_mu":68,"left_numbers":[72,65,63,58,69],"right_numbers":[72,62,59,62,79],"points_earned":324,"phase":"task","trial_type":"horizons-task","trial_index":84,"time_elapsed":1179405,"internal_node_id":"0.0-80.0","task_version":"0.2"},{"response_times":[663,580,500,1090,1869,1089,1211,788,731,589],"keys_pressed":["rightarrow","leftarrow","rightarrow","rightarrow","leftarrow","leftarrow","rightarrow","leftarrow","leftarrow","leftarrow"],"horizon":10,"forced_choices":["rightarrow","leftarrow","rightarrow","rightarrow"],"right_color":"orange","left_color":"lightblue","left_mu":60,"right_mu":40,"left_numbers":[52,64,57,60,62,47,61,78,51,70],"right_numbers":[31,38,32,44,36,45,41,34,24,48],"points_earned":520,"phase":"task","trial_type":"horizons-task","trial_index":85,"time_elapsed":1190021,"internal_node_id":"0.0-81.0","task_version":"0.2"},{"response_times":[625,530,750,610,2320,1010,1729,531,450,489],"keys_pressed":["rightarrow","rightarrow","leftarrow","rightarrow","leftarrow","leftarrow","leftarrow","leftarrow","leftarrow","leftarrow"],"horizon":10,"forced_choices":["rightarrow","rightarrow","leftarrow","rightarrow"],"right_color":"lightblue","left_color":"orange","left_mu":60,"right_mu":52,"left_numbers":[60,69,68,77,65,54,57,52,61,64],"right_numbers":[44,52,56,50,35,56,53,44,56,55],"points_earned":567,"phase":"task","trial_type":"horizons-task","trial_index":86,"time_elapsed":1200576,"internal_node_id":"0.0-82.0","task_version":"0.2"},{"response_times":[962,530,700,569,1880,750,530,469,430,449],"keys_pressed":["leftarrow","rightarrow","rightarrow","rightarrow","rightarrow","rightarrow","rightarrow","rightarrow","rightarrow","rightarrow"],"horizon":10,"forced_choices":["leftarrow","rightarrow","rightarrow","rightarrow"],"right_color":"lightblue","left_color":"orange","left_mu":40,"right_mu":70,"left_numbers":[49,29,47,35,29,32,33,49,40,48],"right_numbers":[75,74,60,78,65,78,72,64,74,71],"points_earned":685,"phase":"task","trial_type":"horizons-task","trial_index":87,"time_elapsed":1209355,"internal_node_id":"0.0-83.0","task_version":"0.2"},{"response_times":[694,600,560,660,1160],"keys_pressed":["leftarrow","leftarrow","rightarrow","rightarrow","leftarrow"],"horizon":5,"forced_choices":["leftarrow","leftarrow","rightarrow","rightarrow"],"right_color":"orange","left_color":"lightblue","left_mu":40,"right_mu":32,"left_numbers":[46,52,42,26,38],"right_numbers":[37,15,27,47,19],"points_earned":210,"phase":"task","trial_type":"horizons-task","trial_index":88,"time_elapsed":1214536,"internal_node_id":"0.0-84.0","task_version":"0.2"},{"response_times":[632,530,600,860,2480],"keys_pressed":["leftarrow","rightarrow","rightarrow","rightarrow","rightarrow"],"horizon":5,"forced_choices":["leftarrow","rightarrow","rightarrow","rightarrow"],"right_color":"lightblue","left_color":"orange","left_mu":40,"right_mu":60,"left_numbers":[55,36,45,43,51],"right_numbers":[55,59,57,59,75],"points_earned":305,"phase":"task","trial_type":"horizons-task","trial_index":89,"time_elapsed":1221145,"internal_node_id":"0.0-85.0","task_version":"0.2"},{"response_times":[704,629,619,571,1730,1181,570,449,440,480],"keys_pressed":["rightarrow","rightarrow","leftarrow","rightarrow","leftarrow","leftarrow","leftarrow","leftarrow","leftarrow","leftarrow"],"horizon":10,"forced_choices":["rightarrow","rightarrow","leftarrow","rightarrow"],"right_color":"orange","left_color":"lightblue","left_mu":40,"right_mu":10,"left_numbers":[37,31,46,37,37,44,26,33,34,46],"right_numbers":[11,16,0,11,0,10,3,9,11,10],"points_earned":304,"phase":"task","trial_type":"horizons-task","trial_index":90,"time_elapsed":1230023,"internal_node_id":"0.0-86.0","task_version":"0.2"},{"response_times":[695,521,580,979,670,871,570,489,450,390],"keys_pressed":["rightarrow","leftarrow","leftarrow","rightarrow","leftarrow","rightarrow","rightarrow","rightarrow","rightarrow","rightarrow"],"horizon":10,"forced_choices":["rightarrow","leftarrow","leftarrow","rightarrow"],"right_color":"lightblue","left_color":"orange","left_mu":40,"right_mu":52,"left_numbers":[31,44,43,45,33,44,33,40,36,42],"right_numbers":[56,42,29,44,64,61,45,59,51,41],"points_earned":477,"phase":"task","trial_type":"horizons-task","trial_index":91,"time_elapsed":1237745,"internal_node_id":"0.0-87.0","task_version":"0.2"},{"rt":15231,"responses":{"age":"36","gender-categorical":"Female","gender-free-response":"","ethnicity":"Rather not say","race":["Asian","White"],"language":"Yes","fluency":"Very well"},"survey":"demographics","trial_type":"survey-demo","trial_index":92,"time_elapsed":1252991,"internal_node_id":"0.0-88.0","task_version":"0.2"},{"rt":22465,"responses":{"difficulty":"3","fun":"4","clarity":"4","strategy":"no","feedback":"no"},"survey":"debrief","trial_type":"survey-debrief","trial_index":93,"time_elapsed":1275465,"internal_node_id":"0.0-89.0","task_version":"0.2","interactions":"[{\"event\":\"focus\",\"trial\":0,\"time\":0}]"}]