[{"view_history":"[{\"page_index\":0,\"viewing_time\":3498.3400000201073}]","rt":3499.470000009751,"trial_type":"instructions","trial_index":0,"time_elapsed":3512,"internal_node_id":"0.0-0.0","task_version":"0.2"},{"item_order":[3,1,14,13,11,10,8,5,4,7,15,6,9,12,2,0],"responses":{"Q04":"3","Q02":"4","Q15":"4","Q14":"2","Q12":"4","Q11":"4","Q09":"4","Q06":"4","Q05":"4","Q08":"4","Q16":"4","Q07":"5","Q10":"4","Q13":"4","Q03":"5","Q01":"5"},"radio_events":[5750.284999987343,10221.094999986235,13403.044999984559,17982.814999995753,23428.85500000557,25776.719999994384,35059.929999988526,36753.44500000938,44978.99000000325,47826.854999992065,49690.48499999917,54120.91500000679,57428.95500001032,59183.11499999254,63792.48999999254,64777.169999986654],"key_events":[],"mouse_events":[0.49000000581145287,5750.284999987343,8041.239999991376,10221.094999986235,11771.089999994729,13403.044999984559,17982.814999995753,23428.85500000557,25776.719999994384,32840.47999998438,35059.929999988526,36753.44500000938,44978.99000000325,47826.854999992065,49690.48499999917,54120.91500000679,57428.95500001032,59183.11499999254,61851.36000000057,63792.48999999254,64777.169999986654,66211.21499998844],"rt":66216.55000001192,"survey":"nfc","trial_type":"survey-template","trial_index":1,"time_elapsed":69746,"internal_node_id":"0.0-1.0","task_version":"0.2"},{"item_order":[4,1,9,0,6,11,2,8,10,5,3,12,7],"responses":{"Q05":"3","Q02":"3","Q10":"3","Q01":"4","Q07":"4","Q12":"4","Q03":"4","Q09":"4","Q11":"4","Q06":"1","Q04":"2","Q13":"4","Q08":"4"},"radio_events":[14611.31999999634,15058.13499999931,16913.534999999683,19824.899999977788,22632.04999998561,24477.069999993546,26837.444999982836,28180.18499997561,33946.91499997862,35446.55500000226,38823.83499998832,41140.494999999646,44588.90000000247,46557.789999991655],"key_events":[],"mouse_events":[10439.134999993257,14611.31999999634,15058.13499999931,16913.534999999683,19824.899999977788,22632.04999998561,24477.069999993546,26837.444999982836,28180.18499997561,33946.91499997862,35446.55500000226,38823.83499998832,41140.494999999646,44588.90000000247,46557.789999991655,47868.30000000191],"rt":47875.58999998146,"survey":"ius12","trial_type":"survey-template","trial_index":2,"time_elapsed":117629,"internal_node_id":"0.0-2.0","task_version":"0.2"},{"item_order":[14,7,5,8,12,13,16,0,3,6,4,2,15,1,11,9,10],"responses":{"Q15":"3","Q08":"3","Q06":"3","Q09":"3","Q13":"3","Q14":"3","Q17":"0","Q01":"4","Q04":"3","Q07":"3","Q05":"3","Q03":"4","Q16":"3","Q02":"2","Q12":"2","Q10":"3","Q11":"1"},"radio_events":[3655.765000003157,6511.960000003455,10787.465000001248,12278.38500001235,16378.224999993108,21765.13499999419,24275.930000003427,28762.749999994412,31900.23500000825,34482.29499999434,38549.62999999407,38974.95999999228,45981.635000003735,49005.41000001249,51605.66000000108,53617.07999999635,56355.23000001558,59818.774999992456],"key_events":[],"mouse_events":[3655.765000003157,6511.960000003455,9235.035000019707,10787.465000001248,12278.38500001235,16378.224999993108,17944.164999993518,21765.13499999419,24275.930000003427,28762.749999994412,31900.23500000825,34482.29499999434,38549.62999999407,38974.95999999228,45981.635000003735,49005.41000001249,51605.66000000108,53617.07999999635,56355.23000001558,59818.774999992456,61118.40000000666],"rt":61125.56499999482,"survey":"pswq","trial_type":"survey-template","trial_index":3,"time_elapsed":178772,"internal_node_id":"0.0-3.0","task_version":"0.2"},{"view_history":"[{\"page_index\":0,\"viewing_time\":4746.624999999767},{\"page_index\":1,\"viewing_time\":3655.4699999978766},{\"page_index\":2,\"viewing_time\":7199.699999997392},{\"page_index\":3,\"viewing_time\":4317.589999991469},{\"page_index\":4,\"viewing_time\":3493.8900000124704},{\"page_index\":5,\"viewing_time\":2944.2899999849033},{\"page_index\":6,\"viewing_time\":4392.970000015339},{\"page_index\":7,\"viewing_time\":5467.659999994794},{\"page_index\":8,\"viewing_time\":8023.985000007087},{\"page_index\":9,\"viewing_time\":4176.390000007814}]","rt":48419.055000005756,"trial_type":"instructions","trial_index":4,"time_elapsed":227194,"internal_node_id":"0.0-4.0-0.0","task_version":"0.2"},{"response_times":[1875.2600000007078,1341.2349999998696,561.5850000176579,706.5650000004098,1182.0299999963026],"keys_pressed":["rightarrow","leftarrow","rightarrow","rightarrow","rightarrow"],"horizon":5,"forced_choices":["rightarrow","leftarrow","rightarrow","rightarrow"],"right_color":"lightblue","left_color":"orange","left_mu":40,"right_mu":20,"left_numbers":[35,41,45,42,54],"right_numbers":[19,17,9,21,2],"points_earned":92,"phase":"practice","trial_type":"horizons-task","trial_index":5,"time_elapsed":234382,"internal_node_id":"0.0-4.0-1.0","task_version":"0.2"},{"response_times":[1027.5499999988824,810.4750000056811,1077.1900000108872,617.54999999539,972.1949999802746,29.24999999231659,729.334999981802,9.590000001480803,554.054999985965,9.729999990668148],"keys_pressed":["leftarrow","leftarrow","rightarrow","rightarrow","leftarrow","rightarrow","rightarrow","leftarrow","rightarrow","leftarrow"],"horizon":10,"forced_choices":["leftarrow","leftarrow","rightarrow","rightarrow"],"right_color":"orange","left_color":"lightblue","left_mu":60,"right_mu":70,"left_numbers":[69,62,46,61,57,62,77,51,57,60],"right_numbers":[63,64,74,64,60,75,87,64,79,58],"points_earned":678,"phase":"practice","trial_type":"horizons-task","trial_index":6,"time_elapsed":241724,"internal_node_id":"0.0-4.0-2.0","task_version":"0.2"},{"view_history":"[{\"page_index\":0,\"viewing_time\":2100.815000012517},{\"page_index\":1,\"viewing_time\":217.25499999593012},{\"page_index\":2,\"viewing_time\":2723.5900000086986},{\"page_index\":3,\"viewing_time\":1776.4449999958742}]","rt":6818.780000001425,"trial_type":"instructions","trial_index":7,"time_elapsed":248544,"internal_node_id":"0.0-4.0-3.0","task_version":"0.2"},{"responses":["true","false","false"],"num_errors":1,"rt":12646.260000008624,"trial_type":"horizons-comprehension","trial_index":8,"time_elapsed":261198,"internal_node_id":"0.0-4.0-4.0","task_version":"0.2"},{"view_history":"[{\"page_index\":0,\"viewing_time\":4941.894999996293},{\"page_index\":1,\"viewing_time\":2135.2049999986775},{\"page_index\":2,\"viewing_time\":2176.2849999940954},{\"page_index\":3,\"viewing_time\":2831.2300000106916},{\"page_index\":4,\"viewing_time\":1224.9749999900814},{\"page_index\":5,\"viewing_time\":1221.335000009276},{\"page_index\":6,\"viewing_time\":1174.3149999820162},{\"page_index\":7,\"viewing_time\":1301.5600000217091},{\"page_index\":8,\"viewing_time\":2198.3649999892805},{\"page_index\":9,\"viewing_time\":1514.035000000149}]","rt":20719.64999998454,"trial_type":"instructions","trial_index":9,"time_elapsed":281924,"internal_node_id":"0.0-4.1-0.1","task_version":"0.2"},{"response_times":[1040.340000006836,1119.5050000096671,497.3150000150781,580.9299999964423,1320.4900000127964],"keys_pressed":["rightarrow","leftarrow","rightarrow","rightarrow","leftarrow"],"horizon":5,"forced_choices":["rightarrow","leftarrow","rightarrow","rightarrow"],"right_color":"lightblue","left_color":"orange","left_mu":40,"right_mu":20,"left_numbers":[24,42,40,36,29],"right_numbers":[18,27,5,37,35],"points_earned":131,"phase":"practice","trial_type":"horizons-task","trial_index":10,"time_elapsed":287986,"internal_node_id":"0.0-4.1-1.1","task_version":"0.2"},{"response_times":[1132.6699999917764,635.6899999955203,479.5849999936763,665.8499999903142,604.9350000103004,25.714999996125698,534.0450000076089,19.605000008596107,469.76000000722706,16.28999999957159],"keys_pressed":["leftarrow","leftarrow","rightarrow","rightarrow","leftarrow","rightarrow","leftarrow","rightarrow","leftarrow","rightarrow"],"horizon":10,"forced_choices":["leftarrow","leftarrow","rightarrow","rightarrow"],"right_color":"orange","left_color":"lightblue","left_mu":60,"right_mu":70,"left_numbers":[59,63,62,76,66,52,60,62,63,57],"right_numbers":[64,69,68,84,84,76,78,65,75,70],"points_earned":674,"phase":"practice","trial_type":"horizons-task","trial_index":11,"time_elapsed":294075,"internal_node_id":"0.0-4.1-2.1","task_version":"0.2"},{"view_history":"[{\"page_index\":0,\"viewing_time\":2283.430000010412},{\"page_index\":1,\"viewing_time\":3053.1149999878835},{\"page_index\":2,\"viewing_time\":1946.7749999894295},{\"page_index\":3,\"viewing_time\":1323.9300000132062}]","rt":8607.929999998305,"trial_type":"instructions","trial_index":12,"time_elapsed":302684,"internal_node_id":"0.0-4.1-3.1","task_version":"0.2"},{"responses":["true","false","true"],"num_errors":0,"rt":9989.520000002813,"trial_type":"horizons-comprehension","trial_index":13,"time_elapsed":312678,"internal_node_id":"0.0-4.1-4.1","task_version":"0.2"},{"trial_type":"call-function","trial_index":14,"time_elapsed":312684,"internal_node_id":"0.0-5.0","task_version":"0.2"},{"view_history":"[{\"page_index\":0,\"viewing_time\":1823.7499999813735},{\"page_index\":1,\"viewing_time\":2504.4900000211783}]","rt":4328.899999993155,"trial_type":"instructions","trial_index":15,"time_elapsed":317017,"internal_node_id":"0.0-6.0","task_version":"0.2"},{"response_times":[1682.0050000096671,598.5100000107195,863.8900000078138,527.7750000241213,1267.3849999846425,534.6499999868684,19.085000007180497,438.43500001821667,12.859999987995252,609.150000003865],"keys_pressed":["rightarrow","rightarrow","leftarrow","rightarrow","leftarrow","leftarrow","rightarrow","rightarrow","leftarrow","leftarrow"],"horizon":10,"forced_choices":["rightarrow","rightarrow","leftarrow","rightarrow"],"right_color":"orange","left_color":"lightblue","left_mu":40,"right_mu":60,"left_numbers":[62,49,46,46,38,37,43,32,41,48],"right_numbers":[83,63,62,72,66,68,58,65,54,69],"points_earned":551,"phase":"task","trial_type":"horizons-task","trial_index":16,"time_elapsed":325089,"internal_node_id":"0.0-7.0","task_version":"0.2"},{"response_times":[1209.4800000195391,840.9000000101514,1627.6399999915157,590.234999981476,2615.6299999856856],"keys_pressed":["leftarrow","leftarrow","rightarrow","leftarrow","leftarrow"],"horizon":5,"forced_choices":["leftarrow","leftarrow","rightarrow","leftarrow"],"right_color":"lightblue","left_color":"orange","left_mu":40,"right_mu":48,"left_numbers":[31,35,41,37,52],"right_numbers":[48,43,51,46,57],"points_earned":206,"phase":"task","trial_type":"horizons-task","trial_index":17,"time_elapsed":333481,"internal_node_id":"0.0-8.0","task_version":"0.2"},{"response_times":[739.1549999883864,542.345000023488,418.134999985341,685.6400000106078,1250.2200000162702,8.849999983794987,410.94000000157394,16.314999986207113,385.2850000257604,13.29000000259839],"keys_pressed":["leftarrow","leftarrow","rightarrow","leftarrow","leftarrow","rightarrow","leftarrow","rightarrow","leftarrow","rightarrow"],"horizon":10,"forced_choices":["leftarrow","leftarrow","rightarrow","leftarrow"],"right_color":"lightblue","left_color":"orange","left_mu":60,"right_mu":56,"left_numbers":[55,55,66,60,54,70,80,49,45,63],"right_numbers":[58,48,50,52,61,69,39,43,42,53],"points_earned":564,"phase":"task","trial_type":"horizons-task","trial_index":18,"time_elapsed":339457,"internal_node_id":"0.0-9.0","task_version":"0.2"},{"response_times":[716.2449999887031,727.3200000054203,1482.7299999888055,651.5399999916553,778.3950000011828],"keys_pressed":["leftarrow","leftarrow","rightarrow","rightarrow","leftarrow"],"horizon":5,"forced_choices":["leftarrow","leftarrow","rightarrow","rightarrow"],"right_color":"orange","left_color":"lightblue","left_mu":40,"right_mu":10,"left_numbers":[31,38,52,36,37],"right_numbers":[27,9,22,13,10],"points_earned":141,"phase":"task","trial_type":"horizons-task","trial_index":19,"time_elapsed":345322,"internal_node_id":"0.0-10.0","task_version":"0.2"},{"response_times":[1118.3249999885447,602.3649999988265,933.6899999761954,898.1050000002142,2246.624999999767,1111.2199999915902,657.2049999958836,622.4199999996927,2471.349999977974,573.5299999942072],"keys_pressed":["leftarrow","rightarrow","leftarrow","rightarrow","rightarrow","rightarrow","rightarrow","rightarrow","rightarrow","rightarrow"],"horizon":10,"forced_choices":["leftarrow","rightarrow","leftarrow","rightarrow"],"right_color":"lightblue","left_color":"orange","left_mu":40,"right_mu":52,"left_numbers":[36,38,38,38,43,35,50,33,30,46],"right_numbers":[57,46,46,48,49,53,53,40,45,51],"points_earned":459,"phase":"task","trial_type":"horizons-task","trial_index":20,"time_elapsed":358063,"internal_node_id":"0.0-11.0","task_version":"0.2"},{"response_times":[592.1150000067428,1666.7449999949895,2082.4199999915436,706.9199999968987,1054.5700000075158,3.484999993816018,2233.684999984689,1019.6149999974295,1218.7749999866355,594.905000005383],"keys_pressed":["rightarrow","leftarrow","leftarrow","rightarrow","rightarrow","leftarrow","leftarrow","leftarrow","leftarrow","leftarrow"],"horizon":10,"forced_choices":["rightarrow","leftarrow","leftarrow","rightarrow"],"right_color":"lightblue","left_color":"orange","left_mu":40,"right_mu":36,"left_numbers":[19,47,43,36,43,45,36,34,38,43],"right_numbers":[51,32,42,23,35,21,33,46,41,35],"points_earned":395,"phase":"task","trial_type":"horizons-task","trial_index":21,"time_elapsed":370745,"internal_node_id":"0.0-12.0","task_version":"0.2"},{"response_times":[869.9699999997392,525.4349999886472,639.9749999982305,591.3850000069942,688.5699999984354,22.740000014891848,510.48500000615604,22.995000006631017,599.6499999891967,2373.395000002347],"keys_pressed":["leftarrow","rightarrow","leftarrow","leftarrow","rightarrow","leftarrow","leftarrow","rightarrow","leftarrow","leftarrow"],"horizon":10,"forced_choices":["leftarrow","rightarrow","leftarrow","leftarrow"],"right_color":"lightblue","left_color":"orange","left_mu":60,"right_mu":72,"left_numbers":[40,39,54,44,68,62,59,43,55,68],"right_numbers":[70,57,75,68,54,78,82,73,74,75],"points_earned":566,"phase":"task","trial_type":"horizons-task","trial_index":22,"time_elapsed":379094,"internal_node_id":"0.0-13.0","task_version":"0.2"},{"response_times":[879.56000000122,1129.2449999891687,445.30500000109896,687.5949999957811,1522.2900000226218,1743.1600000127219,818.9199999906123,642.7899999835063,915.2000000176486,632.4200000090059],"keys_pressed":["rightarrow","leftarrow","rightarrow","rightarrow","rightarrow","rightarrow","rightarrow","rightarrow","rightarrow","rightarrow"],"horizon":10,"forced_choices":["rightarrow","leftarrow","rightarrow","rightarrow"],"right_color":"orange","left_color":"lightblue","left_mu":60,"right_mu":40,"left_numbers":[67,63,60,48,59,51,65,61,71,53],"right_numbers":[43,50,40,55,24,25,34,63,35,27],"points_earned":409,"phase":"task","trial_type":"horizons-task","trial_index":23,"time_elapsed":390014,"internal_node_id":"0.0-14.0","task_version":"0.2"},{"response_times":[636.0899999854155,603.6800000001676,983.1600000034086,746.1499999917578,1599.4749999954365,1038.4799999883398,712.6299999945331,1066.9300000008661,840.3749999997672,913.1250000209548],"keys_pressed":["rightarrow","leftarrow","leftarrow","leftarrow","leftarrow","leftarrow","leftarrow","leftarrow","leftarrow","leftarrow"],"horizon":10,"forced_choices":["rightarrow","leftarrow","leftarrow","leftarrow"],"right_color":"orange","left_color":"lightblue","left_mu":40,"right_mu":32,"left_numbers":[39,39,25,38,37,47,33,28,43,31],"right_numbers":[43,37,43,33,42,41,40,26,34,48],"points_earned":364,"phase":"task","trial_type":"horizons-task","trial_index":24,"time_elapsed":400659,"internal_node_id":"0.0-15.0","task_version":"0.2"},{"response_times":[608.6650000070222,980.8949999860488,543.9450000121724,634.1650000249501,1913.1099999940488],"keys_pressed":["rightarrow","leftarrow","rightarrow","leftarrow","rightarrow"],"horizon":5,"forced_choices":["rightarrow","leftarrow","rightarrow","leftarrow"],"right_color":"lightblue","left_color":"orange","left_mu":60,"right_mu":64,"left_numbers":[59,53,69,69,67],"right_numbers":[79,72,68,70,89],"points_earned":358,"phase":"task","trial_type":"horizons-task","trial_index":25,"time_elapsed":406849,"internal_node_id":"0.0-16.0","task_version":"0.2"},{"response_times":[748.1149999948684,1128.7600000214297,439.4600000232458,1069.4749999966007,2253.3450000046287],"keys_pressed":["rightarrow","leftarrow","rightarrow","rightarrow","rightarrow"],"horizon":5,"forced_choices":["rightarrow","leftarrow","rightarrow","rightarrow"],"right_color":"orange","left_color":"lightblue","left_mu":60,"right_mu":40,"left_numbers":[55,70,59,58,55],"right_numbers":[49,43,21,28,51],"points_earned":219,"phase":"task","trial_type":"horizons-task","trial_index":26,"time_elapsed":413995,"internal_node_id":"0.0-17.0","task_version":"0.2"},{"response_times":[818.9349999884143,716.4049999846611,546.875,620.8649999753106,1014.0550000069197,25.82000000984408,629.5399999944493,893.9799999934621,1477.1400000026915,454.96500001172535],"keys_pressed":["leftarrow","leftarrow","rightarrow","leftarrow","leftarrow","rightarrow","rightarrow","rightarrow","rightarrow","rightarrow"],"horizon":10,"forced_choices":["leftarrow","leftarrow","rightarrow","leftarrow"],"right_color":"lightblue","left_color":"orange","left_mu":40,"right_mu":48,"left_numbers":[34,47,25,48,46,29,40,22,35,33],"right_numbers":[60,51,46,53,52,36,51,37,37,47],"points_earned":429,"phase":"task","trial_type":"horizons-task","trial_index":27,"time_elapsed":422703,"internal_node_id":"0.0-18.0","task_version":"0.2"},{"response_times":[720.274999999674,528.3350000099745,596.480000007432,1343.4849999903236,1146.3450000155717],"keys_pressed":["leftarrow","rightarrow","rightarrow","leftarrow","rightarrow"],"horizon":5,"forced_choices":["leftarrow","rightarrow","rightarrow","leftarrow"],"right_color":"orange","left_color":"lightblue","left_mu":60,"right_mu":90,"left_numbers":[66,61,51,55,66],"right_numbers":[81,98,86,91,103],"points_earned":408,"phase":"task","trial_type":"horizons-task","trial_index":28,"time_elapsed":428543,"internal_node_id":"0.0-19.0","task_version":"0.2"},{"response_times":[835.2799999993294,455.11000000988133,403.0849999981001,615.7400000083726,2518.534999981057,781.6649999876972,925.6749999767635,564.9700000067241,1011.1400000168942,486.0599999956321],"keys_pressed":["rightarrow","leftarrow","rightarrow","rightarrow","leftarrow","leftarrow","leftarrow","leftarrow","leftarrow","leftarrow"],"horizon":10,"forced_choices":["rightarrow","leftarrow","rightarrow","rightarrow"],"right_color":"orange","left_color":"lightblue","left_mu":60,"right_mu":30,"left_numbers":[49,54,53,52,60,58,57,56,63,44],"right_numbers":[29,23,38,19,33,21,23,24,41,26],"points_earned":478,"phase":"task","trial_type":"horizons-task","trial_index":29,"time_elapsed":438646,"internal_node_id":"0.0-20.0","task_version":"0.2"},{"response_times":[732.4899999948684,515.0249999715015,533.4649999858811,987.4399999971502,1668.5899999865796],"keys_pressed":["rightarrow","rightarrow","leftarrow","leftarrow","leftarrow"],"horizon":5,"forced_choices":["rightarrow","rightarrow","leftarrow","leftarrow"],"right_color":"orange","left_color":"lightblue","left_mu":60,"right_mu":40,"left_numbers":[50,58,52,60,58],"right_numbers":[42,37,46,35,40],"points_earned":249,"phase":"task","trial_type":"horizons-task","trial_index":30,"time_elapsed":444592,"internal_node_id":"0.0-21.0","task_version":"0.2"},{"response_times":[666.624999983469,514.4950000103563,454.51999999932013,466.37499998905696,1606.4449999830686,863.4599999932107,1016.4199999999255,607.5650000129826,1042.3100000189152,525.7149999961257],"keys_pressed":["leftarrow","leftarrow","leftarrow","rightarrow","leftarrow","leftarrow","leftarrow","leftarrow","leftarrow","leftarrow"],"horizon":10,"forced_choices":["leftarrow","leftarrow","leftarrow","rightarrow"],"right_color":"orange","left_color":"lightblue","left_mu":40,"right_mu":10,"left_numbers":[40,51,28,49,37,38,43,39,46,41],"right_numbers":[12,14,2,11,10,15,0,10,9,37],"points_earned":374,"phase":"task","trial_type":"horizons-task","trial_index":31,"time_elapsed":453866,"internal_node_id":"0.0-22.0","task_version":"0.2"},{"response_times":[541.464999987511,754.56000000122,709.9699999962468,562.804999994114,1383.0249999882653,875.8049999887589,629.88000002224,503.0200000037439,1189.909999986412,635.8450000116136],"keys_pressed":["leftarrow","leftarrow","rightarrow","rightarrow","rightarrow","rightarrow","rightarrow","rightarrow","rightarrow","rightarrow"],"horizon":10,"forced_choices":["leftarrow","leftarrow","rightarrow","rightarrow"],"right_color":"orange","left_color":"lightblue","left_mu":60,"right_mu":80,"left_numbers":[58,58,56,49,60,59,53,62,60,61],"right_numbers":[87,89,89,71,84,64,86,74,86,73],"points_earned":743,"phase":"task","trial_type":"horizons-task","trial_index":32,"time_elapsed":463162,"internal_node_id":"0.0-23.0","task_version":"0.2"},{"response_times":[735.3450000227895,734.4600000069477,667.2400000097696,637.3200000089128,424.3000000133179,1696.5700000000652,392.04499998595566,518.1649999867659,1066.1050000053365,547.8800000273623],"keys_pressed":["rightarrow","rightarrow","leftarrow","leftarrow","rightarrow","rightarrow","rightarrow","rightarrow","rightarrow","rightarrow"],"horizon":10,"forced_choices":["rightarrow","rightarrow","leftarrow","leftarrow"],"right_color":"lightblue","left_color":"orange","left_mu":40,"right_mu":44,"left_numbers":[37,35,46,37,45,47,33,34,15,33],"right_numbers":[41,52,35,47,44,32,51,44,52,49],"points_earned":448,"phase":"task","trial_type":"horizons-task","trial_index":33,"time_elapsed":472090,"internal_node_id":"0.0-24.0","task_version":"0.2"},{"response_times":[446.6250000114087,514.1249999869615,872.5700000068173,509.8149999976158,775.2700000128243,689.5750000257976,228.36500001722015,199.85499998438172,984.7199999785516,179.94000000180677],"keys_pressed":["rightarrow","leftarrow","leftarrow","rightarrow","rightarrow","rightarrow","rightarrow","rightarrow","rightarrow","rightarrow"],"horizon":10,"forced_choices":["rightarrow","leftarrow","leftarrow","rightarrow"],"right_color":"lightblue","left_color":"orange","left_mu":60,"right_mu":72,"left_numbers":[61,56,60,76,75,61,67,56,61,41],"right_numbers":[70,65,84,61,77,60,62,57,60,86],"points_earned":649,"phase":"task","trial_type":"horizons-task","trial_index":34,"time_elapsed":478995,"internal_node_id":"0.0-25.0","task_version":"0.2"},{"response_times":[848.4250000037719,610.5200000165496,624.5850000123028,473.27499999664724,2176.5899999882095,541.2350000115111,382.6950000075158,981.789999990724,398.5650000104215,539.1999999992549],"keys_pressed":["rightarrow","leftarrow","leftarrow","rightarrow","leftarrow","leftarrow","leftarrow","leftarrow","leftarrow","leftarrow"],"horizon":10,"forced_choices":["rightarrow","leftarrow","leftarrow","rightarrow"],"right_color":"orange","left_color":"lightblue","left_mu":60,"right_mu":30,"left_numbers":[60,61,63,71,65,46,63,64,56,62],"right_numbers":[32,27,28,28,35,15,21,14,24,37],"points_earned":540,"phase":"task","trial_type":"horizons-task","trial_index":35,"time_elapsed":488079,"internal_node_id":"0.0-26.0","task_version":"0.2"},{"response_times":[767.5300000119023,365.19500002032146,512.524999998277,534.9249999853782,1423.6049999890383],"keys_pressed":["leftarrow","rightarrow","rightarrow","rightarrow","rightarrow"],"horizon":5,"forced_choices":["leftarrow","rightarrow","rightarrow","rightarrow"],"right_color":"lightblue","left_color":"orange","left_mu":60,"right_mu":64,"left_numbers":[35,53,59,56,57],"right_numbers":[62,58,72,74,60],"points_earned":299,"phase":"task","trial_type":"horizons-task","trial_index":36,"time_elapsed":493192,"internal_node_id":"0.0-27.0","task_version":"0.2"},{"response_times":[759.2550000117626,655.4150000156369,775.3200000151992,517.2250000177883,713.1750000116881],"keys_pressed":["rightarrow","leftarrow","leftarrow","leftarrow","rightarrow"],"horizon":5,"forced_choices":["rightarrow","leftarrow","leftarrow","leftarrow"],"right_color":"orange","left_color":"lightblue","left_mu":40,"right_mu":32,"left_numbers":[39,43,37,36,49],"right_numbers":[30,46,34,35,31],"points_earned":177,"phase":"task","trial_type":"horizons-task","trial_index":37,"time_elapsed":498116,"internal_node_id":"0.0-28.0","task_version":"0.2"},{"response_times":[850.0749999948312,1093.829999997979,554.2249999998603,619.3250000069384,1314.9449999909848],"keys_pressed":["leftarrow","rightarrow","rightarrow","rightarrow","rightarrow"],"horizon":5,"forced_choices":["leftarrow","rightarrow","rightarrow","rightarrow"],"right_color":"lightblue","left_color":"orange","left_mu":40,"right_mu":44,"left_numbers":[33,43,39,39,26],"right_numbers":[33,37,28,41,47],"points_earned":186,"phase":"task","trial_type":"horizons-task","trial_index":38,"time_elapsed":504053,"internal_node_id":"0.0-29.0","task_version":"0.2"},{"response_times":[7980.985000001965,1200.185000023339,679.1050000174437,2254.639999999199,2049.060000019381],"keys_pressed":["leftarrow","rightarrow","leftarrow","rightarrow","rightarrow"],"horizon":5,"forced_choices":["leftarrow","rightarrow","leftarrow","rightarrow"],"right_color":"lightblue","left_color":"orange","left_mu":60,"right_mu":56,"left_numbers":[70,66,52,60,68],"right_numbers":[78,43,53,59,54],"points_earned":278,"phase":"task","trial_type":"horizons-task","trial_index":39,"time_elapsed":519723,"internal_node_id":"0.0-30.0","task_version":"0.2"},{"response_times":[655.35000001546,1084.484999999404,1719.9100000143517,1141.364999988582,449.58000001497567],"keys_pressed":["rightarrow","rightarrow","leftarrow","leftarrow","leftarrow"],"horizon":5,"forced_choices":["rightarrow","rightarrow","leftarrow","leftarrow"],"right_color":"lightblue","left_color":"orange","left_mu":40,"right_mu":44,"left_numbers":[32,42,36,36,37],"right_numbers":[29,47,46,55,46],"points_earned":185,"phase":"task","trial_type":"horizons-task","trial_index":40,"time_elapsed":526283,"internal_node_id":"0.0-31.0","task_version":"0.2"},{"response_times":[1067.364999995334,607.3249999899417,506.9849999854341,471.9500000064727,637.5650000118185],"keys_pressed":["rightarrow","rightarrow","leftarrow","rightarrow","rightarrow"],"horizon":5,"forced_choices":["rightarrow","rightarrow","leftarrow","rightarrow"],"right_color":"orange","left_color":"lightblue","left_mu":40,"right_mu":60,"left_numbers":[38,46,41,16,25],"right_numbers":[58,82,63,64,56],"points_earned":301,"phase":"task","trial_type":"horizons-task","trial_index":41,"time_elapsed":531082,"internal_node_id":"0.0-32.0","task_version":"0.2"},{"response_times":[576.8500000122003,599.4050000153948,539.9099999922328,495.78999998630024,648.5450000036508,609.309999999823,974.3249999883119,918.2700000237674,482.82500001369044,662.4849999789149],"keys_pressed":["rightarrow","leftarrow","leftarrow","leftarrow","rightarrow","rightarrow","rightarrow","leftarrow","leftarrow","leftarrow"],"horizon":10,"forced_choices":["rightarrow","leftarrow","leftarrow","leftarrow"],"right_color":"lightblue","left_color":"orange","left_mu":40,"right_mu":28,"left_numbers":[37,41,39,62,33,44,36,46,25,38],"right_numbers":[29,38,27,31,29,33,23,35,34,21],"points_earned":365,"phase":"task","trial_type":"horizons-task","trial_index":42,"time_elapsed":539095,"internal_node_id":"0.0-33.0","task_version":"0.2"},{"response_times":[1035.5649999983143,603.4400000062305,526.7199999943841,588.129999989178,828.9749999821652],"keys_pressed":["leftarrow","rightarrow","rightarrow","rightarrow","leftarrow"],"horizon":5,"forced_choices":["leftarrow","rightarrow","rightarrow","rightarrow"],"right_color":"orange","left_color":"lightblue","left_mu":60,"right_mu":80,"left_numbers":[47,39,60,53,58],"right_numbers":[80,76,72,80,76],"points_earned":333,"phase":"task","trial_type":"horizons-task","trial_index":43,"time_elapsed":544185,"internal_node_id":"0.0-34.0","task_version":"0.2"},{"response_times":[5895.095000014408,927.994999976363,516.990000003716,437.62499999138527,700.3499999991618,451.86000000103377,580.7050000003073,540.5049999826588,448.9350000221748,472.635000012815],"keys_pressed":["leftarrow","leftarrow","rightarrow","leftarrow","rightarrow","rightarrow","rightarrow","rightarrow","rightarrow","rightarrow"],"horizon":10,"forced_choices":["leftarrow","leftarrow","rightarrow","leftarrow"],"right_color":"orange","left_color":"lightblue","left_mu":60,"right_mu":90,"left_numbers":[60,54,65,62,63,59,47,58,70,61],"right_numbers":[91,104,84,112,93,110,94,83,83,85],"points_earned":808,"phase":"task","trial_type":"horizons-task","trial_index":44,"time_elapsed":556662,"internal_node_id":"0.0-35.0","task_version":"0.2"},{"response_times":[1716.1600000108592,935.4100000055041,979.3050000153016,931.2100000097416,649.619999981951,365.1850000023842,140.65000001573935,114.6500000031665,646.6699999873526,370.3150000073947],"keys_pressed":["rightarrow","leftarrow","rightarrow","leftarrow","leftarrow","leftarrow","leftarrow","leftarrow","leftarrow","rightarrow"],"horizon":10,"forced_choices":["rightarrow","leftarrow","rightarrow","leftarrow"],"right_color":"lightblue","left_color":"orange","left_mu":60,"right_mu":64,"left_numbers":[68,61,58,66,59,54,56,62,68,61],"right_numbers":[45,55,55,39,73,51,68,65,73,63],"points_earned":589,"phase":"task","trial_type":"horizons-task","trial_index":45,"time_elapsed":565015,"internal_node_id":"0.0-36.0","task_version":"0.2"},{"response_times":[11515.025000000605,539.325000019744,892.874999990454,1013.6300000012852,709.709999995539],"keys_pressed":["rightarrow","leftarrow","leftarrow","rightarrow","leftarrow"],"horizon":5,"forced_choices":["rightarrow","leftarrow","leftarrow","rightarrow"],"right_color":"lightblue","left_color":"orange","left_mu":40,"right_mu":36,"left_numbers":[36,31,50,41,23],"right_numbers":[42,44,31,40,29],"points_earned":186,"phase":"task","trial_type":"horizons-task","trial_index":46,"time_elapsed":581192,"internal_node_id":"0.0-37.0","task_version":"0.2"},{"response_times":[14340.750000003027,957.605000003241,576.1150000034831,429.1899999952875,542.5049999903422],"keys_pressed":["leftarrow","rightarrow","leftarrow","rightarrow","leftarrow"],"horizon":5,"forced_choices":["leftarrow","rightarrow","leftarrow","rightarrow"],"right_color":"orange","left_color":"lightblue","left_mu":40,"right_mu":32,"left_numbers":[34,47,39,35,51],"right_numbers":[28,16,32,35,28],"points_earned":175,"phase":"task","trial_type":"horizons-task","trial_index":47,"time_elapsed":599543,"internal_node_id":"0.0-38.0","task_version":"0.2"},{"response_times":[13946.690000011586,1216.5249999961816,912.3650000256021,455.645000009099,778.6149999883492],"keys_pressed":["leftarrow","rightarrow","leftarrow","leftarrow","rightarrow"],"horizon":5,"forced_choices":["leftarrow","rightarrow","leftarrow","leftarrow"],"right_color":"lightblue","left_color":"orange","left_mu":60,"right_mu":72,"left_numbers":[64,57,55,66,59],"right_numbers":[65,78,63,84,62],"points_earned":325,"phase":"task","trial_type":"horizons-task","trial_index":48,"time_elapsed":618361,"internal_node_id":"0.0-39.0","task_version":"0.2"},{"response_times":[2060.765000001993,666.1949999979697,503.06000001728535,940.8699999912642,874.6199999877717,548.5650000046007,459.5299999928102,485.31000001821667,1092.7800000063144,568.6700000078417],"keys_pressed":["rightarrow","rightarrow","rightarrow","leftarrow","leftarrow","leftarrow","leftarrow","leftarrow","rightarrow","leftarrow"],"horizon":10,"forced_choices":["rightarrow","rightarrow","rightarrow","leftarrow"],"right_color":"lightblue","left_color":"orange","left_mu":40,"right_mu":52,"left_numbers":[55,29,46,32,48,50,50,40,34,23],"right_numbers":[55,64,53,49,66,55,58,47,61,45],"points_earned":476,"phase":"task","trial_type":"horizons-task","trial_index":49,"time_elapsed":628071,"internal_node_id":"0.0-40.0","task_version":"0.2"},{"response_times":[11108.15499999444,400.8200000098441,435.4049999965355,433.54500000714324,355.0450000038836,641.0850000102073,1002.8549999988172,747.1699999878183,838.7349999975413,793.310000008205],"keys_pressed":["leftarrow","rightarrow","leftarrow","rightarrow","leftarrow","leftarrow","leftarrow","leftarrow","rightarrow","rightarrow"],"horizon":10,"forced_choices":["leftarrow","rightarrow","leftarrow","rightarrow"],"right_color":"orange","left_color":"lightblue","left_mu":40,"right_mu":32,"left_numbers":[34,44,37,39,33,29,50,32,35,39],"right_numbers":[30,38,45,20,34,30,21,28,29,35],"points_earned":337,"phase":"task","trial_type":"horizons-task","trial_index":50,"time_elapsed":646332,"internal_node_id":"0.0-41.0","task_version":"0.2"},{"response_times":[16412.50000000582,615.494999976363,1875.369999994291,822.1149999881163,926.9649999914691],"keys_pressed":["leftarrow","leftarrow","rightarrow","leftarrow","leftarrow"],"horizon":5,"forced_choices":["leftarrow","leftarrow","rightarrow","leftarrow"],"right_color":"lightblue","left_color":"orange","left_mu":60,"right_mu":56,"left_numbers":[61,67,54,69,55],"right_numbers":[58,46,72,66,47],"points_earned":324,"phase":"task","trial_type":"horizons-task","trial_index":51,"time_elapsed":668491,"internal_node_id":"0.0-42.0","task_version":"0.2"},{"response_times":[2003.0649999971502,1363.5550000180956,540.949999995064,1098.005000007106,1010.0099999981467],"keys_pressed":["leftarrow","rightarrow","leftarrow","rightarrow","rightarrow"],"horizon":5,"forced_choices":["leftarrow","rightarrow","leftarrow","rightarrow"],"right_color":"lightblue","left_color":"orange","left_mu":40,"right_mu":52,"left_numbers":[31,25,34,44,36],"right_numbers":[44,49,35,56,53],"points_earned":223,"phase":"task","trial_type":"horizons-task","trial_index":52,"time_elapsed":676014,"internal_node_id":"0.0-43.0","task_version":"0.2"},{"response_times":[5776.010000001406,625.739999988582,1102.5749999971595,537.0549999934155,593.5199999948964],"keys_pressed":["leftarrow","leftarrow","rightarrow","rightarrow","leftarrow"],"horizon":5,"forced_choices":["leftarrow","leftarrow","rightarrow","rightarrow"],"right_color":"lightblue","left_color":"orange","left_mu":40,"right_mu":48,"left_numbers":[51,31,38,34,59],"right_numbers":[38,47,52,64,40],"points_earned":257,"phase":"task","trial_type":"horizons-task","trial_index":53,"time_elapsed":686154,"internal_node_id":"0.0-44.0","task_version":"0.2"},{"response_times":[1266.3100000063423,444.65499999932945,484.5299999869894,469.9200000031851,658.579999988433,401.3849999755621,416.08999998425134,523.1900000071619,387.7050000010058,560.2200000139419],"keys_pressed":["rightarrow","leftarrow","leftarrow","rightarrow","rightarrow","rightarrow","rightarrow","leftarrow","leftarrow","leftarrow"],"horizon":10,"forced_choices":["rightarrow","leftarrow","leftarrow","rightarrow"],"right_color":"orange","left_color":"lightblue","left_mu":40,"right_mu":20,"left_numbers":[47,41,46,38,48,38,46,30,34,47],"right_numbers":[11,29,28,15,30,22,23,15,14,19],"points_earned":299,"phase":"task","trial_type":"horizons-task","trial_index":54,"time_elapsed":693273,"internal_node_id":"0.0-45.0","task_version":"0.2"},{"response_times":[601.6749999835156,447.63999999850057,512.2600000177044,333.27999999164604,1373.2550000131596,650.4100000020117,478.9549999986775,578.3649999939371,586.0249999968801,822.1100000082515],"keys_pressed":["leftarrow","rightarrow","rightarrow","rightarrow","rightarrow","rightarrow","rightarrow","rightarrow","leftarrow","leftarrow"],"horizon":10,"forced_choices":["leftarrow","rightarrow","rightarrow","rightarrow"],"right_color":"lightblue","left_color":"orange","left_mu":40,"right_mu":44,"left_numbers":[27,31,30,39,34,38,48,43,30,61],"right_numbers":[50,28,33,46,43,39,47,33,53,44],"points_earned":387,"phase":"task","trial_type":"horizons-task","trial_index":55,"time_elapsed":701165,"internal_node_id":"0.0-46.0","task_version":"0.2"},{"view_history":"[{\"page_index\":0,\"viewing_time\":123005.65499998629},{\"page_index\":1,\"viewing_time\":421928.5249999957}]","rt":544935.3750000009,"trial_type":"instructions","trial_index":56,"time_elapsed":1246103,"internal_node_id":"0.0-47.0","task_version":"0.2"},{"response_times":[9974.140000005718,491.8150000157766,1805.0950000179,616.7800000112038,2440.9300000115763,619.009999994887,866.7649999842979,624.7600000060629,1602.6849999907427,452.52500000060536],"keys_pressed":["rightarrow","rightarrow","leftarrow","leftarrow","leftarrow","leftarrow","leftarrow","leftarrow","leftarrow","leftarrow"],"horizon":10,"forced_choices":["rightarrow","rightarrow","leftarrow","leftarrow"],"right_color":"orange","left_color":"lightblue","left_mu":60,"right_mu":48,"left_numbers":[63,68,48,52,60,48,53,55,88,59],"right_numbers":[49,37,52,46,51,47,47,45,48,42],"points_earned":549,"phase":"task","trial_type":"horizons-task","trial_index":57,"time_elapsed":1267115,"internal_node_id":"0.0-48.0","task_version":"0.2"},{"response_times":[962.5899999809917,1077.0449999836273,589.0300000028219,1507.7049999963492,2061.3849999790546],"keys_pressed":["leftarrow","rightarrow","rightarrow","leftarrow","leftarrow"],"horizon":5,"forced_choices":["leftarrow","rightarrow","rightarrow","leftarrow"],"right_color":"lightblue","left_color":"orange","left_mu":40,"right_mu":28,"left_numbers":[31,44,40,44,34],"right_numbers":[22,26,20,33,16],"points_earned":155,"phase":"task","trial_type":"horizons-task","trial_index":58,"time_elapsed":1274819,"internal_node_id":"0.0-49.0","task_version":"0.2"},{"response_times":[794.9149999767542,1018.2400000048801,607.3399999877438,1608.280000014929,1265.0049999938346],"keys_pressed":["leftarrow","leftarrow","leftarrow","rightarrow","leftarrow"],"horizon":5,"forced_choices":["leftarrow","leftarrow","leftarrow","rightarrow"],"right_color":"orange","left_color":"lightblue","left_mu":40,"right_mu":10,"left_numbers":[26,39,47,29,46],"right_numbers":[2,6,0,11,15],"points_earned":169,"phase":"task","trial_type":"horizons-task","trial_index":59,"time_elapsed":1281617,"internal_node_id":"0.0-50.0","task_version":"0.2"},{"response_times":[975.5750000185799,766.9799999857787,630.0300000002608,1071.5150000178255,668.5999999754131],"keys_pressed":["rightarrow","leftarrow","leftarrow","rightarrow","rightarrow"],"horizon":5,"forced_choices":["rightarrow","leftarrow","leftarrow","rightarrow"],"right_color":"lightblue","left_color":"orange","left_mu":60,"right_mu":72,"left_numbers":[55,57,56,45,56],"right_numbers":[80,68,61,87,91],"points_earned":371,"phase":"task","trial_type":"horizons-task","trial_index":60,"time_elapsed":1287236,"internal_node_id":"0.0-51.0","task_version":"0.2"},{"response_times":[1638.1050000200048,766.700000007404,584.7749999957159,685.4049999965355,2402.155000017956],"keys_pressed":["rightarrow","leftarrow","rightarrow","rightarrow","rightarrow"],"horizon":5,"forced_choices":["rightarrow","leftarrow","rightarrow","rightarrow"],"right_color":"orange","left_color":"lightblue","left_mu":60,"right_mu":30,"left_numbers":[56,72,67,60,64],"right_numbers":[35,26,37,41,25],"points_earned":210,"phase":"task","trial_type":"horizons-task","trial_index":61,"time_elapsed":1294822,"internal_node_id":"0.0-52.0","task_version":"0.2"},{"response_times":[786.3150000048336,1126.075000007404,471.49500000523403,1464.395000017248,1673.5800000024028],"keys_pressed":["leftarrow","rightarrow","leftarrow","rightarrow","rightarrow"],"horizon":5,"forced_choices":["leftarrow","rightarrow","leftarrow","rightarrow"],"right_color":"orange","left_color":"lightblue","left_mu":60,"right_mu":68,"left_numbers":[60,47,53,64,49],"right_numbers":[63,77,79,67,81],"points_earned":338,"phase":"task","trial_type":"horizons-task","trial_index":62,"time_elapsed":1301852,"internal_node_id":"0.0-53.0","task_version":"0.2"},{"response_times":[2639.420000021346,1020.7550000050105,609.2149999749381,1048.6349999846425,4582.7250000147615,835.2599999925587,646.2050000263844,880.9550000005402,908.4950000105891,623.9099999947939],"keys_pressed":["leftarrow","rightarrow","rightarrow","leftarrow","rightarrow","rightarrow","rightarrow","rightarrow","rightarrow","rightarrow"],"horizon":10,"forced_choices":["leftarrow","rightarrow","rightarrow","leftarrow"],"right_color":"lightblue","left_color":"orange","left_mu":60,"right_mu":52,"left_numbers":[47,70,69,67,57,64,44,71,71,68],"right_numbers":[49,67,50,54,60,52,65,50,55,58],"points_earned":571,"phase":"task","trial_type":"horizons-task","trial_index":63,"time_elapsed":1317157,"internal_node_id":"0.0-54.0","task_version":"0.2"},{"response_times":[1411.3999999826774,1151.2199999997392,469.3299999926239,611.1200000159442,3001.9200000097044,624.4299999962095,926.3900000078138,717.1199999866076,944.6199999947567,851.7350000038277],"keys_pressed":["leftarrow","rightarrow","leftarrow","leftarrow","rightarrow","rightarrow","rightarrow","leftarrow","leftarrow","leftarrow"],"horizon":10,"forced_choices":["leftarrow","rightarrow","leftarrow","leftarrow"],"right_color":"lightblue","left_color":"orange","left_mu":40,"right_mu":36,"left_numbers":[30,42,24,29,39,27,35,16,30,35],"right_numbers":[15,34,16,38,42,22,12,38,46,34],"points_earned":274,"phase":"task","trial_type":"horizons-task","trial_index":64,"time_elapsed":1329372,"internal_node_id":"0.0-55.0","task_version":"0.2"},{"response_times":[625.7750000222586,475.13000000617467,515.4250000196043,1201.230000006035,2395.2700000081677],"keys_pressed":["leftarrow","leftarrow","rightarrow","leftarrow","leftarrow"],"horizon":5,"forced_choices":["leftarrow","leftarrow","rightarrow","leftarrow"],"right_color":"orange","left_color":"lightblue","left_mu":60,"right_mu":90,"left_numbers":[47,52,64,52,53],"right_numbers":[99,89,77,109,85],"points_earned":281,"phase":"task","trial_type":"horizons-task","trial_index":65,"time_elapsed":1336095,"internal_node_id":"0.0-56.0","task_version":"0.2"},{"response_times":[773.2400000095367,682.2950000059791,607.1850000007544,553.0199999921024,2757.12999998359],"keys_pressed":["rightarrow","leftarrow","leftarrow","leftarrow","leftarrow"],"horizon":5,"forced_choices":["rightarrow","leftarrow","leftarrow","leftarrow"],"right_color":"lightblue","left_color":"orange","left_mu":40,"right_mu":70,"left_numbers":[33,38,46,53,35],"right_numbers":[51,67,70,76,62],"points_earned":223,"phase":"task","trial_type":"horizons-task","trial_index":66,"time_elapsed":1342975,"internal_node_id":"0.0-57.0","task_version":"0.2"},{"response_times":[570.5450000241399,609.1149999992922,912.1999999915715,2318.230000004405,1502.8099999763072],"keys_pressed":["rightarrow","rightarrow","leftarrow","rightarrow","rightarrow"],"horizon":5,"forced_choices":["rightarrow","rightarrow","leftarrow","rightarrow"],"right_color":"lightblue","left_color":"orange","left_mu":60,"right_mu":52,"left_numbers":[82,74,55,61,78],"right_numbers":[58,69,37,44,57],"points_earned":283,"phase":"task","trial_type":"horizons-task","trial_index":67,"time_elapsed":1350392,"internal_node_id":"0.0-58.0","task_version":"0.2"},{"response_times":[589.1699999920093,411.8200000084471,453.4750000166241,638.150000013411,2142.0649999927264,590.5800000182353,922.9000000050291,677.1099999896251,718.3350000123028,473.5299999883864],"keys_pressed":["leftarrow","leftarrow","rightarrow","rightarrow","rightarrow","rightarrow","leftarrow","leftarrow","rightarrow","rightarrow"],"horizon":10,"forced_choices":["leftarrow","leftarrow","rightarrow","rightarrow"],"right_color":"lightblue","left_color":"orange","left_mu":40,"right_mu":48,"left_numbers":[45,34,27,44,60,42,24,32,41,37],"right_numbers":[54,41,49,46,52,41,53,62,58,51],"points_earned":432,"phase":"task","trial_type":"horizons-task","trial_index":68,"time_elapsed":1359513,"internal_node_id":"0.0-59.0","task_version":"0.2"},{"response_times":[549.4799999869429,745.664999994915,496.0500000161119,797.7100000134669,1109.4299999822397,1060.2800000051502,629.3449999939185,428.01499998313375,583.3500000007916,566.9699999853037],"keys_pressed":["leftarrow","rightarrow","rightarrow","leftarrow","rightarrow","rightarrow","leftarrow","leftarrow","leftarrow","leftarrow"],"horizon":10,"forced_choices":["leftarrow","rightarrow","rightarrow","leftarrow"],"right_color":"lightblue","left_color":"orange","left_mu":40,"right_mu":28,"left_numbers":[34,35,32,36,34,34,35,49,47,34],"right_numbers":[32,27,50,33,23,18,15,18,33,29],"points_earned":353,"phase":"task","trial_type":"horizons-task","trial_index":69,"time_elapsed":1367984,"internal_node_id":"0.0-60.0","task_version":"0.2"},{"response_times":[1394.4250000058673,826.9900000013877,976.0349999996834,1391.2600000039674,2720.3199999930803],"keys_pressed":["rightarrow","leftarrow","leftarrow","rightarrow","leftarrow"],"horizon":5,"forced_choices":["rightarrow","leftarrow","leftarrow","rightarrow"],"right_color":"orange","left_color":"lightblue","left_mu":60,"right_mu":30,"left_numbers":[49,65,57,45,69],"right_numbers":[28,30,25,23,27],"points_earned":242,"phase":"task","trial_type":"horizons-task","trial_index":70,"time_elapsed":1376798,"internal_node_id":"0.0-61.0","task_version":"0.2"},{"response_times":[661.1599999887403,573.0349999794271,610.0299999816343,3745.9099999978207,1389.6250000107102],"keys_pressed":["rightarrow","rightarrow","rightarrow","leftarrow","rightarrow"],"horizon":5,"forced_choices":["rightarrow","rightarrow","rightarrow","leftarrow"],"right_color":"orange","left_color":"lightblue","left_mu":60,"right_mu":48,"left_numbers":[67,67,58,55,69],"right_numbers":[45,54,50,52,48],"points_earned":252,"phase":"task","trial_type":"horizons-task","trial_index":71,"time_elapsed":1385282,"internal_node_id":"0.0-62.0","task_version":"0.2"},{"response_times":[681.6249999974389,481.7449999973178,478.44499998609535,908.6750000133179,999.6549999923445],"keys_pressed":["rightarrow","leftarrow","rightarrow","leftarrow","rightarrow"],"horizon":5,"forced_choices":["rightarrow","leftarrow","rightarrow","leftarrow"],"right_color":"lightblue","left_color":"orange","left_mu":40,"right_mu":70,"left_numbers":[30,47,20,31,48],"right_numbers":[79,61,68,72,76],"points_earned":301,"phase":"task","trial_type":"horizons-task","trial_index":72,"time_elapsed":1390348,"internal_node_id":"0.0-63.0","task_version":"0.2"},{"response_times":[497.73000000277534,480.4600000206847,459.5850000041537,646.4599999890197,2673.4249999863096,744.4949999917299,1275.4750000021886,528.1749999849126,559.7000000125263,457.7049999788869],"keys_pressed":["rightarrow","leftarrow","rightarrow","leftarrow","rightarrow","rightarrow","rightarrow","rightarrow","rightarrow","rightarrow"],"horizon":10,"forced_choices":["rightarrow","leftarrow","rightarrow","leftarrow"],"right_color":"orange","left_color":"lightblue","left_mu":40,"right_mu":60,"left_numbers":[32,36,30,41,42,43,51,44,38,31],"right_numbers":[74,57,57,82,59,56,61,54,64,55],"points_earned":557,"phase":"task","trial_type":"horizons-task","trial_index":73,"time_elapsed":1400181,"internal_node_id":"0.0-64.0","task_version":"0.2"},{"response_times":[538.7849999824539,390.18500002566725,723.4049999970011,985.2449999889359,1182.0299999963026],"keys_pressed":["leftarrow","rightarrow","rightarrow","leftarrow","rightarrow"],"horizon":5,"forced_choices":["leftarrow","rightarrow","rightarrow","leftarrow"],"right_color":"lightblue","left_color":"orange","left_mu":60,"right_mu":52,"left_numbers":[55,64,57,56,62],"right_numbers":[46,58,55,52,58],"points_earned":282,"phase":"task","trial_type":"horizons-task","trial_index":74,"time_elapsed":1405505,"internal_node_id":"0.0-65.0","task_version":"0.2"},{"response_times":[659.8700000031386,1007.580000004964,398.87499998440035,508.02000000840053,1321.1799999990035,662.4899999878835,528.9650000049733,538.7750000227243,430.3049999871291,565.3699999966193],"keys_pressed":["leftarrow","rightarrow","rightarrow","rightarrow","rightarrow","rightarrow","rightarrow","rightarrow","rightarrow","rightarrow"],"horizon":10,"forced_choices":["leftarrow","rightarrow","rightarrow","rightarrow"],"right_color":"lightblue","left_color":"orange","left_mu":60,"right_mu":64,"left_numbers":[53,70,58,69,51,57,60,40,64,73],"right_numbers":[61,63,63,67,66,68,75,73,61,68],"points_earned":657,"phase":"task","trial_type":"horizons-task","trial_index":75,"time_elapsed":1413632,"internal_node_id":"0.0-66.0","task_version":"0.2"},{"response_times":[699.8600000224542,857.9249999893364,827.22500001546,1049.26999998861,1359.0949999925215],"keys_pressed":["rightarrow","rightarrow","leftarrow","rightarrow","rightarrow"],"horizon":5,"forced_choices":["rightarrow","rightarrow","leftarrow","rightarrow"],"right_color":"orange","left_color":"lightblue","left_mu":40,"right_mu":20,"left_numbers":[56,42,35,37,32],"right_numbers":[26,24,13,39,30],"points_earned":154,"phase":"task","trial_type":"horizons-task","trial_index":76,"time_elapsed":1419933,"internal_node_id":"0.0-67.0","task_version":"0.2"},{"response_times":[597.4400000122841,362.8399999870453,490.54999998770654,597.4200000055134,1788.4250000061002,610.0049999949988,576.5250000113156,416.70000000158325,521.1950000084471,570.5599999928381],"keys_pressed":["rightarrow","leftarrow","rightarrow","leftarrow","rightarrow","rightarrow","rightarrow","rightarrow","rightarrow","rightarrow"],"horizon":10,"forced_choices":["rightarrow","leftarrow","rightarrow","leftarrow"],"right_color":"lightblue","left_color":"orange","left_mu":40,"right_mu":70,"left_numbers":[38,53,29,33,38,50,48,32,22,43],"right_numbers":[63,76,72,86,58,70,74,80,69,72],"points_earned":644,"phase":"task","trial_type":"horizons-task","trial_index":77,"time_elapsed":1427971,"internal_node_id":"0.0-68.0","task_version":"0.2"},{"response_times":[638.745000003837,445.0199999846518,716.3799999980256,625.0850000069477,1728.8249999983236,546.3749999762513,625.2500000118744,637.1449999860488,518.4449999942444,471.1349999997765],"keys_pressed":["leftarrow","rightarrow","leftarrow","rightarrow","rightarrow","rightarrow","rightarrow","rightarrow","rightarrow","rightarrow"],"horizon":10,"forced_choices":["leftarrow","rightarrow","leftarrow","rightarrow"],"right_color":"orange","left_color":"lightblue","left_mu":60,"right_mu":68,"left_numbers":[56,63,52,71,63,61,65,60,65,62],"right_numbers":[80,75,68,65,61,73,65,63,66,62],"points_earned":638,"phase":"task","trial_type":"horizons-task","trial_index":78,"time_elapsed":1436428,"internal_node_id":"0.0-69.0","task_version":"0.2"},{"response_times":[823.4900000097696,706.0549999878276,560.7000000018161,766.7849999852479,3068.139999988489,534.6699999936391,621.3500000012573,860.1299999863841,1306.2100000097416,498.84499999461696],"keys_pressed":["leftarrow","leftarrow","leftarrow","rightarrow","leftarrow","leftarrow","leftarrow","leftarrow","leftarrow","leftarrow"],"horizon":10,"forced_choices":["leftarrow","leftarrow","leftarrow","rightarrow"],"right_color":"orange","left_color":"lightblue","left_mu":60,"right_mu":68,"left_numbers":[63,44,52,72,66,58,57,48,58,60],"right_numbers":[68,61,68,57,60,58,75,66,71,59],"points_earned":563,"phase":"task","trial_type":"horizons-task","trial_index":79,"time_elapsed":1447681,"internal_node_id":"0.0-70.0","task_version":"0.2"},{"response_times":[514.8550000158139,398.8800000224728,703.5150000010617,501.91500000073574,1023.0300000112038,631.9300000031944,824.5049999968614,475.2349999907892,586.0199999879114,562.130000005709],"keys_pressed":["leftarrow","rightarrow","rightarrow","rightarrow","rightarrow","rightarrow","rightarrow","rightarrow","rightarrow","rightarrow"],"horizon":10,"forced_choices":["leftarrow","rightarrow","rightarrow","rightarrow"],"right_color":"orange","left_color":"lightblue","left_mu":60,"right_mu":80,"left_numbers":[73,57,47,55,46,63,63,49,67,72],"right_numbers":[84,78,80,84,96,54,81,80,71,95],"points_earned":792,"phase":"task","trial_type":"horizons-task","trial_index":80,"time_elapsed":1455413,"internal_node_id":"0.0-71.0","task_version":"0.2"},{"response_times":[972.8750000067521,492.9600000032224,455.87499998509884,485.71999999694526,1306.6149999795016,495.12499998672865,1032.4749999854248,568.6050000076648,727.0199999911711,612.3699999880046],"keys_pressed":["rightarrow","rightarrow","leftarrow","leftarrow","leftarrow","leftarrow","leftarrow","leftarrow","leftarrow","leftarrow"],"horizon":10,"forced_choices":["rightarrow","rightarrow","leftarrow","leftarrow"],"right_color":"orange","left_color":"lightblue","left_mu":60,"right_mu":40,"left_numbers":[74,57,62,61,60,69,60,64,55,62],"right_numbers":[26,46,40,34,37,38,29,50,42,34],"points_earned":565,"phase":"task","trial_type":"horizons-task","trial_index":81,"time_elapsed":1464078,"internal_node_id":"0.0-72.0","task_version":"0.2"},{"response_times":[1337.8049999882933,642.4699999915902,617.2950000036508,931.3399999809917,1846.879999997327,594.9350000009872,586.2550000019837,592.3000000184402,488.4950000268873,312.9450000124052],"keys_pressed":["rightarrow","leftarrow","leftarrow","leftarrow","rightarrow","rightarrow","rightarrow","rightarrow","rightarrow","rightarrow"],"horizon":10,"forced_choices":["rightarrow","leftarrow","leftarrow","leftarrow"],"right_color":"lightblue","left_color":"orange","left_mu":40,"right_mu":70,"left_numbers":[41,58,26,26,35,49,45,46,34,18],"right_numbers":[70,82,62,80,63,72,80,70,78,79],"points_earned":622,"phase":"task","trial_type":"horizons-task","trial_index":82,"time_elapsed":1473534,"internal_node_id":"0.0-73.0","task_version":"0.2"},{"response_times":[435.1549999846611,695.4749999858905,640.5199999862816,829.7050000110175,2470.045000023674,533.0850000027567,513.5799999989104,809.9300000176299,479.8900000168942,482.5100000016391],"keys_pressed":["rightarrow","rightarrow","rightarrow","leftarrow","rightarrow","rightarrow","rightarrow","rightarrow","rightarrow","rightarrow"],"horizon":10,"forced_choices":["rightarrow","rightarrow","rightarrow","leftarrow"],"right_color":"orange","left_color":"lightblue","left_mu":60,"right_mu":48,"left_numbers":[57,66,68,57,58,55,60,52,58,55],"right_numbers":[52,62,36,50,45,45,65,54,54,48],"points_earned":518,"phase":"task","trial_type":"horizons-task","trial_index":83,"time_elapsed":1482932,"internal_node_id":"0.0-74.0","task_version":"0.2"},{"response_times":[582.0850000018254,448.6800000013318,614.1300000017509,555.2949999982957,623.9399999903981,954.040000011446,492.60500000673346,475.9150000172667,372.51000001560897,304.9449999816716],"keys_pressed":["leftarrow","rightarrow","leftarrow","rightarrow","rightarrow","rightarrow","rightarrow","rightarrow","rightarrow","rightarrow"],"horizon":10,"forced_choices":["leftarrow","rightarrow","leftarrow","rightarrow"],"right_color":"lightblue","left_color":"orange","left_mu":60,"right_mu":56,"left_numbers":[68,81,61,57,50,68,47,75,54,58],"right_numbers":[73,46,46,56,72,58,65,64,45,49],"points_earned":584,"phase":"task","trial_type":"horizons-task","trial_index":84,"time_elapsed":1489863,"internal_node_id":"0.0-75.0","task_version":"0.2"},{"response_times":[779.9449999874923,411.8949999974575,398.5800000082236,863.9750000147615,1099.7299999871757],"keys_pressed":["rightarrow","leftarrow","rightarrow","leftarrow","rightarrow"],"horizon":5,"forced_choices":["rightarrow","leftarrow","rightarrow","leftarrow"],"right_color":"orange","left_color":"lightblue","left_mu":40,"right_mu":60,"left_numbers":[36,22,43,45,35],"right_numbers":[66,53,56,77,65],"points_earned":254,"phase":"task","trial_type":"horizons-task","trial_index":85,"time_elapsed":1494921,"internal_node_id":"0.0-76.0","task_version":"0.2"},{"response_times":[701.5250000113156,662.7599999774247,934.495000023162,822.8600000147708,1940.0750000204425],"keys_pressed":["leftarrow","leftarrow","leftarrow","rightarrow","leftarrow"],"horizon":5,"forced_choices":["leftarrow","leftarrow","leftarrow","rightarrow"],"right_color":"orange","left_color":"lightblue","left_mu":60,"right_mu":68,"left_numbers":[73,54,56,54,55],"right_numbers":[54,64,73,60,64],"points_earned":298,"phase":"task","trial_type":"horizons-task","trial_index":86,"time_elapsed":1501492,"internal_node_id":"0.0-77.0","task_version":"0.2"},{"response_times":[880.2549999963958,647.8999999817461,1943.9650000131223,2104.865000001155,1000.3849999920931],"keys_pressed":["rightarrow","leftarrow","leftarrow","rightarrow","leftarrow"],"horizon":5,"forced_choices":["rightarrow","leftarrow","leftarrow","rightarrow"],"right_color":"orange","left_color":"lightblue","left_mu":40,"right_mu":20,"left_numbers":[31,37,38,43,35],"right_numbers":[16,27,32,29,15],"points_earned":155,"phase":"task","trial_type":"horizons-task","trial_index":87,"time_elapsed":1509586,"internal_node_id":"0.0-78.0","task_version":"0.2"},{"response_times":[813.1049999792594,553.8050000031944,724.4350000109989,606.1200000112876,1026.754999998957,1915.275000006659,1831.6349999804515,888.5249999875668,776.2949999887496,476.23999998904765],"keys_pressed":["leftarrow","leftarrow","rightarrow","rightarrow","leftarrow","leftarrow","rightarrow","leftarrow","leftarrow","leftarrow"],"horizon":10,"forced_choices":["leftarrow","leftarrow","rightarrow","rightarrow"],"right_color":"orange","left_color":"lightblue","left_mu":40,"right_mu":10,"left_numbers":[47,42,47,34,47,34,45,31,47,40],"right_numbers":[7,7,16,17,2,11,3,10,1,25],"points_earned":324,"phase":"task","trial_type":"horizons-task","trial_index":88,"time_elapsed":1520706,"internal_node_id":"0.0-79.0","task_version":"0.2"},{"response_times":[1044.304999988526,470.6949999963399,536.839999986114,546.2350000161678,519.6849999774713,3218.8399999868125,532.100000011269,368.19499998819083,335.8750000188593,720.2300000062678],"keys_pressed":["rightarrow","rightarrow","leftarrow","rightarrow","rightarrow","leftarrow","leftarrow","leftarrow","leftarrow","leftarrow"],"horizon":10,"forced_choices":["rightarrow","rightarrow","leftarrow","rightarrow"],"right_color":"lightblue","left_color":"orange","left_mu":60,"right_mu":52,"left_numbers":[72,55,55,62,51,63,69,71,52,67],"right_numbers":[52,25,74,41,53,59,47,48,65,47],"points_earned":548,"phase":"task","trial_type":"horizons-task","trial_index":89,"time_elapsed":1530504,"internal_node_id":"0.0-80.0","task_version":"0.2"},{"response_times":[524.2750000033993,532.7149999793619,507.11999999475665,572.2949999908451,1519.0799999982119],"keys_pressed":["rightarrow","rightarrow","leftarrow","leftarrow","leftarrow"],"horizon":5,"forced_choices":["rightarrow","rightarrow","leftarrow","leftarrow"],"right_color":"orange","left_color":"lightblue","left_mu":60,"right_mu":48,"left_numbers":[61,65,59,59,60],"right_numbers":[54,45,46,52,48],"points_earned":277,"phase":"task","trial_type":"horizons-task","trial_index":90,"time_elapsed":1535668,"internal_node_id":"0.0-81.0","task_version":"0.2"},{"response_times":[719.3200000037905,545.8250000083353,798.4949999954551,417.42000001249835,967.0449999975972,800.3550000139512,917.684999993071,728.1550000188872,412.68000000854954,460.6449999846518],"keys_pressed":["rightarrow","rightarrow","leftarrow","rightarrow","leftarrow","leftarrow","rightarrow","leftarrow","leftarrow","leftarrow"],"horizon":10,"forced_choices":["rightarrow","rightarrow","leftarrow","rightarrow"],"right_color":"orange","left_color":"lightblue","left_mu":40,"right_mu":20,"left_numbers":[44,22,32,51,38,38,33,29,49,37],"right_numbers":[16,13,25,31,10,24,14,14,11,20],"points_earned":297,"phase":"task","trial_type":"horizons-task","trial_index":91,"time_elapsed":1543942,"internal_node_id":"0.0-82.0","task_version":"0.2"},{"response_times":[712.9899999999907,410.96000000834465,688.0999999993946,534.4550000154413,1468.5999999928754,628.5750000097323,519.9800000118557,447.3149999976158,567.7050000231247,484.9499999836553],"keys_pressed":["leftarrow","rightarrow","rightarrow","leftarrow","rightarrow","rightarrow","rightarrow","rightarrow","rightarrow","rightarrow"],"horizon":10,"forced_choices":["leftarrow","rightarrow","rightarrow","leftarrow"],"right_color":"orange","left_color":"lightblue","left_mu":60,"right_mu":90,"left_numbers":[53,51,64,58,46,55,68,70,59,57],"right_numbers":[71,98,85,88,87,87,91,83,84,95],"points_earned":821,"phase":"task","trial_type":"horizons-task","trial_index":92,"time_elapsed":1551916,"internal_node_id":"0.0-83.0","task_version":"0.2"},{"response_times":[603.480000019772,620.7299999950919,551.7399999953341,539.4200000155251,3768.580000003567],"keys_pressed":["rightarrow","rightarrow","rightarrow","leftarrow","leftarrow"],"horizon":5,"forced_choices":["rightarrow","rightarrow","rightarrow","leftarrow"],"right_color":"lightblue","left_color":"orange","left_mu":40,"right_mu":52,"left_numbers":[34,46,40,43,30],"right_numbers":[55,48,45,67,55],"points_earned":221,"phase":"task","trial_type":"horizons-task","trial_index":93,"time_elapsed":1559508,"internal_node_id":"0.0-84.0","task_version":"0.2"},{"response_times":[868.929999996908,523.9650000003166,516.2000000127591,757.6850000186823,1412.8100000089034],"keys_pressed":["rightarrow","leftarrow","leftarrow","leftarrow","leftarrow"],"horizon":5,"forced_choices":["rightarrow","leftarrow","leftarrow","leftarrow"],"right_color":"lightblue","left_color":"orange","left_mu":40,"right_mu":28,"left_numbers":[30,39,49,52,44],"right_numbers":[26,35,21,25,32],"points_earned":210,"phase":"task","trial_type":"horizons-task","trial_index":94,"time_elapsed":1565091,"internal_node_id":"0.0-85.0","task_version":"0.2"},{"response_times":[1706.9049999990966,355.88499999721535,520.9449999965727,696.750000002794,1784.2799999925774],"keys_pressed":["leftarrow","rightarrow","leftarrow","leftarrow","rightarrow"],"horizon":5,"forced_choices":["leftarrow","rightarrow","leftarrow","leftarrow"],"right_color":"lightblue","left_color":"orange","left_mu":40,"right_mu":36,"left_numbers":[39,44,32,33,31],"right_numbers":[35,42,51,41,35],"points_earned":181,"phase":"task","trial_type":"horizons-task","trial_index":95,"time_elapsed":1571662,"internal_node_id":"0.0-86.0","task_version":"0.2"},{"response_times":[502.8749999764841,784.9700000078883,640.2350000280421,623.9099999947939,1198.6199999810196],"keys_pressed":["leftarrow","leftarrow","rightarrow","rightarrow","rightarrow"],"horizon":5,"forced_choices":["leftarrow","leftarrow","rightarrow","rightarrow"],"right_color":"orange","left_color":"lightblue","left_mu":60,"right_mu":80,"left_numbers":[48,54,70,56,51],"right_numbers":[75,77,79,82,77],"points_earned":340,"phase":"task","trial_type":"horizons-task","trial_index":96,"time_elapsed":1576918,"internal_node_id":"0.0-87.0","task_version":"0.2"},{"rt":29031.629999983124,"responses":{"age":"49","gender-categorical":"Female","gender-free-response":"","ethnicity":"Not Hispanic or Latino","race":["White"],"language":"Yes","fluency":"Very well"},"survey":"demographics","trial_type":"survey-demo","trial_index":97,"time_elapsed":1605959,"internal_node_id":"0.0-88.0","task_version":"0.2"},{"rt":35341.82000000146,"responses":{"difficulty":"4","fun":"4","clarity":"5","strategy":"no","feedback":"na"},"survey":"debrief","trial_type":"survey-debrief","trial_index":98,"time_elapsed":1641319,"internal_node_id":"0.0-89.0","task_version":"0.2","interactions":"[]"}]