[{"view_history":"[{\"page_index\":0,\"viewing_time\":2831.000000005588}]","rt":2831.000000005588,"trial_type":"instructions","trial_index":0,"time_elapsed":2842,"internal_node_id":"0.0-0.0","task_version":"0.2"},{"item_order":[6,7,1,8,2,4,14,13,15,11,0,12,5,9,3,10,16],"responses":{"Q07":"2","Q08":"3","Q02":"3","Q09":"2","Q03":"4","Q05":"0","Q15":"2","Q14":"3","Q16":"4","Q12":"1","Q01":"2","Q13":"1","Q06":"2","Q10":"3","Q04":"1","Q11":"3","Q17":"0"},"radio_events":[7625,13423.999999999069,15647.999999986496,20413.000000000466,23170.99999997299,26621.999999973923,29458.999999973457,31331.000000005588,33866.999999969266,36636.99999998789,40674.99999998836,45197.999999974854,46157.00000000652,49858.00000000745,54721.00000001956,57326.00000000093,59071.999999985565,65559.99999999767,71034.99999997439],"key_events":[],"mouse_events":[0.9999999892897904,7625,11626.99999997858,13423.999999999069,15647.999999986496,20413.000000000466,23170.99999997299,26621.999999973923,29458.999999973457,31331.000000005588,33866.999999969266,36636.99999998789,40674.99999998836,45197.999999974854,46157.00000000652,49858.00000000745,54124.00000001071,54721.00000001956,57326.00000000093,58512.99999997718,59071.999999985565,65559.99999999767,71034.99999997439,76447.99999997485],"rt":76452.99999997951,"survey":"pswq","trial_type":"survey-template","trial_index":1,"time_elapsed":79304,"internal_node_id":"0.0-1.0","task_version":"0.2"},{"item_order":[1,7,8,5,9,10,0,3,4,6,2,12,11],"responses":{"Q02":"3","Q08":"4","Q09":"2","Q06":"4","Q10":"2","Q11":"1","Q01":"3","Q04":"1","Q05":"2","Q07":"1","Q03":"2","Q13":"4","Q12":"2"},"radio_events":[9649.999999965075,11954.99999995809,14463.999999978114,19266.99999999255,20877.99999996787,24573.999999964144,26980.999999970663,28866.999999969266,31135.999999998603,32789.999999979045,41913.000000000466,44551.99999996694,52442.9999999702,62865.99999997998,67274.99999996508,70006.99999998324,72540.99999996834,77102.0000000135],"key_events":[],"mouse_events":[9649.999999965075,11954.99999995809,14463.999999978114,19266.99999999255,20543.000000005122,20877.99999996787,24573.999999964144,26980.999999970663,28866.999999969266,31135.999999998603,32789.999999979045,41913.000000000466,44551.99999996694,52442.9999999702,62865.99999997998,67274.99999996508,69348.99999998743,70006.99999998324,72540.99999996834,77102.0000000135,77728.99999999208],"rt":77733.00000000745,"survey":"ius12","trial_type":"survey-template","trial_index":2,"time_elapsed":157044,"internal_node_id":"0.0-2.0","task_version":"0.2"},{"item_order":[8,14,11,12,13,5,7,1,10,6,4,15,9,3,0,2],"responses":{"Q09":"1","Q15":"4","Q12":"5","Q13":"4","Q14":"0","Q06":"5","Q08":"1","Q02":"0","Q11":"3","Q07":"5","Q05":"0","Q16":"5","Q10":"4","Q04":"4","Q01":"3","Q03":"4"},"radio_events":[24515.00000001397,30271.000000007916,34253.00000002608,37345.00000003027,42101.000000024214,49119.99999999534,51531.00000001723,57579.00000002701,65211.000000010245,71157.99999999581,86017.99999998184,92478.99999999208,96641.99999999255,103057.0000000298,105227.0000000135,111596.00000001956,114135.9999999986,124539.99999997905],"key_events":[],"mouse_events":[24515.00000001397,30271.000000007916,34253.00000002608,36570.999999996275,37345.00000003027,42101.000000024214,49119.99999999534,49992.000000027474,51531.00000001723,57579.00000002701,65211.000000010245,71157.99999999581,85182.0000000298,86017.99999998184,92478.99999999208,96641.99999999255,103057.0000000298,104399.000000034,105227.0000000135,110802.00000002515,111596.00000001956,114135.9999999986,124539.99999997905,125611.00000003353],"rt":125615.99999997998,"survey":"nfc","trial_type":"survey-template","trial_index":3,"time_elapsed":282669,"internal_node_id":"0.0-3.0","task_version":"0.2"},{"view_history":"[{\"page_index\":0,\"viewing_time\":6949.999999953434},{\"page_index\":1,\"viewing_time\":4671.000000031199},{\"page_index\":2,\"viewing_time\":11895.000000018626},{\"page_index\":3,\"viewing_time\":7020.999999949709},{\"page_index\":4,\"viewing_time\":5445.999999996275},{\"page_index\":5,\"viewing_time\":6031.0000000172295},{\"page_index\":6,\"viewing_time\":9024.000000033993},{\"page_index\":7,\"viewing_time\":9833.999999973457},{\"page_index\":8,\"viewing_time\":9465.000000025611},{\"page_index\":9,\"viewing_time\":11099.999999976717}]","rt":81436.99999997625,"trial_type":"instructions","trial_index":4,"time_elapsed":364108,"internal_node_id":"0.0-4.0-0.0","task_version":"0.2"},{"response_times":[7836.999999999534,23690.00000000233,3292.0000000158325,2570.9999999962747,7842.000000004191],"keys_pressed":["rightarrow","leftarrow","rightarrow","rightarrow","leftarrow"],"horizon":5,"forced_choices":["rightarrow","leftarrow","rightarrow","rightarrow"],"right_color":"lightblue","left_color":"orange","left_mu":40,"right_mu":20,"left_numbers":[45,27,40,41,40],"right_numbers":[25,6,6,18,9],"points_earned":116,"phase":"practice","trial_type":"horizons-task","trial_index":5,"time_elapsed":410853,"internal_node_id":"0.0-4.0-1.0","task_version":"0.2"},{"response_times":[2496.999999973923,1232.0000000181608,616.9999999692664,502.00000003678724,3413.9999999897555,513.9999999664724,463.0000000470318,301.99999996693805,948.000000033062,405.9999999590218],"keys_pressed":["leftarrow","leftarrow","rightarrow","rightarrow","rightarrow","rightarrow","leftarrow","leftarrow","rightarrow","leftarrow"],"horizon":10,"forced_choices":["leftarrow","leftarrow","rightarrow","rightarrow"],"right_color":"orange","left_color":"lightblue","left_mu":60,"right_mu":70,"left_numbers":[66,53,51,60,50,66,48,57,73,43],"right_numbers":[73,75,91,74,59,72,68,64,57,77],"points_earned":620,"phase":"practice","trial_type":"horizons-task","trial_index":6,"time_elapsed":423251,"internal_node_id":"0.0-4.0-2.0","task_version":"0.2"},{"view_history":"[{\"page_index\":0,\"viewing_time\":3059.9999999976717},{\"page_index\":1,\"viewing_time\":7311.999999976251},{\"page_index\":2,\"viewing_time\":4559.999999997672},{\"page_index\":3,\"viewing_time\":3103.000000002794}]","rt":18035.99999996368,"trial_type":"instructions","trial_index":7,"time_elapsed":441289,"internal_node_id":"0.0-4.0-3.0","task_version":"0.2"},{"responses":["true","false","true"],"num_errors":0,"rt":15834.999999962747,"trial_type":"horizons-comprehension","trial_index":8,"time_elapsed":457127,"internal_node_id":"0.0-4.0-4.0","task_version":"0.2"},{"trial_type":"call-function","trial_index":9,"time_elapsed":457132,"internal_node_id":"0.0-5.0","task_version":"0.2"},{"view_history":"[{\"page_index\":0,\"viewing_time\":2082.9999999841675},{\"page_index\":1,\"viewing_time\":7178.0000000144355}]","rt":9261.999999987893,"trial_type":"instructions","trial_index":10,"time_elapsed":466395,"internal_node_id":"0.0-6.0","task_version":"0.2"},{"response_times":[1433.000000019092,722.9999999981374,490.99999997997656,439.0000000130385,1129.0000000153668],"keys_pressed":["leftarrow","leftarrow","leftarrow","rightarrow","rightarrow"],"horizon":5,"forced_choices":["leftarrow","leftarrow","leftarrow","rightarrow"],"right_color":"lightblue","left_color":"orange","left_mu":40,"right_mu":10,"left_numbers":[30,42,27,41,43],"right_numbers":[10,21,10,4,9],"points_earned":112,"phase":"task","trial_type":"horizons-task","trial_index":11,"time_elapsed":472119,"internal_node_id":"0.0-7.0","task_version":"0.2"},{"response_times":[1920.0000000419095,4133.999999961816,568.0000000284053,419.99999998370185,3562.000000034459],"keys_pressed":["rightarrow","leftarrow","leftarrow","rightarrow","leftarrow"],"horizon":5,"forced_choices":["rightarrow","leftarrow","leftarrow","rightarrow"],"right_color":"orange","left_color":"lightblue","left_mu":40,"right_mu":48,"left_numbers":[55,37,41,41,61],"right_numbers":[53,59,44,48,45],"points_earned":240,"phase":"task","trial_type":"horizons-task","trial_index":12,"time_elapsed":484226,"internal_node_id":"0.0-8.0","task_version":"0.2"},{"response_times":[1357.0000000181608,521.0000000079162,835.9999999520369,944.0000000176951,1085.0000000209548,1510.0000000093132,471.9999999506399,289.0000000479631,244.0000000060536,521.999999997206],"keys_pressed":["rightarrow","leftarrow","leftarrow","leftarrow","rightarrow","rightarrow","rightarrow","leftarrow","leftarrow","rightarrow"],"horizon":10,"forced_choices":["rightarrow","leftarrow","leftarrow","leftarrow"],"right_color":"orange","left_color":"lightblue","left_mu":40,"right_mu":48,"left_numbers":[41,54,45,28,43,48,25,35,20,33],"right_numbers":[52,51,49,61,59,43,52,35,46,54],"points_earned":442,"phase":"task","trial_type":"horizons-task","trial_index":13,"time_elapsed":493508,"internal_node_id":"0.0-9.0","task_version":"0.2"},{"response_times":[2729.9999999813735,1315.0000000023283,746.0000000428408,1522.9999999864958,967.000000004191],"keys_pressed":["leftarrow","rightarrow","rightarrow","rightarrow","leftarrow"],"horizon":5,"forced_choices":["leftarrow","rightarrow","rightarrow","rightarrow"],"right_color":"lightblue","left_color":"orange","left_mu":60,"right_mu":30,"left_numbers":[59,69,49,54,70],"right_numbers":[28,34,32,15,35],"points_earned":210,"phase":"task","trial_type":"horizons-task","trial_index":14,"time_elapsed":502292,"internal_node_id":"0.0-10.0","task_version":"0.2"},{"response_times":[1331.000000005588,818.0000000284053,588.9999999781139,421.0000000311993,2470.99999996135,1583.0000000423752,1090.9999999566935,382.00000004144385,340.9999999566935,336.99999999953434],"keys_pressed":["leftarrow","rightarrow","rightarrow","leftarrow","leftarrow","leftarrow","leftarrow","rightarrow","rightarrow","rightarrow"],"horizon":10,"forced_choices":["leftarrow","rightarrow","rightarrow","leftarrow"],"right_color":"orange","left_color":"lightblue","left_mu":60,"right_mu":40,"left_numbers":[86,58,47,57,68,55,56,83,68,61],"right_numbers":[50,52,48,30,41,48,35,40,37,41],"points_earned":540,"phase":"task","trial_type":"horizons-task","trial_index":15,"time_elapsed":513167,"internal_node_id":"0.0-11.0","task_version":"0.2"},{"response_times":[866.0000000381842,355.99999997066334,303.0000000144355,587.9999999888241,1101.0000000242144,282.99999999580905,321.9999999855645,326.0000000009313,293.0000000051223,425.99999997764826],"keys_pressed":["leftarrow","rightarrow","leftarrow","leftarrow","rightarrow","rightarrow","rightarrow","leftarrow","leftarrow","rightarrow"],"horizon":10,"forced_choices":["leftarrow","rightarrow","leftarrow","leftarrow"],"right_color":"lightblue","left_color":"orange","left_mu":40,"right_mu":60,"left_numbers":[32,45,39,47,50,50,51,39,40,43],"right_numbers":[68,63,70,72,63,54,60,64,62,68],"points_earned":505,"phase":"task","trial_type":"horizons-task","trial_index":16,"time_elapsed":519532,"internal_node_id":"0.0-12.0","task_version":"0.2"},{"response_times":[777.9999999911524,331.9999999948777,441.9999999809079,1048.000000009779,2904.999999969732],"keys_pressed":["rightarrow","leftarrow","rightarrow","leftarrow","rightarrow"],"horizon":5,"forced_choices":["rightarrow","leftarrow","rightarrow","leftarrow"],"right_color":"lightblue","left_color":"orange","left_mu":60,"right_mu":48,"left_numbers":[63,46,63,63,56],"right_numbers":[41,43,60,49,44],"points_earned":254,"phase":"task","trial_type":"horizons-task","trial_index":17,"time_elapsed":526539,"internal_node_id":"0.0-13.0","task_version":"0.2"},{"response_times":[1073.999999964144,1018.0000000400469,500.9999999892898,949.0000000223517,484.99999998603016],"keys_pressed":["rightarrow","rightarrow","leftarrow","rightarrow","leftarrow"],"horizon":5,"forced_choices":["rightarrow","rightarrow","leftarrow","rightarrow"],"right_color":"orange","left_color":"lightblue","left_mu":60,"right_mu":52,"left_numbers":[59,60,60,48,56],"right_numbers":[51,50,66,53,40],"points_earned":270,"phase":"task","trial_type":"horizons-task","trial_index":18,"time_elapsed":532068,"internal_node_id":"0.0-14.0","task_version":"0.2"},{"response_times":[839.0000000363216,1140.999999945052,555.0000000512227,652.0000000018626,465.9999999566935,1395.0000000186265,177.0000000251457,433.99999995017424,371.99999997392297,514.00000002468],"keys_pressed":["rightarrow","rightarrow","leftarrow","leftarrow","rightarrow","leftarrow","leftarrow","rightarrow","rightarrow","leftarrow"],"horizon":10,"forced_choices":["rightarrow","rightarrow","leftarrow","leftarrow"],"right_color":"orange","left_color":"lightblue","left_mu":60,"right_mu":72,"left_numbers":[47,71,63,53,56,59,63,55,68,67],"right_numbers":[74,71,81,65,88,84,80,75,80,71],"points_earned":693,"phase":"task","trial_type":"horizons-task","trial_index":19,"time_elapsed":540117,"internal_node_id":"0.0-15.0","task_version":"0.2"},{"response_times":[705.0000000162981,782.0000000065193,431.99999997159466,809.0000000083819,1184.000000008382,194.00000001769513,864.000000001397,819.0000000176951,214.9999999674037,268.00000004004687],"keys_pressed":["rightarrow","rightarrow","rightarrow","leftarrow","rightarrow","rightarrow","leftarrow","rightarrow","leftarrow","leftarrow"],"horizon":10,"forced_choices":["rightarrow","rightarrow","rightarrow","leftarrow"],"right_color":"lightblue","left_color":"orange","left_mu":40,"right_mu":28,"left_numbers":[41,28,42,43,42,48,49,50,48,33],"right_numbers":[33,22,30,40,33,22,36,27,26,27],"points_earned":340,"phase":"task","trial_type":"horizons-task","trial_index":20,"time_elapsed":547895,"internal_node_id":"0.0-16.0","task_version":"0.2"},{"response_times":[601.0000000242144,253.99999995715916,726.0000000242144,1298.9999999990687,324.00000002235174],"keys_pressed":["rightarrow","leftarrow","rightarrow","rightarrow","leftarrow"],"horizon":5,"forced_choices":["rightarrow","leftarrow","rightarrow","rightarrow"],"right_color":"lightblue","left_color":"orange","left_mu":40,"right_mu":32,"left_numbers":[45,42,54,34,28],"right_numbers":[35,30,16,33,48],"points_earned":154,"phase":"task","trial_type":"horizons-task","trial_index":21,"time_elapsed":552601,"internal_node_id":"0.0-17.0","task_version":"0.2"},{"response_times":[1316.999999980908,1097.9999999981374,933.0000000190921,705.0000000162981,932.9999999608845,885.999999998603,407.00000000651926,321.9999999855645,439.0000000130385,302.0000000251457],"keys_pressed":["leftarrow","leftarrow","rightarrow","leftarrow","rightarrow","leftarrow","rightarrow","leftarrow","leftarrow","leftarrow"],"horizon":10,"forced_choices":["leftarrow","leftarrow","rightarrow","leftarrow"],"right_color":"orange","left_color":"lightblue","left_mu":40,"right_mu":70,"left_numbers":[44,43,42,48,49,40,44,39,37,45],"right_numbers":[78,68,77,84,65,82,75,75,86,68],"points_earned":513,"phase":"task","trial_type":"horizons-task","trial_index":22,"time_elapsed":561446,"internal_node_id":"0.0-18.0","task_version":"0.2"},{"response_times":[947.9999999748543,668.9999999944121,422.0000000204891,659.9999999743886,634.0000000200234],"keys_pressed":["leftarrow","leftarrow","rightarrow","rightarrow","leftarrow"],"horizon":5,"forced_choices":["leftarrow","leftarrow","rightarrow","rightarrow"],"right_color":"lightblue","left_color":"orange","left_mu":60,"right_mu":80,"left_numbers":[59,53,59,41,60],"right_numbers":[94,83,90,89,91],"points_earned":351,"phase":"task","trial_type":"horizons-task","trial_index":23,"time_elapsed":566282,"internal_node_id":"0.0-19.0","task_version":"0.2"},{"response_times":[2869.9999999953434,706.0000000055879,1020.0000000186265,2157.0000000065193,3014.999999955762,453.00000003771856,385.0000000093132,456.9999999948777,442.9999999701977,760.0000000093132],"keys_pressed":["leftarrow","leftarrow","rightarrow","rightarrow","rightarrow","rightarrow","rightarrow","rightarrow","rightarrow","leftarrow"],"horizon":10,"forced_choices":["leftarrow","leftarrow","rightarrow","rightarrow"],"right_color":"lightblue","left_color":"orange","left_mu":60,"right_mu":80,"left_numbers":[55,57,56,59,72,66,56,67,50,63],"right_numbers":[81,85,71,61,70,85,66,77,75,76],"points_earned":680,"phase":"task","trial_type":"horizons-task","trial_index":24,"time_elapsed":580050,"internal_node_id":"0.0-20.0","task_version":"0.2"},{"response_times":[955.0000000162981,1201.0000000009313,625,2895.0000000186265,854.9999999813735],"keys_pressed":["rightarrow","rightarrow","leftarrow","leftarrow","leftarrow"],"horizon":5,"forced_choices":["rightarrow","rightarrow","leftarrow","leftarrow"],"right_color":"lightblue","left_color":"orange","left_mu":60,"right_mu":64,"left_numbers":[57,73,51,55,55],"right_numbers":[66,71,67,68,65],"points_earned":298,"phase":"task","trial_type":"horizons-task","trial_index":25,"time_elapsed":588083,"internal_node_id":"0.0-21.0","task_version":"0.2"},{"response_times":[1214.9999999674037,362.0000000228174,676.999999966938,1962.9999999888241,299.00000005727634],"keys_pressed":["leftarrow","rightarrow","leftarrow","rightarrow","rightarrow"],"horizon":5,"forced_choices":["leftarrow","rightarrow","leftarrow","rightarrow"],"right_color":"orange","left_color":"lightblue","left_mu":40,"right_mu":70,"left_numbers":[37,42,20,27,37],"right_numbers":[70,65,64,56,87],"points_earned":265,"phase":"task","trial_type":"horizons-task","trial_index":26,"time_elapsed":594101,"internal_node_id":"0.0-22.0","task_version":"0.2"},{"response_times":[623.0000000214204,1275.9999999543652,2034.0000000433065,1224.999999976717,584.000000031665],"keys_pressed":["rightarrow","rightarrow","leftarrow","rightarrow","rightarrow"],"horizon":5,"forced_choices":["rightarrow","rightarrow","leftarrow","rightarrow"],"right_color":"lightblue","left_color":"orange","left_mu":60,"right_mu":80,"left_numbers":[61,64,61,55,68],"right_numbers":[70,62,83,76,88],"points_earned":357,"phase":"task","trial_type":"horizons-task","trial_index":27,"time_elapsed":601346,"internal_node_id":"0.0-23.0","task_version":"0.2"},{"response_times":[570.9999999962747,460.00000002095476,825.0000000116415,633.9999999618158,1079.0000000270084,360.99999997531995,260.999999998603,181.00000004051253,490.99999997997656,373.0000000214204],"keys_pressed":["rightarrow","rightarrow","rightarrow","leftarrow","leftarrow","leftarrow","leftarrow","leftarrow","rightarrow","rightarrow"],"horizon":10,"forced_choices":["rightarrow","rightarrow","rightarrow","leftarrow"],"right_color":"orange","left_color":"lightblue","left_mu":40,"right_mu":36,"left_numbers":[36,41,36,39,49,30,29,26,48,27],"right_numbers":[24,36,28,42,32,32,41,35,46,35],"points_earned":342,"phase":"task","trial_type":"horizons-task","trial_index":28,"time_elapsed":608084,"internal_node_id":"0.0-24.0","task_version":"0.2"},{"response_times":[944.0000000176951,678.0000000144355,571.9999999855645,919.9999999837019,4351.000000024214,565.9999999916181,703.9999999688007,250,244.9999999953434,268.00000004004687],"keys_pressed":["rightarrow","leftarrow","leftarrow","rightarrow","rightarrow","rightarrow","rightarrow","rightarrow","rightarrow","rightarrow"],"horizon":10,"forced_choices":["rightarrow","leftarrow","leftarrow","rightarrow"],"right_color":"lightblue","left_color":"orange","left_mu":60,"right_mu":90,"left_numbers":[60,67,56,53,55,60,53,61,55,69],"right_numbers":[83,82,84,82,93,97,103,100,91,86],"points_earned":858,"phase":"task","trial_type":"horizons-task","trial_index":29,"time_elapsed":619085,"internal_node_id":"0.0-25.0","task_version":"0.2"},{"response_times":[601.0000000242144,486.99999996460974,638.0000000353903,2086.9999999995343,1897.9999999864958],"keys_pressed":["leftarrow","rightarrow","rightarrow","rightarrow","leftarrow"],"horizon":5,"forced_choices":["leftarrow","rightarrow","rightarrow","rightarrow"],"right_color":"lightblue","left_color":"orange","left_mu":60,"right_mu":56,"left_numbers":[64,58,55,64,60],"right_numbers":[57,67,51,42,60],"points_earned":284,"phase":"task","trial_type":"horizons-task","trial_index":30,"time_elapsed":626298,"internal_node_id":"0.0-26.0","task_version":"0.2"},{"response_times":[773.0000000447035,776.0000000125729,1225.9999999660067,576.0000000009313,1618.0000000167638],"keys_pressed":["rightarrow","leftarrow","leftarrow","rightarrow","leftarrow"],"horizon":5,"forced_choices":["rightarrow","leftarrow","leftarrow","rightarrow"],"right_color":"orange","left_color":"lightblue","left_mu":60,"right_mu":52,"left_numbers":[67,67,49,60,47],"right_numbers":[48,50,56,48,63],"points_earned":259,"phase":"task","trial_type":"horizons-task","trial_index":31,"time_elapsed":632770,"internal_node_id":"0.0-27.0","task_version":"0.2"},{"response_times":[814.0000000130385,484.99999998603016,429.0000000037253,382.00000004144385,1829.9999999580905,532.999999995809,592.000000004191,523.0000000447035,804.9999999930151,242.99999995855615],"keys_pressed":["rightarrow","rightarrow","leftarrow","rightarrow","leftarrow","leftarrow","rightarrow","leftarrow","leftarrow","leftarrow"],"horizon":10,"forced_choices":["rightarrow","rightarrow","leftarrow","rightarrow"],"right_color":"lightblue","left_color":"orange","left_mu":60,"right_mu":48,"left_numbers":[58,75,57,60,60,53,49,69,59,55],"right_numbers":[40,44,43,54,54,46,50,42,43,35],"points_earned":541,"phase":"task","trial_type":"horizons-task","trial_index":32,"time_elapsed":640909,"internal_node_id":"0.0-28.0","task_version":"0.2"},{"response_times":[838.9999999781139,531.0000000172295,881.9999999832362,701.9999999902211,1801.000000035856],"keys_pressed":["leftarrow","rightarrow","rightarrow","leftarrow","rightarrow"],"horizon":5,"forced_choices":["leftarrow","rightarrow","rightarrow","leftarrow"],"right_color":"orange","left_color":"lightblue","left_mu":40,"right_mu":44,"left_numbers":[26,36,39,55,33],"right_numbers":[40,37,33,34,33],"points_earned":184,"phase":"task","trial_type":"horizons-task","trial_index":33,"time_elapsed":647167,"internal_node_id":"0.0-29.0","task_version":"0.2"},{"response_times":[1080.0000000162981,493.0000000167638,543.0000000051223,714.9999999674037,1358.0000000074506,331.9999999948777,1155.0000000279397,320.0000000069849,282.00000000651926,282.99999999580905],"keys_pressed":["leftarrow","rightarrow","leftarrow","rightarrow","rightarrow","rightarrow","rightarrow","rightarrow","rightarrow","rightarrow"],"horizon":10,"forced_choices":["leftarrow","rightarrow","leftarrow","rightarrow"],"right_color":"orange","left_color":"lightblue","left_mu":40,"right_mu":70,"left_numbers":[27,36,29,41,38,50,43,63,39,43],"right_numbers":[78,67,61,66,58,69,58,72,72,77],"points_earned":595,"phase":"task","trial_type":"horizons-task","trial_index":34,"time_elapsed":655231,"internal_node_id":"0.0-30.0","task_version":"0.2"},{"response_times":[916.0000000265427,392.9999999818392,973.9999999874271,955.0000000162981,1228.000000002794,425.99999997764826,639.00000002468,243.0000000167638,228.00000000279397,279.999999969732],"keys_pressed":["rightarrow","leftarrow","leftarrow","rightarrow","leftarrow","leftarrow","leftarrow","leftarrow","leftarrow","leftarrow"],"horizon":10,"forced_choices":["rightarrow","leftarrow","leftarrow","rightarrow"],"right_color":"orange","left_color":"lightblue","left_mu":60,"right_mu":52,"left_numbers":[55,56,64,65,51,65,66,65,60,61],"right_numbers":[60,43,67,53,54,42,63,47,47,50],"points_earned":601,"phase":"task","trial_type":"horizons-task","trial_index":35,"time_elapsed":663016,"internal_node_id":"0.0-31.0","task_version":"0.2"},{"response_times":[837.9999999888241,412.00000001117587,778.9999999804422,705.0000000162981,217.99999999348074],"keys_pressed":["rightarrow","leftarrow","leftarrow","rightarrow","rightarrow"],"horizon":5,"forced_choices":["rightarrow","leftarrow","leftarrow","rightarrow"],"right_color":"lightblue","left_color":"orange","left_mu":60,"right_mu":90,"left_numbers":[53,73,51,60,64],"right_numbers":[98,95,94,95,93],"points_earned":410,"phase":"task","trial_type":"horizons-task","trial_index":36,"time_elapsed":667471,"internal_node_id":"0.0-32.0","task_version":"0.2"},{"response_times":[972.0000000088476,488.0000000121072,521.0000000079162,865.9999999799766,1428.0000000144355,474.99999997671694,755.0000000046566,472.99999999813735,452.9999999795109,188.00000002374873],"keys_pressed":["rightarrow","rightarrow","leftarrow","leftarrow","rightarrow","rightarrow","leftarrow","leftarrow","leftarrow","leftarrow"],"horizon":10,"forced_choices":["rightarrow","rightarrow","leftarrow","leftarrow"],"right_color":"orange","left_color":"lightblue","left_mu":40,"right_mu":20,"left_numbers":[25,35,38,30,31,52,38,42,28,35],"right_numbers":[29,11,25,27,34,32,31,16,12,25],"points_earned":317,"phase":"task","trial_type":"horizons-task","trial_index":37,"time_elapsed":675593,"internal_node_id":"0.0-33.0","task_version":"0.2"},{"response_times":[679.0000000037253,629.0000000153668,506.9999999832362,1074.0000000223517,672.0000000204891],"keys_pressed":["rightarrow","leftarrow","rightarrow","rightarrow","leftarrow"],"horizon":5,"forced_choices":["rightarrow","leftarrow","rightarrow","rightarrow"],"right_color":"orange","left_color":"lightblue","left_mu":40,"right_mu":20,"left_numbers":[40,42,44,28,39],"right_numbers":[13,22,23,21,23],"points_earned":138,"phase":"task","trial_type":"horizons-task","trial_index":38,"time_elapsed":680655,"internal_node_id":"0.0-34.0","task_version":"0.2"},{"response_times":[750,462.99999998882413,603.000000002794,585.0000000209548,1358.9999999967404],"keys_pressed":["rightarrow","rightarrow","rightarrow","leftarrow","leftarrow"],"horizon":5,"forced_choices":["rightarrow","rightarrow","rightarrow","leftarrow"],"right_color":"lightblue","left_color":"orange","left_mu":40,"right_mu":28,"left_numbers":[47,37,42,54,41],"right_numbers":[30,24,32,40,26],"points_earned":181,"phase":"task","trial_type":"horizons-task","trial_index":39,"time_elapsed":685918,"internal_node_id":"0.0-35.0","task_version":"0.2"},{"response_times":[537.0000000111759,446.9999999855645,844.0000000409782,430.99999998230487,862.0000000228174,239.99999999068677,213.99999997811392,205.00000001629815,191.9999999809079,272.9999999864958],"keys_pressed":["rightarrow","rightarrow","leftarrow","rightarrow","rightarrow","rightarrow","rightarrow","rightarrow","rightarrow","rightarrow"],"horizon":10,"forced_choices":["rightarrow","rightarrow","leftarrow","rightarrow"],"right_color":"lightblue","left_color":"orange","left_mu":60,"right_mu":80,"left_numbers":[46,61,50,60,65,61,57,56,61,50],"right_numbers":[96,77,84,78,83,77,73,75,79,88],"points_earned":776,"phase":"task","trial_type":"horizons-task","trial_index":40,"time_elapsed":691665,"internal_node_id":"0.0-36.0","task_version":"0.2"},{"response_times":[1063.9999999548309,453.00000003771856,435.9999999869615,960.0000000209548,1250.9999999892898],"keys_pressed":["leftarrow","rightarrow","leftarrow","rightarrow","leftarrow"],"horizon":5,"forced_choices":["leftarrow","rightarrow","leftarrow","rightarrow"],"right_color":"lightblue","left_color":"orange","left_mu":40,"right_mu":10,"left_numbers":[38,27,43,40,32],"right_numbers":[8,15,8,10,1],"points_earned":138,"phase":"task","trial_type":"horizons-task","trial_index":41,"time_elapsed":697330,"internal_node_id":"0.0-37.0","task_version":"0.2"},{"response_times":[675.9999999776483,934.9999999976717,617.000000027474,842.000000004191,2420.9999999729916],"keys_pressed":["leftarrow","leftarrow","rightarrow","leftarrow","leftarrow"],"horizon":5,"forced_choices":["leftarrow","leftarrow","rightarrow","leftarrow"],"right_color":"orange","left_color":"lightblue","left_mu":60,"right_mu":40,"left_numbers":[53,63,65,82,61],"right_numbers":[43,43,27,42,44],"points_earned":286,"phase":"task","trial_type":"horizons-task","trial_index":42,"time_elapsed":704323,"internal_node_id":"0.0-38.0","task_version":"0.2"},{"response_times":[622.0000000321306,404.999999969732,574.0000000223517,681.9999999715947,472.00000000884756],"keys_pressed":["leftarrow","rightarrow","leftarrow","rightarrow","rightarrow"],"horizon":5,"forced_choices":["leftarrow","rightarrow","leftarrow","rightarrow"],"right_color":"orange","left_color":"lightblue","left_mu":60,"right_mu":68,"left_numbers":[74,58,65,46,63],"right_numbers":[82,72,60,75,83],"points_earned":369,"phase":"task","trial_type":"horizons-task","trial_index":43,"time_elapsed":708582,"internal_node_id":"0.0-39.0","task_version":"0.2"},{"response_times":[580.9999999473803,1844.0000000409782,423.0000000097789,525.9999999543652,926.0000000358559,818.9999999594875,521.0000000079162,209.9999999627471,228.99999999208376,399.0000000339933],"keys_pressed":["leftarrow","leftarrow","leftarrow","rightarrow","leftarrow","rightarrow","leftarrow","leftarrow","leftarrow","leftarrow"],"horizon":10,"forced_choices":["leftarrow","leftarrow","leftarrow","rightarrow"],"right_color":"lightblue","left_color":"orange","left_mu":40,"right_mu":10,"left_numbers":[45,45,35,48,54,37,34,43,32,44],"right_numbers":[16,12,8,19,9,15,13,0,19,9],"points_earned":366,"phase":"task","trial_type":"horizons-task","trial_index":44,"time_elapsed":716564,"internal_node_id":"0.0-40.0","task_version":"0.2"},{"response_times":[911.0000000218861,1529.999999969732,781.0000000172295,688.0000000237487,1586.9999999995343,375,295.99999997299165,577.9999999795109,222.00000000884756,185.99999998696148],"keys_pressed":["leftarrow","rightarrow","rightarrow","leftarrow","rightarrow","rightarrow","leftarrow","rightarrow","rightarrow","rightarrow"],"horizon":10,"forced_choices":["leftarrow","rightarrow","rightarrow","leftarrow"],"right_color":"lightblue","left_color":"orange","left_mu":40,"right_mu":60,"left_numbers":[42,33,32,47,36,32,42,30,31,36],"right_numbers":[49,72,48,63,68,77,47,51,64,55],"points_earned":566,"phase":"task","trial_type":"horizons-task","trial_index":45,"time_elapsed":725219,"internal_node_id":"0.0-41.0","task_version":"0.2"},{"response_times":[711.9999999995343,466.00000001490116,1440.0000000023283,468.99999998277053,767.9999999818392,172.0000000204891,235.99999997531995,340.00000002561137,206.99999999487773,249.0000000107102],"keys_pressed":["leftarrow","rightarrow","leftarrow","rightarrow","leftarrow","leftarrow","leftarrow","leftarrow","leftarrow","leftarrow"],"horizon":10,"forced_choices":["leftarrow","rightarrow","leftarrow","rightarrow"],"right_color":"lightblue","left_color":"orange","left_mu":40,"right_mu":10,"left_numbers":[50,36,49,31,32,36,36,33,46,36],"right_numbers":[17,6,0,0,12,11,9,0,12,21],"points_earned":324,"phase":"task","trial_type":"horizons-task","trial_index":46,"time_elapsed":731781,"internal_node_id":"0.0-42.0","task_version":"0.2"},{"response_times":[657.0000000065193,503.00000002607703,602.0000000135042,1033.9999999850988,333.9999999734573],"keys_pressed":["leftarrow","rightarrow","leftarrow","leftarrow","rightarrow"],"horizon":5,"forced_choices":["leftarrow","rightarrow","leftarrow","leftarrow"],"right_color":"lightblue","left_color":"orange","left_mu":40,"right_mu":60,"left_numbers":[46,48,40,37,35],"right_numbers":[71,72,57,53,53],"points_earned":248,"phase":"task","trial_type":"horizons-task","trial_index":47,"time_elapsed":736413,"internal_node_id":"0.0-43.0","task_version":"0.2"},{"response_times":[546.0000000311993,364.000000001397,810.9999999869615,1090.0000000256114,453.9999999688007,546.0000000311993,423.9999999990687,936.9999999762513,528.9999999804422,211.99999999953434],"keys_pressed":["leftarrow","rightarrow","leftarrow","leftarrow","rightarrow","rightarrow","leftarrow","leftarrow","rightarrow","rightarrow"],"horizon":10,"forced_choices":["leftarrow","rightarrow","leftarrow","leftarrow"],"right_color":"orange","left_color":"lightblue","left_mu":60,"right_mu":68,"left_numbers":[66,58,70,56,63,44,69,51,54,61],"right_numbers":[68,83,68,65,61,77,65,62,73,64],"points_earned":670,"phase":"task","trial_type":"horizons-task","trial_index":48,"time_elapsed":743827,"internal_node_id":"0.0-44.0","task_version":"0.2"},{"response_times":[849.9999999767169,622.0000000321306,402.99999999115244,1072.9999999748543,1395.0000000186265],"keys_pressed":["rightarrow","rightarrow","leftarrow","leftarrow","rightarrow"],"horizon":5,"forced_choices":["rightarrow","rightarrow","leftarrow","leftarrow"],"right_color":"orange","left_color":"lightblue","left_mu":60,"right_mu":72,"left_numbers":[61,68,65,63,69],"right_numbers":[71,83,55,76,65],"points_earned":347,"phase":"task","trial_type":"horizons-task","trial_index":49,"time_elapsed":749673,"internal_node_id":"0.0-45.0","task_version":"0.2"},{"response_times":[849.0000000456348,480.99999997066334,473.99999998742715,646.0000000079162,411.0000000218861,593.9999999827705,530.0000000279397,1060.9999999869615,186.99999997625127,183.0000000190921],"keys_pressed":["leftarrow","rightarrow","leftarrow","rightarrow","leftarrow","rightarrow","rightarrow","rightarrow","rightarrow","rightarrow"],"horizon":10,"forced_choices":["leftarrow","rightarrow","leftarrow","rightarrow"],"right_color":"orange","left_color":"lightblue","left_mu":60,"right_mu":68,"left_numbers":[57,58,70,57,69,43,56,57,62,54],"right_numbers":[68,60,80,70,78,68,90,69,59,66],"points_earned":678,"phase":"task","trial_type":"horizons-task","trial_index":50,"time_elapsed":756591,"internal_node_id":"0.0-46.0","task_version":"0.2"},{"view_history":"[{\"page_index\":0,\"viewing_time\":13578.000000037719},{\"page_index\":1,\"viewing_time\":4754.999999946449}]","rt":18334.000000031665,"trial_type":"instructions","trial_index":51,"time_elapsed":774926,"internal_node_id":"0.0-47.0","task_version":"0.2"},{"response_times":[1591.0000000149012,751.9999999785796,792.0000000158325,1729.9999999813735,5754.000000015367,449.00000002235174,370.9999999846332,418.99999999441206,419.99999998370185,233.00000000745058],"keys_pressed":["leftarrow","rightarrow","leftarrow","rightarrow","leftarrow","rightarrow","rightarrow","leftarrow","leftarrow","leftarrow"],"horizon":10,"forced_choices":["leftarrow","rightarrow","leftarrow","rightarrow"],"right_color":"lightblue","left_color":"orange","left_mu":40,"right_mu":28,"left_numbers":[31,45,36,42,37,32,46,43,34,30],"right_numbers":[34,19,22,32,19,34,33,37,28,24],"points_earned":329,"phase":"task","trial_type":"horizons-task","trial_index":52,"time_elapsed":788946,"internal_node_id":"0.0-48.0","task_version":"0.2"},{"response_times":[1420.9999999729916,819.0000000176951,576.9999999902211,430.99999998230487,530.0000000279397,429.9999999930151,321.9999999855645,543.9999999944121,547.0000000204891,124.00000001071021],"keys_pressed":["rightarrow","leftarrow","leftarrow","rightarrow","leftarrow","leftarrow","rightarrow","rightarrow","leftarrow","leftarrow"],"horizon":10,"forced_choices":["rightarrow","leftarrow","leftarrow","rightarrow"],"right_color":"orange","left_color":"lightblue","left_mu":40,"right_mu":36,"left_numbers":[31,27,49,41,51,32,41,36,44,37],"right_numbers":[39,34,39,41,38,42,45,23,37,38],"points_earned":388,"phase":"task","trial_type":"horizons-task","trial_index":53,"time_elapsed":796195,"internal_node_id":"0.0-49.0","task_version":"0.2"},{"response_times":[565.0000000023283,1056.0000000405125,638.9999999664724,830.0000000162981,493.0000000167638,452.9999999795109,409.99999997438863,238.0000000121072,214.00000003632158,344.9999999720603],"keys_pressed":["rightarrow","rightarrow","leftarrow","rightarrow","leftarrow","leftarrow","leftarrow","leftarrow","leftarrow","leftarrow"],"horizon":10,"forced_choices":["rightarrow","rightarrow","leftarrow","rightarrow"],"right_color":"orange","left_color":"lightblue","left_mu":60,"right_mu":52,"left_numbers":[53,57,66,57,60,70,52,57,57,47],"right_numbers":[66,36,50,58,61,37,50,36,53,41],"points_earned":569,"phase":"task","trial_type":"horizons-task","trial_index":54,"time_elapsed":802942,"internal_node_id":"0.0-50.0","task_version":"0.2"},{"response_times":[860.99999997532,1270.0000000186265,416.9999999576248,907.0000000065193,288.99999998975545],"keys_pressed":["rightarrow","rightarrow","leftarrow","leftarrow","rightarrow"],"horizon":5,"forced_choices":["rightarrow","rightarrow","leftarrow","leftarrow"],"right_color":"orange","left_color":"lightblue","left_mu":40,"right_mu":20,"left_numbers":[28,55,36,40,45],"right_numbers":[19,11,18,22,18],"points_earned":124,"phase":"task","trial_type":"horizons-task","trial_index":55,"time_elapsed":808190,"internal_node_id":"0.0-51.0","task_version":"0.2"},{"response_times":[1020.0000000186265,742.000000027474,1209.999999962747,514.00000002468,2061.9999999762513,466.00000001490116,228.99999999208376,206.00000000558794,141.00000000325963,210.00000002095476],"keys_pressed":["rightarrow","leftarrow","leftarrow","rightarrow","rightarrow","rightarrow","rightarrow","rightarrow","rightarrow","rightarrow"],"horizon":10,"forced_choices":["rightarrow","leftarrow","leftarrow","rightarrow"],"right_color":"orange","left_color":"lightblue","left_mu":40,"right_mu":48,"left_numbers":[39,31,20,46,45,40,60,35,33,39],"right_numbers":[54,44,52,44,49,54,52,46,45,44],"points_earned":439,"phase":"task","trial_type":"horizons-task","trial_index":56,"time_elapsed":816494,"internal_node_id":"0.0-52.0","task_version":"0.2"},{"response_times":[736.0000000335276,806.9999999715947,619.9999999953434,1309.000000008382,924.9999999883585],"keys_pressed":["leftarrow","leftarrow","rightarrow","leftarrow","rightarrow"],"horizon":5,"forced_choices":["leftarrow","leftarrow","rightarrow","leftarrow"],"right_color":"orange","left_color":"lightblue","left_mu":40,"right_mu":70,"left_numbers":[62,44,25,53,46],"right_numbers":[82,63,71,83,83],"points_earned":313,"phase":"task","trial_type":"horizons-task","trial_index":57,"time_elapsed":822393,"internal_node_id":"0.0-53.0","task_version":"0.2"},{"response_times":[4846.99999995064,510.0000000093132,607.0000000181608,580.0000000162981,1872.9999999632128,505.0000000046566,404.0000000386499,446.9999999855645,455.00000001629815,478.99999999208376],"keys_pressed":["leftarrow","rightarrow","rightarrow","rightarrow","leftarrow","leftarrow","leftarrow","leftarrow","leftarrow","leftarrow"],"horizon":10,"forced_choices":["leftarrow","rightarrow","rightarrow","rightarrow"],"right_color":"lightblue","left_color":"orange","left_mu":60,"right_mu":56,"left_numbers":[65,60,67,59,79,67,72,63,51,40],"right_numbers":[34,50,50,62,50,53,43,51,55,59],"points_earned":599,"phase":"task","trial_type":"horizons-task","trial_index":58,"time_elapsed":834601,"internal_node_id":"0.0-54.0","task_version":"0.2"},{"response_times":[673.9999999990687,620.9999999846332,662.0000000111759,994.0000000060536,631.9999999832362],"keys_pressed":["leftarrow","leftarrow","rightarrow","rightarrow","leftarrow"],"horizon":5,"forced_choices":["leftarrow","leftarrow","rightarrow","rightarrow"],"right_color":"lightblue","left_color":"orange","left_mu":40,"right_mu":32,"left_numbers":[20,45,33,46,41],"right_numbers":[35,32,18,31,35],"points_earned":155,"phase":"task","trial_type":"horizons-task","trial_index":59,"time_elapsed":839686,"internal_node_id":"0.0-55.0","task_version":"0.2"},{"response_times":[818.9999999594875,890.0000000139698,4990.999999979977,1216.0000000149012,1640.0000000139698,374.0000000107102,584.9999999627471,270.00000001862645,147.99999998649582,135.00000000931323],"keys_pressed":["rightarrow","leftarrow","rightarrow","leftarrow","leftarrow","rightarrow","leftarrow","leftarrow","leftarrow","leftarrow"],"horizon":10,"forced_choices":["rightarrow","leftarrow","rightarrow","leftarrow"],"right_color":"lightblue","left_color":"orange","left_mu":60,"right_mu":56,"left_numbers":[60,53,45,56,59,54,65,56,60,67],"right_numbers":[51,59,50,56,60,50,47,51,55,55],"points_earned":567,"phase":"task","trial_type":"horizons-task","trial_index":60,"time_elapsed":852258,"internal_node_id":"0.0-56.0","task_version":"0.2"},{"response_times":[1036.000000021886,682.9999999608845,926.0000000358559,354.99999998137355,797.0000000204891],"keys_pressed":["rightarrow","leftarrow","leftarrow","rightarrow","leftarrow"],"horizon":5,"forced_choices":["rightarrow","leftarrow","leftarrow","rightarrow"],"right_color":"orange","left_color":"lightblue","left_mu":40,"right_mu":36,"left_numbers":[46,34,43,31,24],"right_numbers":[36,46,41,40,31],"points_earned":177,"phase":"task","trial_type":"horizons-task","trial_index":61,"time_elapsed":857557,"internal_node_id":"0.0-57.0","task_version":"0.2"},{"response_times":[917.0000000158325,484.99999998603016,616.9999999692664,847.0000000088476,826.0000000009313,698.000000033062,451.0000000009313,816.9999999809079,462.99999998882413,840.0000000256114],"keys_pressed":["rightarrow","leftarrow","leftarrow","leftarrow","rightarrow","leftarrow","rightarrow","leftarrow","rightarrow","rightarrow"],"horizon":10,"forced_choices":["rightarrow","leftarrow","leftarrow","leftarrow"],"right_color":"orange","left_color":"lightblue","left_mu":40,"right_mu":44,"left_numbers":[39,27,32,36,37,40,52,39,40,42],"right_numbers":[33,41,49,46,40,47,43,41,40,40],"points_earned":370,"phase":"task","trial_type":"horizons-task","trial_index":62,"time_elapsed":866020,"internal_node_id":"0.0-58.0","task_version":"0.2"},{"response_times":[1010.999999998603,776.0000000125729,865.9999999799766,679.0000000037253,658.9999999850988,785.0000000325963,478.99999999208376,598.9999999874271,215.00000002561137,179.99999999301508],"keys_pressed":["leftarrow","leftarrow","rightarrow","leftarrow","leftarrow","leftarrow","rightarrow","rightarrow","rightarrow","rightarrow"],"horizon":10,"forced_choices":["leftarrow","leftarrow","rightarrow","leftarrow"],"right_color":"orange","left_color":"lightblue","left_mu":40,"right_mu":52,"left_numbers":[28,54,39,52,57,39,29,44,23,37],"right_numbers":[48,57,52,42,49,57,68,61,59,64],"points_earned":534,"phase":"task","trial_type":"horizons-task","trial_index":63,"time_elapsed":873772,"internal_node_id":"0.0-59.0","task_version":"0.2"},{"response_times":[640.999999945052,907.0000000065193,460.00000002095476,677.0000000251457,1020.9999999497086],"keys_pressed":["leftarrow","leftarrow","rightarrow","rightarrow","leftarrow"],"horizon":5,"forced_choices":["leftarrow","leftarrow","rightarrow","rightarrow"],"right_color":"lightblue","left_color":"orange","left_mu":60,"right_mu":30,"left_numbers":[55,50,64,72,62],"right_numbers":[28,40,38,31,39],"points_earned":236,"phase":"task","trial_type":"horizons-task","trial_index":64,"time_elapsed":878980,"internal_node_id":"0.0-60.0","task_version":"0.2"},{"response_times":[637.9999999771826,1157.999999995809,540.0000000372529,581.9999999948777,1487.9999999538995,426.0000000358559,533.9999999850988,216.00000001490116,189.00000001303852,197.9999999748543],"keys_pressed":["leftarrow","leftarrow","rightarrow","rightarrow","leftarrow","leftarrow","leftarrow","leftarrow","leftarrow","leftarrow"],"horizon":10,"forced_choices":["leftarrow","leftarrow","rightarrow","rightarrow"],"right_color":"lightblue","left_color":"orange","left_mu":60,"right_mu":30,"left_numbers":[63,58,61,63,64,65,62,52,63,68],"right_numbers":[32,23,40,16,42,24,37,25,23,29],"points_earned":551,"phase":"task","trial_type":"horizons-task","trial_index":65,"time_elapsed":886451,"internal_node_id":"0.0-61.0","task_version":"0.2"},{"response_times":[752.0000000367872,375,570.9999999962747,723.9999999874271,1446.9999999855645,470.000000030268,585.9999999520369,768.0000000400469,640.0000000139698,226.99999995529652],"keys_pressed":["rightarrow","leftarrow","rightarrow","rightarrow","leftarrow","leftarrow","rightarrow","leftarrow","leftarrow","leftarrow"],"horizon":10,"forced_choices":["rightarrow","leftarrow","rightarrow","rightarrow"],"right_color":"orange","left_color":"lightblue","left_mu":40,"right_mu":20,"left_numbers":[43,34,55,32,55,26,24,48,24,40],"right_numbers":[13,35,24,32,18,21,25,9,27,13],"points_earned":321,"phase":"task","trial_type":"horizons-task","trial_index":66,"time_elapsed":894513,"internal_node_id":"0.0-62.0","task_version":"0.2"},{"response_times":[4014.999999955762,668.0000000051223,782.0000000065193,1326.0000000009313,489.9999999906868],"keys_pressed":["leftarrow","rightarrow","leftarrow","rightarrow","leftarrow"],"horizon":5,"forced_choices":["leftarrow","rightarrow","leftarrow","rightarrow"],"right_color":"lightblue","left_color":"orange","left_mu":40,"right_mu":28,"left_numbers":[32,42,45,41,40],"right_numbers":[34,29,25,33,24],"points_earned":179,"phase":"task","trial_type":"horizons-task","trial_index":67,"time_elapsed":903295,"internal_node_id":"0.0-63.0","task_version":"0.2"},{"response_times":[2925.9999999776483,1079.0000000270084,1025.9999999543652,1340.0000000256114,570.0000000069849],"keys_pressed":["rightarrow","leftarrow","rightarrow","leftarrow","rightarrow"],"horizon":5,"forced_choices":["rightarrow","leftarrow","rightarrow","leftarrow"],"right_color":"orange","left_color":"lightblue","left_mu":40,"right_mu":52,"left_numbers":[45,39,30,37,34],"right_numbers":[41,60,43,31,37],"points_earned":197,"phase":"task","trial_type":"horizons-task","trial_index":68,"time_elapsed":911738,"internal_node_id":"0.0-64.0","task_version":"0.2"},{"response_times":[622.0000000321306,576.0000000009313,1134.0000000200234,1841.9999999459833,1044.0000000526197],"keys_pressed":["rightarrow","rightarrow","leftarrow","rightarrow","rightarrow"],"horizon":5,"forced_choices":["rightarrow","rightarrow","leftarrow","rightarrow"],"right_color":"lightblue","left_color":"orange","left_mu":60,"right_mu":48,"left_numbers":[55,52,51,63,66],"right_numbers":[47,31,46,59,50],"points_earned":238,"phase":"task","trial_type":"horizons-task","trial_index":69,"time_elapsed":918458,"internal_node_id":"0.0-65.0","task_version":"0.2"},{"response_times":[801.999999966938,1860.0000000442378,1420.9999999729916,816.9999999809079,630.9999999939464],"keys_pressed":["rightarrow","leftarrow","rightarrow","leftarrow","rightarrow"],"horizon":5,"forced_choices":["rightarrow","leftarrow","rightarrow","leftarrow"],"right_color":"lightblue","left_color":"orange","left_mu":60,"right_mu":56,"left_numbers":[64,57,51,51,52],"right_numbers":[63,58,49,48,55],"points_earned":275,"phase":"task","trial_type":"horizons-task","trial_index":70,"time_elapsed":925491,"internal_node_id":"0.0-66.0","task_version":"0.2"},{"response_times":[1354.9999999813735,700.0000000116415,1213.999999978114,1093.0000000516884,1625],"keys_pressed":["leftarrow","rightarrow","rightarrow","leftarrow","rightarrow"],"horizon":5,"forced_choices":["leftarrow","rightarrow","rightarrow","leftarrow"],"right_color":"lightblue","left_color":"orange","left_mu":40,"right_mu":60,"left_numbers":[27,34,31,39,32],"right_numbers":[51,39,75,55,52],"points_earned":232,"phase":"task","trial_type":"horizons-task","trial_index":71,"time_elapsed":932981,"internal_node_id":"0.0-67.0","task_version":"0.2"},{"response_times":[1086.9999999995343,1661.000000021886,712.9999999888241,565.9999999916181,2063.0000000237487,751.9999999785796,357.0000000181608,436.9999999762513,255.9999999939464,552.0000000251457],"keys_pressed":["rightarrow","rightarrow","leftarrow","leftarrow","rightarrow","rightarrow","leftarrow","leftarrow","leftarrow","rightarrow"],"horizon":10,"forced_choices":["rightarrow","rightarrow","leftarrow","leftarrow"],"right_color":"lightblue","left_color":"orange","left_mu":60,"right_mu":64,"left_numbers":[51,53,57,66,59,63,55,46,52,52],"right_numbers":[68,63,60,74,53,54,69,66,53,82],"points_earned":596,"phase":"task","trial_type":"horizons-task","trial_index":72,"time_elapsed":942927,"internal_node_id":"0.0-68.0","task_version":"0.2"},{"response_times":[1195.9999999962747,645.0000000186265,614.000000001397,762.9999999771826,999.0000000107102,667.0000000158325,815.9999999916181,201.00000000093132,179.0000000037253,121.99999997392297],"keys_pressed":["leftarrow","rightarrow","rightarrow","rightarrow","leftarrow","leftarrow","leftarrow","leftarrow","leftarrow","leftarrow"],"horizon":10,"forced_choices":["leftarrow","rightarrow","rightarrow","rightarrow"],"right_color":"lightblue","left_color":"orange","left_mu":60,"right_mu":30,"left_numbers":[68,68,48,61,63,57,55,64,58,63],"right_numbers":[26,32,22,30,11,26,21,30,31,33],"points_earned":512,"phase":"task","trial_type":"horizons-task","trial_index":73,"time_elapsed":950632,"internal_node_id":"0.0-69.0","task_version":"0.2"},{"response_times":[880.9999999939464,451.9999999902211,375.9999999892898,573.000000033062,549.9999999883585],"keys_pressed":["leftarrow","rightarrow","leftarrow","leftarrow","rightarrow"],"horizon":5,"forced_choices":["leftarrow","rightarrow","leftarrow","leftarrow"],"right_color":"orange","left_color":"lightblue","left_mu":60,"right_mu":68,"left_numbers":[44,61,50,42,52],"right_numbers":[68,77,63,67,55],"points_earned":268,"phase":"task","trial_type":"horizons-task","trial_index":74,"time_elapsed":954966,"internal_node_id":"0.0-70.0","task_version":"0.2"},{"response_times":[1171.0000000311993,1174.9999999883585,1617.000000027474,2002.9999999678694,1484.9999999860302,1290.000000037253,288.99999998975545,212.99999998882413,345.000000030268,434.9999999976717],"keys_pressed":["leftarrow","rightarrow","rightarrow","rightarrow","leftarrow","leftarrow","rightarrow","rightarrow","rightarrow","rightarrow"],"horizon":10,"forced_choices":["leftarrow","rightarrow","rightarrow","rightarrow"],"right_color":"lightblue","left_color":"orange","left_mu":60,"right_mu":90,"left_numbers":[50,42,61,50,65,69,69,46,56,47],"right_numbers":[87,83,78,85,86,86,85,71,89,79],"points_earned":754,"phase":"task","trial_type":"horizons-task","trial_index":75,"time_elapsed":966491,"internal_node_id":"0.0-71.0","task_version":"0.2"},{"response_times":[746.999999973923,494.0000000060536,629.0000000153668,748.0000000214204,2407.999999995809],"keys_pressed":["leftarrow","rightarrow","rightarrow","rightarrow","rightarrow"],"horizon":5,"forced_choices":["leftarrow","rightarrow","rightarrow","rightarrow"],"right_color":"lightblue","left_color":"orange","left_mu":60,"right_mu":90,"left_numbers":[56,55,59,69,45],"right_numbers":[87,98,101,102,87],"points_earned":444,"phase":"task","trial_type":"horizons-task","trial_index":76,"time_elapsed":973020,"internal_node_id":"0.0-72.0","task_version":"0.2"},{"response_times":[1149.0000000339933,486.99999996460974,579.0000000270084,549.9999999883585,3266.9999999925494],"keys_pressed":["leftarrow","rightarrow","rightarrow","leftarrow","leftarrow"],"horizon":5,"forced_choices":["leftarrow","rightarrow","rightarrow","leftarrow"],"right_color":"orange","left_color":"lightblue","left_mu":60,"right_mu":40,"left_numbers":[54,69,65,53,51],"right_numbers":[53,32,44,31,36],"points_earned":234,"phase":"task","trial_type":"horizons-task","trial_index":77,"time_elapsed":980555,"internal_node_id":"0.0-73.0","task_version":"0.2"},{"response_times":[690.9999999916181,480.99999997066334,819.0000000176951,706.0000000055879,548.9999999990687,387.9999999771826,302.0000000251457,491.99999996926636,262.00000004610047,222.99999999813735],"keys_pressed":["rightarrow","leftarrow","leftarrow","leftarrow","rightarrow","rightarrow","rightarrow","rightarrow","rightarrow","rightarrow"],"horizon":10,"forced_choices":["rightarrow","leftarrow","leftarrow","leftarrow"],"right_color":"lightblue","left_color":"orange","left_mu":60,"right_mu":64,"left_numbers":[58,49,72,48,55,58,66,54,72,55],"right_numbers":[55,53,67,77,72,59,70,65,66,54],"points_earned":610,"phase":"task","trial_type":"horizons-task","trial_index":78,"time_elapsed":986970,"internal_node_id":"0.0-74.0","task_version":"0.2"},{"response_times":[619.0000000060536,573.9999999641441,1204.0000000270084,748.0000000214204,2307.9999999608845],"keys_pressed":["leftarrow","leftarrow","leftarrow","rightarrow","rightarrow"],"horizon":5,"forced_choices":["leftarrow","leftarrow","leftarrow","rightarrow"],"right_color":"orange","left_color":"lightblue","left_mu":60,"right_mu":72,"left_numbers":[55,64,68,66,70],"right_numbers":[60,70,86,66,82],"points_earned":335,"phase":"task","trial_type":"horizons-task","trial_index":79,"time_elapsed":993925,"internal_node_id":"0.0-75.0","task_version":"0.2"},{"response_times":[914.9999999790452,470.000000030268,699.9999999534339,1062.000000034459,546.9999999622814],"keys_pressed":["rightarrow","leftarrow","leftarrow","leftarrow","rightarrow"],"horizon":5,"forced_choices":["rightarrow","leftarrow","leftarrow","leftarrow"],"right_color":"orange","left_color":"lightblue","left_mu":40,"right_mu":48,"left_numbers":[49,41,19,37,28],"right_numbers":[63,41,51,43,45],"points_earned":205,"phase":"task","trial_type":"horizons-task","trial_index":80,"time_elapsed":999121,"internal_node_id":"0.0-76.0","task_version":"0.2"},{"response_times":[685.9999999869615,526.0000000125729,1000,833.9999999734573,2249.00000001071],"keys_pressed":["rightarrow","leftarrow","leftarrow","leftarrow","leftarrow"],"horizon":5,"forced_choices":["rightarrow","leftarrow","leftarrow","leftarrow"],"right_color":"orange","left_color":"lightblue","left_mu":40,"right_mu":44,"left_numbers":[29,47,35,42,34],"right_numbers":[37,42,42,51,35],"points_earned":195,"phase":"task","trial_type":"horizons-task","trial_index":81,"time_elapsed":1005919,"internal_node_id":"0.0-77.0","task_version":"0.2"},{"response_times":[750,543.9999999944121,641.9999999925494,663.9999999897555,551.0000000358559],"keys_pressed":["leftarrow","leftarrow","rightarrow","leftarrow","rightarrow"],"horizon":5,"forced_choices":["leftarrow","leftarrow","rightarrow","leftarrow"],"right_color":"orange","left_color":"lightblue","left_mu":40,"right_mu":52,"left_numbers":[31,46,35,41,36],"right_numbers":[52,52,51,56,55],"points_earned":224,"phase":"task","trial_type":"horizons-task","trial_index":82,"time_elapsed":1010574,"internal_node_id":"0.0-78.0","task_version":"0.2"},{"response_times":[660.0000000325963,416.9999999576248,643.0000000400469,517.9999999818392,1299.9999999883585,848.9999999874271,619.0000000060536,450.00000001164153,391.00000000325963,452.9999999795109],"keys_pressed":["leftarrow","leftarrow","leftarrow","rightarrow","rightarrow","leftarrow","leftarrow","leftarrow","rightarrow","rightarrow"],"horizon":10,"forced_choices":["leftarrow","leftarrow","leftarrow","rightarrow"],"right_color":"orange","left_color":"lightblue","left_mu":60,"right_mu":72,"left_numbers":[54,78,58,63,65,62,57,73,73,59],"right_numbers":[76,65,61,66,62,66,82,68,62,64],"points_earned":636,"phase":"task","trial_type":"horizons-task","trial_index":83,"time_elapsed":1018378,"internal_node_id":"0.0-79.0","task_version":"0.2"},{"response_times":[983.9999999967404,711.0000000102445,384.00000002002344,1041.9999999576248,505.0000000046566,770.0000000186265,277.99999999115244,235.99999997531995,291.0000000265427,174.99999998835847],"keys_pressed":["rightarrow","leftarrow","rightarrow","leftarrow","rightarrow","leftarrow","leftarrow","leftarrow","leftarrow","leftarrow"],"horizon":10,"forced_choices":["rightarrow","leftarrow","rightarrow","leftarrow"],"right_color":"lightblue","left_color":"orange","left_mu":60,"right_mu":48,"left_numbers":[51,63,59,61,67,73,60,66,68,58],"right_numbers":[36,43,42,48,40,68,51,41,52,42],"points_earned":567,"phase":"task","trial_type":"horizons-task","trial_index":84,"time_elapsed":1025257,"internal_node_id":"0.0-80.0","task_version":"0.2"},{"response_times":[702.9999999795109,517.9999999818392,752.0000000367872,843.9999999827705,2313.0000000237487,1264.9999999557622,1279.00000003865,631.9999999832362,193.00000002840534,159.99999997438863],"keys_pressed":["leftarrow","leftarrow","rightarrow","leftarrow","leftarrow","leftarrow","rightarrow","leftarrow","leftarrow","leftarrow"],"horizon":10,"forced_choices":["leftarrow","leftarrow","rightarrow","leftarrow"],"right_color":"orange","left_color":"lightblue","left_mu":60,"right_mu":40,"left_numbers":[55,64,52,49,47,67,65,65,60,58],"right_numbers":[40,38,34,53,29,20,38,44,32,38],"points_earned":537,"phase":"task","trial_type":"horizons-task","trial_index":85,"time_elapsed":1035419,"internal_node_id":"0.0-81.0","task_version":"0.2"},{"response_times":[918.9999999944121,615.9999999799766,586.9999999995343,1293.0000000051223,406.00000001722947,413.99999998975545,364.9999999906868,441.9999999809079,1035.0000000325963,235.99999997531995],"keys_pressed":["leftarrow","rightarrow","rightarrow","leftarrow","leftarrow","rightarrow","rightarrow","leftarrow","rightarrow","rightarrow"],"horizon":10,"forced_choices":["leftarrow","rightarrow","rightarrow","leftarrow"],"right_color":"orange","left_color":"lightblue","left_mu":40,"right_mu":44,"left_numbers":[51,33,44,45,39,41,36,35,39,51],"right_numbers":[34,45,34,40,51,43,51,39,50,48],"points_earned":441,"phase":"task","trial_type":"horizons-task","trial_index":86,"time_elapsed":1043234,"internal_node_id":"0.0-82.0","task_version":"0.2"},{"response_times":[1433.000000019092,469.9999999720603,532.0000000065193,736.0000000335276,1421.9999999622814,1329.0000000270084,343.99999998277053,788.9999999897555,123.00000002142042,212.99999998882413],"keys_pressed":["rightarrow","leftarrow","rightarrow","rightarrow","leftarrow","rightarrow","rightarrow","leftarrow","leftarrow","leftarrow"],"horizon":10,"forced_choices":["rightarrow","leftarrow","rightarrow","rightarrow"],"right_color":"lightblue","left_color":"orange","left_mu":40,"right_mu":32,"left_numbers":[42,33,55,43,41,30,37,36,40,32],"right_numbers":[31,22,43,42,32,28,19,43,25,22],"points_earned":345,"phase":"task","trial_type":"horizons-task","trial_index":87,"time_elapsed":1052126,"internal_node_id":"0.0-83.0","task_version":"0.2"},{"response_times":[1132.999999972526,1315.0000000023283,611.0000000335276,576.9999999902211,653.9999999804422,690.9999999916181,347.00000000884756,407.00000000651926,166.0000000265427,148.9999999757856],"keys_pressed":["leftarrow","leftarrow","rightarrow","rightarrow","rightarrow","leftarrow","leftarrow","leftarrow","leftarrow","leftarrow"],"horizon":10,"forced_choices":["leftarrow","leftarrow","rightarrow","rightarrow"],"right_color":"lightblue","left_color":"orange","left_mu":40,"right_mu":32,"left_numbers":[38,40,38,44,44,51,47,44,40,39],"right_numbers":[32,40,31,34,25,28,39,25,39,32],"points_earned":389,"phase":"task","trial_type":"horizons-task","trial_index":88,"time_elapsed":1059679,"internal_node_id":"0.0-84.0","task_version":"0.2"},{"response_times":[1177.0000000251457,951.9999999902211,673.9999999990687,480.0000000395812,1343.9999999827705],"keys_pressed":["rightarrow","leftarrow","leftarrow","leftarrow","rightarrow"],"horizon":5,"forced_choices":["rightarrow","leftarrow","leftarrow","leftarrow"],"right_color":"lightblue","left_color":"orange","left_mu":60,"right_mu":64,"left_numbers":[65,51,56,57,53],"right_numbers":[63,71,69,64,62],"points_earned":289,"phase":"task","trial_type":"horizons-task","trial_index":89,"time_elapsed":1065809,"internal_node_id":"0.0-85.0","task_version":"0.2"},{"response_times":[1033.9999999850988,520.0000000186265,452.9999999795109,994.0000000060536,628.000000026077,995.9999999846332,396.99999999720603,241.00000003818423,198.99999996414408,365.99999997997656],"keys_pressed":["rightarrow","leftarrow","rightarrow","leftarrow","rightarrow","leftarrow","rightarrow","rightarrow","rightarrow","rightarrow"],"horizon":10,"forced_choices":["rightarrow","leftarrow","rightarrow","leftarrow"],"right_color":"orange","left_color":"lightblue","left_mu":40,"right_mu":52,"left_numbers":[48,48,55,35,49,33,54,45,46,56],"right_numbers":[47,54,67,55,49,49,46,54,51,48],"points_earned":478,"phase":"task","trial_type":"horizons-task","trial_index":90,"time_elapsed":1073138,"internal_node_id":"0.0-86.0","task_version":"0.2"},{"response_times":[1933.000000019092,3169.999999983702,1608.0000000074506,614.000000001397,1622.9999999632128],"keys_pressed":["rightarrow","rightarrow","rightarrow","leftarrow","leftarrow"],"horizon":5,"forced_choices":["rightarrow","rightarrow","rightarrow","leftarrow"],"right_color":"orange","left_color":"lightblue","left_mu":40,"right_mu":36,"left_numbers":[45,48,23,38,31],"right_numbers":[44,31,42,47,29],"points_earned":186,"phase":"task","trial_type":"horizons-task","trial_index":91,"time_elapsed":1083588,"internal_node_id":"0.0-87.0","task_version":"0.2"},{"rt":28136.999999987893,"responses":{"age":"19","gender-categorical":"Male","gender-free-response":"","ethnicity":"Not Hispanic or Latino","race":["White"],"language":"Yes","fluency":"Very well"},"survey":"demographics","trial_type":"survey-demo","trial_index":92,"time_elapsed":1111730,"internal_node_id":"0.0-88.0","task_version":"0.2"},{"rt":34446.999999985565,"responses":{"difficulty":"5","fun":"5","clarity":"4","strategy":"I tried to keep track in my head.","feedback":"great survey"},"survey":"debrief","trial_type":"survey-debrief","trial_index":93,"time_elapsed":1146181,"internal_node_id":"0.0-89.0","task_version":"0.2","interactions":"[]"}]