[{"view_history":"[{\"page_index\":0,\"viewing_time\":696346}]","rt":696346,"trial_type":"instructions","trial_index":0,"time_elapsed":696348,"internal_node_id":"0.0-0.0","task_version":"0.2"},{"item_order":[1,14,8,15,9,5,10,11,7,0,2,13,3,4,12,6],"responses":{"Q02":"1","Q15":"1","Q09":"0","Q16":"5","Q10":"4","Q06":"4","Q11":"1","Q12":"5","Q08":"4","Q01":"4","Q03":"5","Q14":"4","Q04":"4","Q05":"0","Q13":"4","Q07":"5"},"radio_events":[5585,15137,20322,25818,29618,34850,41370,53009,61218,65810,68898,75242,80138,84170,95154,98098,104074,104722],"key_events":[],"mouse_events":[0,5585,9441,15137,20322,25818,29618,34850,41370,53009,61218,65810,68898,75242,80138,84170,95154,98098,100226,103281,104074,104722,105837],"rt":105837,"survey":"nfc","trial_type":"survey-template","trial_index":1,"time_elapsed":802192,"internal_node_id":"0.0-1.0","task_version":"0.2"},{"item_order":[1,8,0,12,10,5,2,9,3,6,11,7,4],"responses":{"Q02":"1","Q09":"0","Q01":"1","Q13":"4","Q11":"4","Q06":"2","Q03":"3","Q10":"1","Q04":"1","Q07":"2","Q12":"1","Q08":"3","Q05":"3"},"radio_events":[21248,27720,65872,70488,75696,85592,91408,97151,103449,109776,126128,128008,158057],"key_events":[],"mouse_events":[18240,21248,26864,27720,65872,69056,70488,75696,83944,85024,85592,91408,97151,103449,109776,122288,126128,128008,158057,158673],"rt":158673,"survey":"ius12","trial_type":"survey-template","trial_index":2,"time_elapsed":960870,"internal_node_id":"0.0-2.0","task_version":"0.2"},{"item_order":[14,16,1,12,0,11,10,8,2,6,7,15,3,9,4,13,5],"responses":{"Q15":"3","Q17":"1","Q02":"4","Q13":"3","Q01":"3","Q12":"0","Q11":"4","Q09":"0","Q03":"3","Q07":"3","Q08":"0","Q16":"4","Q04":"1","Q10":"4","Q05":"4","Q14":"1","Q06":"4"},"radio_events":[5411,11276,13652,15547,23011,58731,68147,69051,78419,84858,89755,96931,101691,110771,121066,133531,153995,162731],"key_events":[],"mouse_events":[5411,11276,13652,15547,23011,58731,62443,64531,66195,67467,68147,69051,78419,84219,84858,89755,95963,96931,101691,110771,121066,133531,153995,162731,163331],"rt":163331,"survey":"pswq","trial_type":"survey-template","trial_index":3,"time_elapsed":1124206,"internal_node_id":"0.0-3.0","task_version":"0.2"},{"view_history":"[{\"page_index\":0,\"viewing_time\":4724},{\"page_index\":1,\"viewing_time\":6856},{\"page_index\":2,\"viewing_time\":53312},{\"page_index\":3,\"viewing_time\":8368},{\"page_index\":4,\"viewing_time\":10344},{\"page_index\":5,\"viewing_time\":19120},{\"page_index\":6,\"viewing_time\":8224},{\"page_index\":7,\"viewing_time\":9592},{\"page_index\":8,\"viewing_time\":7264},{\"page_index\":9,\"viewing_time\":50656}]","rt":178460,"trial_type":"instructions","trial_index":4,"time_elapsed":1302668,"internal_node_id":"0.0-4.0-0.0","task_version":"0.2"},{"response_times":[2486,2205,935,1504,45450],"keys_pressed":["rightarrow","leftarrow","rightarrow","rightarrow","rightarrow"],"horizon":5,"forced_choices":["rightarrow","leftarrow","rightarrow","rightarrow"],"right_color":"lightblue","left_color":"orange","left_mu":40,"right_mu":20,"left_numbers":[60,52,40,48,48],"right_numbers":[10,11,18,32,7],"points_earned":119,"phase":"practice","trial_type":"horizons-task","trial_index":5,"time_elapsed":1356777,"internal_node_id":"0.0-4.0-1.0","task_version":"0.2"},{"response_times":[2207,1160,528,583,4776,3033,904,1296,1143,505],"keys_pressed":["leftarrow","leftarrow","rightarrow","rightarrow","rightarrow","rightarrow","rightarrow","rightarrow","rightarrow","rightarrow"],"horizon":10,"forced_choices":["leftarrow","leftarrow","rightarrow","rightarrow"],"right_color":"orange","left_color":"lightblue","left_mu":60,"right_mu":70,"left_numbers":[66,59,61,59,46,57,50,66,63,55],"right_numbers":[64,64,58,80,70,88,64,49,72,68],"points_earned":674,"phase":"practice","trial_type":"horizons-task","trial_index":6,"time_elapsed":1374416,"internal_node_id":"0.0-4.0-2.0","task_version":"0.2"},{"view_history":"[{\"page_index\":0,\"viewing_time\":2203},{\"page_index\":1,\"viewing_time\":3216},{\"page_index\":2,\"viewing_time\":4919},{\"page_index\":3,\"viewing_time\":4401}]","rt":14739,"trial_type":"instructions","trial_index":7,"time_elapsed":1389155,"internal_node_id":"0.0-4.0-3.0","task_version":"0.2"},{"responses":["true","false","true"],"num_errors":0,"rt":58519,"trial_type":"horizons-comprehension","trial_index":8,"time_elapsed":1447677,"internal_node_id":"0.0-4.0-4.0","task_version":"0.2"},{"trial_type":"call-function","trial_index":9,"time_elapsed":1447678,"internal_node_id":"0.0-5.0","task_version":"0.2"},{"view_history":"[{\"page_index\":0,\"viewing_time\":2246},{\"page_index\":1,\"viewing_time\":2328}]","rt":4574,"trial_type":"instructions","trial_index":10,"time_elapsed":1452251,"internal_node_id":"0.0-6.0","task_version":"0.2"},{"response_times":[1657,1176,504,3217,5584],"keys_pressed":["leftarrow","rightarrow","rightarrow","leftarrow","leftarrow"],"horizon":5,"forced_choices":["leftarrow","rightarrow","rightarrow","leftarrow"],"right_color":"orange","left_color":"lightblue","left_mu":40,"right_mu":36,"left_numbers":[38,44,39,46,38],"right_numbers":[52,28,30,47,28],"points_earned":180,"phase":"task","trial_type":"horizons-task","trial_index":11,"time_elapsed":1465896,"internal_node_id":"0.0-7.0","task_version":"0.2"},{"response_times":[881,496,584,735,2577,928,1815,1337,976,728],"keys_pressed":["rightarrow","leftarrow","leftarrow","leftarrow","leftarrow","leftarrow","leftarrow","leftarrow","leftarrow","leftarrow"],"horizon":10,"forced_choices":["rightarrow","leftarrow","leftarrow","leftarrow"],"right_color":"orange","left_color":"lightblue","left_mu":60,"right_mu":52,"left_numbers":[70,69,60,52,64,62,59,63,57,48],"right_numbers":[52,46,41,52,42,53,46,63,66,46],"points_earned":586,"phase":"task","trial_type":"horizons-task","trial_index":12,"time_elapsed":1478455,"internal_node_id":"0.0-8.0","task_version":"0.2"},{"response_times":[867,463,784,1008,1584],"keys_pressed":["leftarrow","leftarrow","leftarrow","rightarrow","leftarrow"],"horizon":5,"forced_choices":["leftarrow","leftarrow","leftarrow","rightarrow"],"right_color":"orange","left_color":"lightblue","left_mu":40,"right_mu":32,"left_numbers":[33,31,40,48,47],"right_numbers":[49,41,49,41,31],"points_earned":192,"phase":"task","trial_type":"horizons-task","trial_index":13,"time_elapsed":1484664,"internal_node_id":"0.0-9.0","task_version":"0.2"},{"response_times":[730,776,776,960,2152,1329,774,1016,1200,1792],"keys_pressed":["rightarrow","leftarrow","rightarrow","rightarrow","rightarrow","rightarrow","rightarrow","rightarrow","rightarrow","rightarrow"],"horizon":10,"forced_choices":["rightarrow","leftarrow","rightarrow","rightarrow"],"right_color":"orange","left_color":"lightblue","left_mu":60,"right_mu":56,"left_numbers":[54,56,42,62,52,52,69,60,46,62],"right_numbers":[61,66,54,57,50,55,52,42,57,47],"points_earned":531,"phase":"task","trial_type":"horizons-task","trial_index":14,"time_elapsed":1497672,"internal_node_id":"0.0-10.0","task_version":"0.2"},{"response_times":[906,1198,783,1761,1224],"keys_pressed":["leftarrow","leftarrow","rightarrow","leftarrow","leftarrow"],"horizon":5,"forced_choices":["leftarrow","leftarrow","rightarrow","leftarrow"],"right_color":"lightblue","left_color":"orange","left_mu":60,"right_mu":80,"left_numbers":[64,62,45,83,66],"right_numbers":[86,72,83,78,64],"points_earned":358,"phase":"task","trial_type":"horizons-task","trial_index":15,"time_elapsed":1505048,"internal_node_id":"0.0-11.0","task_version":"0.2"},{"response_times":[899,976,407,872,1889,975,769,1329,1031,983],"keys_pressed":["rightarrow","leftarrow","rightarrow","leftarrow","leftarrow","leftarrow","leftarrow","leftarrow","leftarrow","leftarrow"],"horizon":10,"forced_choices":["rightarrow","leftarrow","rightarrow","leftarrow"],"right_color":"orange","left_color":"lightblue","left_mu":40,"right_mu":32,"left_numbers":[32,40,43,35,44,30,47,53,21,42],"right_numbers":[30,40,25,34,28,26,48,35,39,26],"points_earned":367,"phase":"task","trial_type":"horizons-task","trial_index":16,"time_elapsed":1516680,"internal_node_id":"0.0-12.0","task_version":"0.2"},{"response_times":[854,432,488,520,2664],"keys_pressed":["leftarrow","leftarrow","rightarrow","rightarrow","rightarrow"],"horizon":5,"forced_choices":["leftarrow","leftarrow","rightarrow","rightarrow"],"right_color":"lightblue","left_color":"orange","left_mu":60,"right_mu":72,"left_numbers":[65,51,44,70,55],"right_numbers":[70,64,85,62,77],"points_earned":340,"phase":"task","trial_type":"horizons-task","trial_index":17,"time_elapsed":1523144,"internal_node_id":"0.0-13.0","task_version":"0.2"},{"response_times":[577,399,456,854,2840],"keys_pressed":["rightarrow","leftarrow","rightarrow","leftarrow","leftarrow"],"horizon":5,"forced_choices":["rightarrow","leftarrow","rightarrow","leftarrow"],"right_color":"lightblue","left_color":"orange","left_mu":60,"right_mu":30,"left_numbers":[67,70,63,53,46],"right_numbers":[14,28,27,22,29],"points_earned":210,"phase":"task","trial_type":"horizons-task","trial_index":18,"time_elapsed":1529775,"internal_node_id":"0.0-14.0","task_version":"0.2"},{"response_times":[531,383,600,529,1735,1137,679,1040,1129,639],"keys_pressed":["rightarrow","rightarrow","leftarrow","leftarrow","rightarrow","rightarrow","rightarrow","rightarrow","rightarrow","rightarrow"],"horizon":10,"forced_choices":["rightarrow","rightarrow","leftarrow","leftarrow"],"right_color":"orange","left_color":"lightblue","left_mu":60,"right_mu":56,"left_numbers":[58,69,54,62,64,61,52,51,50,60],"right_numbers":[71,61,39,34,57,43,69,64,65,64],"points_earned":610,"phase":"task","trial_type":"horizons-task","trial_index":19,"time_elapsed":1539679,"internal_node_id":"0.0-15.0","task_version":"0.2"},{"response_times":[699,479,616,527,2560,1417,1383,592,568,550],"keys_pressed":["rightarrow","rightarrow","leftarrow","rightarrow","leftarrow","leftarrow","leftarrow","leftarrow","leftarrow","leftarrow"],"horizon":10,"forced_choices":["rightarrow","rightarrow","leftarrow","rightarrow"],"right_color":"lightblue","left_color":"orange","left_mu":40,"right_mu":10,"left_numbers":[54,24,46,41,43,31,34,35,40,37],"right_numbers":[17,15,26,0,13,18,24,11,13,19],"points_earned":298,"phase":"task","trial_type":"horizons-task","trial_index":20,"time_elapsed":1550576,"internal_node_id":"0.0-16.0","task_version":"0.2"},{"response_times":[706,361,743,904,1472],"keys_pressed":["leftarrow","rightarrow","rightarrow","rightarrow","rightarrow"],"horizon":5,"forced_choices":["leftarrow","rightarrow","rightarrow","rightarrow"],"right_color":"lightblue","left_color":"orange","left_mu":40,"right_mu":70,"left_numbers":[34,35,34,41,44],"right_numbers":[67,74,71,55,69],"points_earned":303,"phase":"task","trial_type":"horizons-task","trial_index":21,"time_elapsed":1556264,"internal_node_id":"0.0-17.0","task_version":"0.2"},{"response_times":[553,640,504,1808,2521],"keys_pressed":["rightarrow","leftarrow","leftarrow","rightarrow","leftarrow"],"horizon":5,"forced_choices":["rightarrow","leftarrow","leftarrow","rightarrow"],"right_color":"orange","left_color":"lightblue","left_mu":60,"right_mu":64,"left_numbers":[51,67,56,64,71],"right_numbers":[61,64,59,56,64],"points_earned":311,"phase":"task","trial_type":"horizons-task","trial_index":22,"time_elapsed":1563792,"internal_node_id":"0.0-18.0","task_version":"0.2"},{"response_times":[723,441,432,623,1999,593,519,417,504,472],"keys_pressed":["rightarrow","leftarrow","rightarrow","leftarrow","leftarrow","leftarrow","leftarrow","leftarrow","leftarrow","leftarrow"],"horizon":10,"forced_choices":["rightarrow","leftarrow","rightarrow","leftarrow"],"right_color":"lightblue","left_color":"orange","left_mu":40,"right_mu":10,"left_numbers":[40,44,42,42,41,30,58,36,42,33],"right_numbers":[5,23,0,5,10,10,12,11,8,4],"points_earned":331,"phase":"task","trial_type":"horizons-task","trial_index":23,"time_elapsed":1572015,"internal_node_id":"0.0-19.0","task_version":"0.2"},{"response_times":[496,456,1200,1009,1783],"keys_pressed":["rightarrow","leftarrow","leftarrow","leftarrow","leftarrow"],"horizon":5,"forced_choices":["rightarrow","leftarrow","leftarrow","leftarrow"],"right_color":"lightblue","left_color":"orange","left_mu":60,"right_mu":72,"left_numbers":[69,61,63,48,54],"right_numbers":[75,81,65,69,72],"points_earned":301,"phase":"task","trial_type":"horizons-task","trial_index":24,"time_elapsed":1578463,"internal_node_id":"0.0-20.0","task_version":"0.2"},{"response_times":[2929,448,5129,400,391,2208,520,441,335,440],"keys_pressed":["leftarrow","rightarrow","rightarrow","rightarrow","rightarrow","rightarrow","rightarrow","rightarrow","rightarrow","rightarrow"],"horizon":10,"forced_choices":["leftarrow","rightarrow","rightarrow","rightarrow"],"right_color":"lightblue","left_color":"orange","left_mu":40,"right_mu":60,"left_numbers":[46,37,26,36,43,34,37,41,40,31],"right_numbers":[53,65,62,57,68,64,69,74,58,56],"points_earned":619,"phase":"task","trial_type":"horizons-task","trial_index":25,"time_elapsed":1593213,"internal_node_id":"0.0-21.0","task_version":"0.2"},{"response_times":[1925,384,456,847,2392,688,831,432,496,520],"keys_pressed":["rightarrow","leftarrow","leftarrow","rightarrow","rightarrow","rightarrow","rightarrow","rightarrow","rightarrow","rightarrow"],"horizon":10,"forced_choices":["rightarrow","leftarrow","leftarrow","rightarrow"],"right_color":"lightblue","left_color":"orange","left_mu":40,"right_mu":48,"left_numbers":[46,40,32,38,25,52,32,35,31,48],"right_numbers":[48,48,60,42,54,44,61,47,53,42],"points_earned":463,"phase":"task","trial_type":"horizons-task","trial_index":26,"time_elapsed":1603689,"internal_node_id":"0.0-22.0","task_version":"0.2"},{"response_times":[648,441,463,872,13385,615,320,201,687,384],"keys_pressed":["leftarrow","leftarrow","rightarrow","rightarrow","rightarrow","rightarrow","rightarrow","rightarrow","rightarrow","rightarrow"],"horizon":10,"forced_choices":["leftarrow","leftarrow","rightarrow","rightarrow"],"right_color":"lightblue","left_color":"orange","left_mu":60,"right_mu":72,"left_numbers":[61,63,57,56,44,62,45,71,68,62],"right_numbers":[59,61,54,83,64,73,73,79,78,73],"points_earned":701,"phase":"task","trial_type":"horizons-task","trial_index":27,"time_elapsed":1623209,"internal_node_id":"0.0-23.0","task_version":"0.2"},{"response_times":[1353,584,1153,2504,1463],"keys_pressed":["leftarrow","rightarrow","leftarrow","leftarrow","leftarrow"],"horizon":5,"forced_choices":["leftarrow","rightarrow","leftarrow","leftarrow"],"right_color":"lightblue","left_color":"orange","left_mu":60,"right_mu":30,"left_numbers":[47,66,59,66,65],"right_numbers":[26,23,35,40,31],"points_earned":260,"phase":"task","trial_type":"horizons-task","trial_index":28,"time_elapsed":1631767,"internal_node_id":"0.0-24.0","task_version":"0.2"},{"response_times":[787,833,472,623,21289,543,288,296,248,304],"keys_pressed":["leftarrow","rightarrow","rightarrow","rightarrow","rightarrow","rightarrow","rightarrow","rightarrow","rightarrow","rightarrow"],"horizon":10,"forced_choices":["leftarrow","rightarrow","rightarrow","rightarrow"],"right_color":"lightblue","left_color":"orange","left_mu":60,"right_mu":68,"left_numbers":[61,64,61,46,52,59,60,60,61,64],"right_numbers":[78,76,79,53,61,72,68,80,62,69],"points_earned":681,"phase":"task","trial_type":"horizons-task","trial_index":29,"time_elapsed":1658952,"internal_node_id":"0.0-25.0","task_version":"0.2"},{"response_times":[664,336,424,567,4896],"keys_pressed":["leftarrow","rightarrow","leftarrow","rightarrow","leftarrow"],"horizon":5,"forced_choices":["leftarrow","rightarrow","leftarrow","rightarrow"],"right_color":"orange","left_color":"lightblue","left_mu":60,"right_mu":48,"left_numbers":[54,54,53,59,65],"right_numbers":[57,36,38,49,49],"points_earned":257,"phase":"task","trial_type":"horizons-task","trial_index":30,"time_elapsed":1667344,"internal_node_id":"0.0-26.0","task_version":"0.2"},{"response_times":[642,407,592,448,2072,1936,409,295,312,432],"keys_pressed":["leftarrow","leftarrow","rightarrow","leftarrow","leftarrow","leftarrow","leftarrow","leftarrow","leftarrow","leftarrow"],"horizon":10,"forced_choices":["leftarrow","leftarrow","rightarrow","leftarrow"],"right_color":"lightblue","left_color":"orange","left_mu":40,"right_mu":20,"left_numbers":[45,42,17,33,39,44,32,25,45,41],"right_numbers":[26,22,24,29,12,25,9,26,0,27],"points_earned":370,"phase":"task","trial_type":"horizons-task","trial_index":31,"time_elapsed":1676393,"internal_node_id":"0.0-27.0","task_version":"0.2"},{"response_times":[624,1376,425,375,1392,3833,287,224,432,272],"keys_pressed":["leftarrow","rightarrow","rightarrow","rightarrow","rightarrow","rightarrow","rightarrow","rightarrow","rightarrow","rightarrow"],"horizon":10,"forced_choices":["leftarrow","rightarrow","rightarrow","rightarrow"],"right_color":"lightblue","left_color":"orange","left_mu":40,"right_mu":70,"left_numbers":[46,55,26,32,50,43,42,38,46,46],"right_numbers":[76,78,68,82,81,69,81,63,64,64],"points_earned":696,"phase":"task","trial_type":"horizons-task","trial_index":32,"time_elapsed":1687139,"internal_node_id":"0.0-28.0","task_version":"0.2"},{"response_times":[557,432,641,503,1255],"keys_pressed":["rightarrow","rightarrow","leftarrow","rightarrow","rightarrow"],"horizon":5,"forced_choices":["rightarrow","rightarrow","leftarrow","rightarrow"],"right_color":"lightblue","left_color":"orange","left_mu":40,"right_mu":48,"left_numbers":[45,42,53,58,32],"right_numbers":[43,43,45,59,41],"points_earned":239,"phase":"task","trial_type":"horizons-task","trial_index":33,"time_elapsed":1692032,"internal_node_id":"0.0-29.0","task_version":"0.2"},{"response_times":[488,423,1112,1232,1592],"keys_pressed":["rightarrow","leftarrow","leftarrow","leftarrow","leftarrow"],"horizon":5,"forced_choices":["rightarrow","leftarrow","leftarrow","leftarrow"],"right_color":"orange","left_color":"lightblue","left_mu":40,"right_mu":36,"left_numbers":[46,38,42,28,43],"right_numbers":[39,23,38,51,35],"points_earned":190,"phase":"task","trial_type":"horizons-task","trial_index":34,"time_elapsed":1698384,"internal_node_id":"0.0-30.0","task_version":"0.2"},{"response_times":[466,360,688,761,3551],"keys_pressed":["rightarrow","rightarrow","leftarrow","leftarrow","leftarrow"],"horizon":5,"forced_choices":["rightarrow","rightarrow","leftarrow","leftarrow"],"right_color":"orange","left_color":"lightblue","left_mu":60,"right_mu":56,"left_numbers":[57,61,61,62,63],"right_numbers":[58,44,51,49,63],"points_earned":288,"phase":"task","trial_type":"horizons-task","trial_index":35,"time_elapsed":1705710,"internal_node_id":"0.0-31.0","task_version":"0.2"},{"response_times":[611,464,376,431,1840,2177,663,328,360,432],"keys_pressed":["rightarrow","leftarrow","rightarrow","leftarrow","leftarrow","leftarrow","leftarrow","leftarrow","leftarrow","leftarrow"],"horizon":10,"forced_choices":["rightarrow","leftarrow","rightarrow","leftarrow"],"right_color":"lightblue","left_color":"orange","left_mu":60,"right_mu":30,"left_numbers":[70,68,53,51,50,66,59,60,66,58],"right_numbers":[29,26,29,43,33,29,36,16,37,25],"points_earned":536,"phase":"task","trial_type":"horizons-task","trial_index":36,"time_elapsed":1714895,"internal_node_id":"0.0-32.0","task_version":"0.2"},{"response_times":[1431,560,1208,1760,1856,3328,464,672,216,169],"keys_pressed":["leftarrow","leftarrow","rightarrow","rightarrow","leftarrow","leftarrow","leftarrow","leftarrow","leftarrow","leftarrow"],"horizon":10,"forced_choices":["leftarrow","leftarrow","rightarrow","rightarrow"],"right_color":"orange","left_color":"lightblue","left_mu":60,"right_mu":40,"left_numbers":[75,75,66,54,41,57,48,60,47,55],"right_numbers":[44,39,42,38,46,44,40,45,33,52],"points_earned":538,"phase":"task","trial_type":"horizons-task","trial_index":37,"time_elapsed":1728063,"internal_node_id":"0.0-33.0","task_version":"0.2"},{"response_times":[651,1121,480,863,929],"keys_pressed":["leftarrow","rightarrow","rightarrow","rightarrow","rightarrow"],"horizon":5,"forced_choices":["leftarrow","rightarrow","rightarrow","rightarrow"],"right_color":"lightblue","left_color":"orange","left_mu":60,"right_mu":68,"left_numbers":[66,57,54,60,64],"right_numbers":[54,52,72,72,82],"points_earned":344,"phase":"task","trial_type":"horizons-task","trial_index":38,"time_elapsed":1733607,"internal_node_id":"0.0-34.0","task_version":"0.2"},{"response_times":[578,520,856,464,2208],"keys_pressed":["rightarrow","rightarrow","leftarrow","rightarrow","rightarrow"],"horizon":5,"forced_choices":["rightarrow","rightarrow","leftarrow","rightarrow"],"right_color":"lightblue","left_color":"orange","left_mu":40,"right_mu":10,"left_numbers":[45,31,27,26,42],"right_numbers":[0,32,0,8,19],"points_earned":86,"phase":"task","trial_type":"horizons-task","trial_index":39,"time_elapsed":1739735,"internal_node_id":"0.0-35.0","task_version":"0.2"},{"response_times":[546,1935,1040,472,2128],"keys_pressed":["rightarrow","rightarrow","leftarrow","leftarrow","rightarrow"],"horizon":5,"forced_choices":["rightarrow","rightarrow","leftarrow","leftarrow"],"right_color":"lightblue","left_color":"orange","left_mu":60,"right_mu":68,"left_numbers":[60,63,49,57,40],"right_numbers":[67,66,65,70,72],"points_earned":311,"phase":"task","trial_type":"horizons-task","trial_index":40,"time_elapsed":1747360,"internal_node_id":"0.0-36.0","task_version":"0.2"},{"response_times":[616,280,1112,736,1672,1463,624,585,343,416],"keys_pressed":["rightarrow","rightarrow","leftarrow","rightarrow","rightarrow","rightarrow","rightarrow","rightarrow","rightarrow","rightarrow"],"horizon":10,"forced_choices":["rightarrow","rightarrow","leftarrow","rightarrow"],"right_color":"orange","left_color":"lightblue","left_mu":40,"right_mu":44,"left_numbers":[36,44,39,55,62,36,40,35,37,30],"right_numbers":[29,31,51,49,41,55,43,33,41,53],"points_earned":414,"phase":"task","trial_type":"horizons-task","trial_index":41,"time_elapsed":1756712,"internal_node_id":"0.0-37.0","task_version":"0.2"},{"response_times":[548,375,592,1384,1455,952,425,839,416,320],"keys_pressed":["rightarrow","rightarrow","rightarrow","leftarrow","rightarrow","rightarrow","rightarrow","rightarrow","rightarrow","rightarrow"],"horizon":10,"forced_choices":["rightarrow","rightarrow","rightarrow","leftarrow"],"right_color":"orange","left_color":"lightblue","left_mu":60,"right_mu":90,"left_numbers":[58,59,45,56,55,68,60,59,56,58],"right_numbers":[85,81,102,97,86,95,86,92,95,85],"points_earned":863,"phase":"task","trial_type":"horizons-task","trial_index":42,"time_elapsed":1765520,"internal_node_id":"0.0-38.0","task_version":"0.2"},{"response_times":[6258,896,424,568,2304,2089,328,263,185,152],"keys_pressed":["leftarrow","rightarrow","rightarrow","leftarrow","leftarrow","leftarrow","leftarrow","leftarrow","leftarrow","leftarrow"],"horizon":10,"forced_choices":["leftarrow","rightarrow","rightarrow","leftarrow"],"right_color":"orange","left_color":"lightblue","left_mu":40,"right_mu":36,"left_numbers":[39,29,47,53,20,43,35,37,58,36],"right_numbers":[46,23,39,27,32,29,42,50,30,22],"points_earned":383,"phase":"task","trial_type":"horizons-task","trial_index":43,"time_elapsed":1780488,"internal_node_id":"0.0-39.0","task_version":"0.2"},{"response_times":[722,1296,1953,3248,472],"keys_pressed":["rightarrow","leftarrow","rightarrow","leftarrow","rightarrow"],"horizon":5,"forced_choices":["rightarrow","leftarrow","rightarrow","leftarrow"],"right_color":"orange","left_color":"lightblue","left_mu":40,"right_mu":32,"left_numbers":[33,34,44,38,43],"right_numbers":[26,12,37,36,31],"points_earned":166,"phase":"task","trial_type":"horizons-task","trial_index":44,"time_elapsed":1789679,"internal_node_id":"0.0-40.0","task_version":"0.2"},{"response_times":[3089,937,648,895,3352],"keys_pressed":["leftarrow","rightarrow","rightarrow","leftarrow","leftarrow"],"horizon":5,"forced_choices":["leftarrow","rightarrow","rightarrow","leftarrow"],"right_color":"orange","left_color":"lightblue","left_mu":40,"right_mu":44,"left_numbers":[65,45,29,49,26],"right_numbers":[48,47,62,34,44],"points_earned":249,"phase":"task","trial_type":"horizons-task","trial_index":45,"time_elapsed":1800104,"internal_node_id":"0.0-41.0","task_version":"0.2"},{"response_times":[1114,696,431,904,1201],"keys_pressed":["leftarrow","leftarrow","rightarrow","leftarrow","leftarrow"],"horizon":5,"forced_choices":["leftarrow","leftarrow","rightarrow","leftarrow"],"right_color":"lightblue","left_color":"orange","left_mu":40,"right_mu":20,"left_numbers":[34,32,44,43,36],"right_numbers":[23,22,9,17,15],"points_earned":154,"phase":"task","trial_type":"horizons-task","trial_index":46,"time_elapsed":1805952,"internal_node_id":"0.0-42.0","task_version":"0.2"},{"response_times":[633,369,527,504,1392],"keys_pressed":["leftarrow","rightarrow","rightarrow","leftarrow","rightarrow"],"horizon":5,"forced_choices":["leftarrow","rightarrow","rightarrow","leftarrow"],"right_color":"lightblue","left_color":"orange","left_mu":40,"right_mu":60,"left_numbers":[24,43,38,41,49],"right_numbers":[56,56,63,57,69],"points_earned":253,"phase":"task","trial_type":"horizons-task","trial_index":47,"time_elapsed":1810881,"internal_node_id":"0.0-43.0","task_version":"0.2"},{"response_times":[601,937,488,1288,447],"keys_pressed":["leftarrow","leftarrow","leftarrow","rightarrow","leftarrow"],"horizon":5,"forced_choices":["leftarrow","leftarrow","leftarrow","rightarrow"],"right_color":"orange","left_color":"lightblue","left_mu":60,"right_mu":64,"left_numbers":[66,63,54,62,53],"right_numbers":[67,54,67,66,61],"points_earned":302,"phase":"task","trial_type":"horizons-task","trial_index":48,"time_elapsed":1816144,"internal_node_id":"0.0-44.0","task_version":"0.2"},{"response_times":[1945,496,672,1823,3408],"keys_pressed":["leftarrow","rightarrow","leftarrow","rightarrow","rightarrow"],"horizon":5,"forced_choices":["leftarrow","rightarrow","leftarrow","rightarrow"],"right_color":"orange","left_color":"lightblue","left_mu":60,"right_mu":90,"left_numbers":[72,52,49,63,52],"right_numbers":[81,95,88,84,90],"points_earned":390,"phase":"task","trial_type":"horizons-task","trial_index":49,"time_elapsed":1825995,"internal_node_id":"0.0-45.0","task_version":"0.2"},{"response_times":[1053,3224,1024,1600,935],"keys_pressed":["leftarrow","leftarrow","rightarrow","leftarrow","leftarrow"],"horizon":5,"forced_choices":["leftarrow","leftarrow","rightarrow","leftarrow"],"right_color":"orange","left_color":"lightblue","left_mu":60,"right_mu":40,"left_numbers":[59,60,77,72,62],"right_numbers":[44,39,27,34,43],"points_earned":280,"phase":"task","trial_type":"horizons-task","trial_index":50,"time_elapsed":1835336,"internal_node_id":"0.0-46.0","task_version":"0.2"},{"view_history":"[{\"page_index\":0,\"viewing_time\":2729},{\"page_index\":1,\"viewing_time\":1305}]","rt":4034,"trial_type":"instructions","trial_index":51,"time_elapsed":1839371,"internal_node_id":"0.0-47.0","task_version":"0.2"},{"response_times":[2112,287,536,449,3520,1903,776,457,232,271],"keys_pressed":["rightarrow","rightarrow","leftarrow","leftarrow","rightarrow","rightarrow","rightarrow","rightarrow","rightarrow","rightarrow"],"horizon":10,"forced_choices":["rightarrow","rightarrow","leftarrow","leftarrow"],"right_color":"lightblue","left_color":"orange","left_mu":60,"right_mu":68,"left_numbers":[46,55,67,62,65,66,62,56,66,68],"right_numbers":[61,83,82,63,67,72,69,68,69,63],"points_earned":681,"phase":"task","trial_type":"horizons-task","trial_index":52,"time_elapsed":1851423,"internal_node_id":"0.0-48.0","task_version":"0.2"},{"response_times":[868,352,423,1176,912],"keys_pressed":["leftarrow","rightarrow","rightarrow","rightarrow","rightarrow"],"horizon":5,"forced_choices":["leftarrow","rightarrow","rightarrow","rightarrow"],"right_color":"lightblue","left_color":"orange","left_mu":40,"right_mu":60,"left_numbers":[39,44,35,40,36],"right_numbers":[64,62,68,54,58],"points_earned":281,"phase":"task","trial_type":"horizons-task","trial_index":53,"time_elapsed":1856659,"internal_node_id":"0.0-49.0","task_version":"0.2"},{"response_times":[928,519,560,768,1072],"keys_pressed":["leftarrow","leftarrow","rightarrow","rightarrow","rightarrow"],"horizon":5,"forced_choices":["leftarrow","leftarrow","rightarrow","rightarrow"],"right_color":"lightblue","left_color":"orange","left_mu":60,"right_mu":80,"left_numbers":[53,59,61,48,55],"right_numbers":[84,92,77,78,78],"points_earned":345,"phase":"task","trial_type":"horizons-task","trial_index":54,"time_elapsed":1862009,"internal_node_id":"0.0-50.0","task_version":"0.2"},{"response_times":[689,608,296,752,1464],"keys_pressed":["rightarrow","leftarrow","rightarrow","leftarrow","leftarrow"],"horizon":5,"forced_choices":["rightarrow","leftarrow","rightarrow","leftarrow"],"right_color":"lightblue","left_color":"orange","left_mu":40,"right_mu":10,"left_numbers":[25,43,39,45,50],"right_numbers":[12,23,21,0,0],"points_earned":171,"phase":"task","trial_type":"horizons-task","trial_index":55,"time_elapsed":1867321,"internal_node_id":"0.0-51.0","task_version":"0.2"},{"response_times":[504,409,720,1239,857],"keys_pressed":["rightarrow","leftarrow","rightarrow","rightarrow","rightarrow"],"horizon":5,"forced_choices":["rightarrow","leftarrow","rightarrow","rightarrow"],"right_color":"orange","left_color":"lightblue","left_mu":60,"right_mu":56,"left_numbers":[72,67,60,59,55],"right_numbers":[58,61,58,62,58],"points_earned":303,"phase":"task","trial_type":"horizons-task","trial_index":56,"time_elapsed":1872552,"internal_node_id":"0.0-52.0","task_version":"0.2"},{"response_times":[530,1040,712,2368,800,1152,400,288,336,336],"keys_pressed":["rightarrow","leftarrow","leftarrow","leftarrow","leftarrow","leftarrow","leftarrow","leftarrow","leftarrow","leftarrow"],"horizon":10,"forced_choices":["rightarrow","leftarrow","leftarrow","leftarrow"],"right_color":"lightblue","left_color":"orange","left_mu":60,"right_mu":72,"left_numbers":[63,55,51,60,60,65,50,50,65,49],"right_numbers":[70,82,55,75,68,69,71,75,70,62],"points_earned":575,"phase":"task","trial_type":"horizons-task","trial_index":57,"time_elapsed":1882018,"internal_node_id":"0.0-53.0","task_version":"0.2"},{"response_times":[641,3031,400,832,897,1576,464,223,208,184],"keys_pressed":["rightarrow","rightarrow","rightarrow","leftarrow","rightarrow","rightarrow","rightarrow","rightarrow","rightarrow","rightarrow"],"horizon":10,"forced_choices":["rightarrow","rightarrow","rightarrow","leftarrow"],"right_color":"lightblue","left_color":"orange","left_mu":40,"right_mu":52,"left_numbers":[46,56,47,41,34,29,35,41,45,44],"right_numbers":[45,49,42,51,47,51,61,41,33,60],"points_earned":470,"phase":"task","trial_type":"horizons-task","trial_index":58,"time_elapsed":1891977,"internal_node_id":"0.0-54.0","task_version":"0.2"},{"response_times":[689,1200,2897,2383,1145],"keys_pressed":["leftarrow","rightarrow","leftarrow","leftarrow","leftarrow"],"horizon":5,"forced_choices":["leftarrow","rightarrow","leftarrow","leftarrow"],"right_color":"orange","left_color":"lightblue","left_mu":40,"right_mu":28,"left_numbers":[29,24,37,42,42],"right_numbers":[17,30,35,28,38],"points_earned":180,"phase":"task","trial_type":"horizons-task","trial_index":59,"time_elapsed":1901792,"internal_node_id":"0.0-55.0","task_version":"0.2"},{"response_times":[490,680,2527,2233,768],"keys_pressed":["rightarrow","leftarrow","leftarrow","rightarrow","leftarrow"],"horizon":5,"forced_choices":["rightarrow","leftarrow","leftarrow","rightarrow"],"right_color":"lightblue","left_color":"orange","left_mu":40,"right_mu":20,"left_numbers":[44,45,49,44,47],"right_numbers":[25,18,23,21,23],"points_earned":187,"phase":"task","trial_type":"horizons-task","trial_index":60,"time_elapsed":1909997,"internal_node_id":"0.0-56.0","task_version":"0.2"},{"response_times":[2022,1303,1224,945,431],"keys_pressed":["rightarrow","leftarrow","leftarrow","rightarrow","leftarrow"],"horizon":5,"forced_choices":["rightarrow","leftarrow","leftarrow","rightarrow"],"right_color":"lightblue","left_color":"orange","left_mu":40,"right_mu":48,"left_numbers":[31,42,43,44,27],"right_numbers":[45,70,46,57,51],"points_earned":214,"phase":"task","trial_type":"horizons-task","trial_index":61,"time_elapsed":1917423,"internal_node_id":"0.0-57.0","task_version":"0.2"},{"response_times":[1570,840,345,424,1727,1008,1528,376,312,209],"keys_pressed":["leftarrow","rightarrow","leftarrow","leftarrow","leftarrow","leftarrow","leftarrow","leftarrow","leftarrow","leftarrow"],"horizon":10,"forced_choices":["leftarrow","rightarrow","leftarrow","leftarrow"],"right_color":"lightblue","left_color":"orange","left_mu":60,"right_mu":30,"left_numbers":[71,55,57,55,60,60,51,65,56,66],"right_numbers":[23,23,23,17,18,37,41,33,23,37],"points_earned":564,"phase":"task","trial_type":"horizons-task","trial_index":62,"time_elapsed":1927264,"internal_node_id":"0.0-58.0","task_version":"0.2"},{"response_times":[578,439,968,2527,1440],"keys_pressed":["rightarrow","leftarrow","leftarrow","rightarrow","rightarrow"],"horizon":5,"forced_choices":["rightarrow","leftarrow","leftarrow","rightarrow"],"right_color":"lightblue","left_color":"orange","left_mu":40,"right_mu":70,"left_numbers":[23,57,29,52,24],"right_numbers":[61,74,64,65,66],"points_earned":278,"phase":"task","trial_type":"horizons-task","trial_index":63,"time_elapsed":1934720,"internal_node_id":"0.0-59.0","task_version":"0.2"},{"response_times":[587,375,488,520,2376,1040,304,193,159,176],"keys_pressed":["rightarrow","rightarrow","leftarrow","leftarrow","leftarrow","leftarrow","leftarrow","leftarrow","leftarrow","leftarrow"],"horizon":10,"forced_choices":["rightarrow","rightarrow","leftarrow","leftarrow"],"right_color":"orange","left_color":"lightblue","left_mu":60,"right_mu":52,"left_numbers":[52,52,69,58,64,58,73,64,73,64],"right_numbers":[46,45,43,46,55,67,43,49,56,43],"points_earned":614,"phase":"task","trial_type":"horizons-task","trial_index":64,"time_elapsed":1942439,"internal_node_id":"0.0-60.0","task_version":"0.2"},{"response_times":[962,1520,393,464,1391,873,223,224,360,240],"keys_pressed":["leftarrow","leftarrow","rightarrow","leftarrow","leftarrow","leftarrow","leftarrow","leftarrow","leftarrow","leftarrow"],"horizon":10,"forced_choices":["leftarrow","leftarrow","rightarrow","leftarrow"],"right_color":"orange","left_color":"lightblue","left_mu":60,"right_mu":40,"left_numbers":[64,54,53,60,57,56,61,66,58,58],"right_numbers":[50,47,39,31,45,34,39,34,44,41],"points_earned":573,"phase":"task","trial_type":"horizons-task","trial_index":65,"time_elapsed":1950592,"internal_node_id":"0.0-61.0","task_version":"0.2"},{"response_times":[498,704,847,856,2304,4543,297,183,192,201],"keys_pressed":["leftarrow","rightarrow","leftarrow","rightarrow","leftarrow","leftarrow","leftarrow","leftarrow","leftarrow","leftarrow"],"horizon":10,"forced_choices":["leftarrow","rightarrow","leftarrow","rightarrow"],"right_color":"lightblue","left_color":"orange","left_mu":40,"right_mu":52,"left_numbers":[44,40,60,37,31,40,33,28,43,43],"right_numbers":[35,45,62,41,70,43,44,54,54,46],"points_earned":408,"phase":"task","trial_type":"horizons-task","trial_index":66,"time_elapsed":1962720,"internal_node_id":"0.0-62.0","task_version":"0.2"},{"response_times":[898,448,719,608,913],"keys_pressed":["rightarrow","rightarrow","rightarrow","leftarrow","rightarrow"],"horizon":5,"forced_choices":["rightarrow","rightarrow","rightarrow","leftarrow"],"right_color":"orange","left_color":"lightblue","left_mu":60,"right_mu":90,"left_numbers":[60,56,51,55,53],"right_numbers":[86,92,97,94,90],"points_earned":420,"phase":"task","trial_type":"horizons-task","trial_index":67,"time_elapsed":1967808,"internal_node_id":"0.0-63.0","task_version":"0.2"},{"response_times":[824,512,384,567,2056,1273,232,151,144,184],"keys_pressed":["leftarrow","rightarrow","leftarrow","rightarrow","leftarrow","leftarrow","leftarrow","leftarrow","leftarrow","leftarrow"],"horizon":10,"forced_choices":["leftarrow","rightarrow","leftarrow","rightarrow"],"right_color":"orange","left_color":"lightblue","left_mu":40,"right_mu":28,"left_numbers":[31,47,43,48,43,33,40,35,43,29],"right_numbers":[27,29,16,21,20,42,5,12,23,44],"points_earned":347,"phase":"task","trial_type":"horizons-task","trial_index":68,"time_elapsed":1975639,"internal_node_id":"0.0-64.0","task_version":"0.2"},{"response_times":[787,655,760,704,1328,1088,200,192,168,160],"keys_pressed":["leftarrow","leftarrow","leftarrow","rightarrow","leftarrow","leftarrow","leftarrow","leftarrow","leftarrow","leftarrow"],"horizon":10,"forced_choices":["leftarrow","leftarrow","leftarrow","rightarrow"],"right_color":"orange","left_color":"lightblue","left_mu":60,"right_mu":64,"left_numbers":[67,66,44,68,56,54,67,56,72,64],"right_numbers":[53,58,64,66,52,62,69,62,59,72],"points_earned":612,"phase":"task","trial_type":"horizons-task","trial_index":69,"time_elapsed":1983185,"internal_node_id":"0.0-65.0","task_version":"0.2"},{"response_times":[513,3192,368,687,1425],"keys_pressed":["rightarrow","rightarrow","leftarrow","rightarrow","rightarrow"],"horizon":5,"forced_choices":["rightarrow","rightarrow","leftarrow","rightarrow"],"right_color":"orange","left_color":"lightblue","left_mu":40,"right_mu":44,"left_numbers":[37,30,32,38,36],"right_numbers":[33,33,55,37,47],"points_earned":182,"phase":"task","trial_type":"horizons-task","trial_index":70,"time_elapsed":1990875,"internal_node_id":"0.0-66.0","task_version":"0.2"},{"response_times":[1488,2264,9839,1775,520],"keys_pressed":["rightarrow","rightarrow","leftarrow","leftarrow","rightarrow"],"horizon":5,"forced_choices":["rightarrow","rightarrow","leftarrow","leftarrow"],"right_color":"orange","left_color":"lightblue","left_mu":60,"right_mu":52,"left_numbers":[63,60,49,64,69],"right_numbers":[49,46,59,65,59],"points_earned":267,"phase":"task","trial_type":"horizons-task","trial_index":71,"time_elapsed":2008264,"internal_node_id":"0.0-67.0","task_version":"0.2"},{"response_times":[1490,1425,447,577,16207,6495,512,263,256,1416],"keys_pressed":["rightarrow","leftarrow","leftarrow","rightarrow","leftarrow","leftarrow","leftarrow","leftarrow","leftarrow","leftarrow"],"horizon":10,"forced_choices":["rightarrow","leftarrow","leftarrow","rightarrow"],"right_color":"orange","left_color":"lightblue","left_mu":60,"right_mu":64,"left_numbers":[61,62,66,55,49,54,53,60,49,62],"right_numbers":[53,63,70,78,69,66,68,68,63,73],"points_earned":586,"phase":"task","trial_type":"horizons-task","trial_index":72,"time_elapsed":2038856,"internal_node_id":"0.0-68.0","task_version":"0.2"},{"response_times":[680,311,560,367,1721,1480,256,168,167,137],"keys_pressed":["rightarrow","rightarrow","leftarrow","rightarrow","rightarrow","rightarrow","rightarrow","rightarrow","rightarrow","rightarrow"],"horizon":10,"forced_choices":["rightarrow","rightarrow","leftarrow","rightarrow"],"right_color":"lightblue","left_color":"orange","left_mu":40,"right_mu":48,"left_numbers":[16,46,46,36,42,35,46,34,44,35],"right_numbers":[59,36,51,35,44,59,41,49,37,42],"points_earned":448,"phase":"task","trial_type":"horizons-task","trial_index":73,"time_elapsed":2046207,"internal_node_id":"0.0-69.0","task_version":"0.2"},{"response_times":[707,799,2161,4400,2024,1247,193,175,136,752],"keys_pressed":["leftarrow","rightarrow","leftarrow","rightarrow","rightarrow","rightarrow","rightarrow","rightarrow","rightarrow","rightarrow"],"horizon":10,"forced_choices":["leftarrow","rightarrow","leftarrow","rightarrow"],"right_color":"orange","left_color":"lightblue","left_mu":60,"right_mu":90,"left_numbers":[64,56,58,66,61,66,57,54,60,65],"right_numbers":[84,84,92,83,80,74,108,83,73,90],"points_earned":797,"phase":"task","trial_type":"horizons-task","trial_index":74,"time_elapsed":2060304,"internal_node_id":"0.0-70.0","task_version":"0.2"},{"response_times":[577,496,2112,496,1272],"keys_pressed":["rightarrow","leftarrow","leftarrow","leftarrow","leftarrow"],"horizon":5,"forced_choices":["rightarrow","leftarrow","leftarrow","leftarrow"],"right_color":"orange","left_color":"lightblue","left_mu":60,"right_mu":52,"left_numbers":[47,67,59,59,76],"right_numbers":[47,60,45,40,48],"points_earned":308,"phase":"task","trial_type":"horizons-task","trial_index":75,"time_elapsed":2066761,"internal_node_id":"0.0-71.0","task_version":"0.2"},{"response_times":[3194,375,401,760,2432,4160,496,199,209,631],"keys_pressed":["leftarrow","rightarrow","leftarrow","leftarrow","leftarrow","leftarrow","leftarrow","leftarrow","leftarrow","leftarrow"],"horizon":10,"forced_choices":["leftarrow","rightarrow","leftarrow","leftarrow"],"right_color":"orange","left_color":"lightblue","left_mu":40,"right_mu":28,"left_numbers":[42,52,31,42,32,33,38,39,30,36],"right_numbers":[19,25,21,34,31,16,26,31,28,23],"points_earned":348,"phase":"task","trial_type":"horizons-task","trial_index":76,"time_elapsed":2081120,"internal_node_id":"0.0-72.0","task_version":"0.2"},{"response_times":[658,704,641,4424,1295],"keys_pressed":["leftarrow","rightarrow","leftarrow","rightarrow","leftarrow"],"horizon":5,"forced_choices":["leftarrow","rightarrow","leftarrow","rightarrow"],"right_color":"orange","left_color":"lightblue","left_mu":40,"right_mu":28,"left_numbers":[38,33,49,38,32],"right_numbers":[33,23,35,19,26],"points_earned":161,"phase":"task","trial_type":"horizons-task","trial_index":77,"time_elapsed":2090344,"internal_node_id":"0.0-73.0","task_version":"0.2"},{"response_times":[825,872,497,359,1721,1664,247,137,199,560],"keys_pressed":["leftarrow","rightarrow","leftarrow","rightarrow","leftarrow","leftarrow","leftarrow","leftarrow","leftarrow","leftarrow"],"horizon":10,"forced_choices":["leftarrow","rightarrow","leftarrow","rightarrow"],"right_color":"orange","left_color":"lightblue","left_mu":60,"right_mu":48,"left_numbers":[74,55,59,53,68,64,86,55,52,61],"right_numbers":[42,61,48,51,49,58,55,29,58,33],"points_earned":631,"phase":"task","trial_type":"horizons-task","trial_index":78,"time_elapsed":2098928,"internal_node_id":"0.0-74.0","task_version":"0.2"},{"response_times":[592,416,1280,496,14424,1359,233,127,128,169],"keys_pressed":["leftarrow","rightarrow","rightarrow","leftarrow","rightarrow","rightarrow","rightarrow","rightarrow","rightarrow","rightarrow"],"horizon":10,"forced_choices":["leftarrow","rightarrow","rightarrow","leftarrow"],"right_color":"orange","left_color":"lightblue","left_mu":40,"right_mu":44,"left_numbers":[29,39,40,38,30,46,47,38,33,45],"right_numbers":[55,46,32,36,36,34,39,50,36,60],"points_earned":400,"phase":"task","trial_type":"horizons-task","trial_index":79,"time_elapsed":2119656,"internal_node_id":"0.0-75.0","task_version":"0.2"},{"response_times":[1818,776,351,656,2016,503,169,135,313,464],"keys_pressed":["leftarrow","leftarrow","leftarrow","rightarrow","leftarrow","leftarrow","leftarrow","leftarrow","leftarrow","leftarrow"],"horizon":10,"forced_choices":["leftarrow","leftarrow","leftarrow","rightarrow"],"right_color":"orange","left_color":"lightblue","left_mu":40,"right_mu":32,"left_numbers":[33,40,31,37,42,35,56,48,43,49],"right_numbers":[19,28,22,27,37,30,33,33,43,33],"points_earned":404,"phase":"task","trial_type":"horizons-task","trial_index":80,"time_elapsed":2128363,"internal_node_id":"0.0-76.0","task_version":"0.2"},{"response_times":[2023,328,488,471,2129,3456,272,231,192,177],"keys_pressed":["rightarrow","leftarrow","leftarrow","leftarrow","leftarrow","leftarrow","leftarrow","leftarrow","leftarrow","leftarrow"],"horizon":10,"forced_choices":["rightarrow","leftarrow","leftarrow","leftarrow"],"right_color":"orange","left_color":"lightblue","left_mu":40,"right_mu":36,"left_numbers":[24,38,37,41,24,44,35,38,39,45],"right_numbers":[20,36,29,32,33,41,44,32,45,44],"points_earned":361,"phase":"task","trial_type":"horizons-task","trial_index":81,"time_elapsed":2139632,"internal_node_id":"0.0-77.0","task_version":"0.2"},{"response_times":[1371,455,489,536,2128,439,144,473,367,208],"keys_pressed":["rightarrow","leftarrow","rightarrow","rightarrow","rightarrow","rightarrow","rightarrow","rightarrow","rightarrow","rightarrow"],"horizon":10,"forced_choices":["rightarrow","leftarrow","rightarrow","rightarrow"],"right_color":"orange","left_color":"lightblue","left_mu":60,"right_mu":48,"left_numbers":[58,70,60,61,56,65,60,56,51,56],"right_numbers":[67,52,51,51,33,39,46,29,52,54],"points_earned":492,"phase":"task","trial_type":"horizons-task","trial_index":82,"time_elapsed":2147745,"internal_node_id":"0.0-78.0","task_version":"0.2"},{"response_times":[606,415,608,21033,1904],"keys_pressed":["rightarrow","leftarrow","rightarrow","rightarrow","rightarrow"],"horizon":5,"forced_choices":["rightarrow","leftarrow","rightarrow","rightarrow"],"right_color":"orange","left_color":"lightblue","left_mu":60,"right_mu":48,"left_numbers":[60,64,54,57,64],"right_numbers":[34,52,39,47,39],"points_earned":223,"phase":"task","trial_type":"horizons-task","trial_index":83,"time_elapsed":2173817,"internal_node_id":"0.0-79.0","task_version":"0.2"},{"response_times":[1002,840,464,1239,497],"keys_pressed":["rightarrow","rightarrow","rightarrow","leftarrow","rightarrow"],"horizon":5,"forced_choices":["rightarrow","rightarrow","rightarrow","leftarrow"],"right_color":"lightblue","left_color":"orange","left_mu":40,"right_mu":52,"left_numbers":[52,32,30,30,37],"right_numbers":[59,46,69,38,36],"points_earned":240,"phase":"task","trial_type":"horizons-task","trial_index":84,"time_elapsed":2179360,"internal_node_id":"0.0-80.0","task_version":"0.2"},{"response_times":[610,863,1209,5528,1424],"keys_pressed":["leftarrow","rightarrow","leftarrow","rightarrow","rightarrow"],"horizon":5,"forced_choices":["leftarrow","rightarrow","leftarrow","rightarrow"],"right_color":"lightblue","left_color":"orange","left_mu":40,"right_mu":52,"left_numbers":[30,49,29,45,60],"right_numbers":[59,51,38,45,38],"points_earned":193,"phase":"task","trial_type":"horizons-task","trial_index":85,"time_elapsed":2190496,"internal_node_id":"0.0-81.0","task_version":"0.2"},{"response_times":[634,447,424,416,1784,944,335,168,137,135],"keys_pressed":["rightarrow","leftarrow","leftarrow","rightarrow","rightarrow","rightarrow","rightarrow","rightarrow","rightarrow","rightarrow"],"horizon":10,"forced_choices":["rightarrow","leftarrow","leftarrow","rightarrow"],"right_color":"lightblue","left_color":"orange","left_mu":40,"right_mu":70,"left_numbers":[49,40,48,47,50,40,46,35,35,50],"right_numbers":[65,60,61,46,44,76,75,81,74,69],"points_earned":618,"phase":"task","trial_type":"horizons-task","trial_index":86,"time_elapsed":2197424,"internal_node_id":"0.0-82.0","task_version":"0.2"},{"response_times":[641,440,3032,464,2352,408,224,143,152,128],"keys_pressed":["leftarrow","leftarrow","rightarrow","rightarrow","rightarrow","rightarrow","rightarrow","rightarrow","rightarrow","rightarrow"],"horizon":10,"forced_choices":["leftarrow","leftarrow","rightarrow","rightarrow"],"right_color":"lightblue","left_color":"orange","left_mu":60,"right_mu":80,"left_numbers":[56,59,49,56,57,63,52,46,69,63],"right_numbers":[94,78,84,80,100,74,88,83,80,81],"points_earned":785,"phase":"task","trial_type":"horizons-task","trial_index":87,"time_elapsed":2206912,"internal_node_id":"0.0-83.0","task_version":"0.2"},{"response_times":[730,727,1185,4447,11879,552,392,224,104,193],"keys_pressed":["leftarrow","rightarrow","rightarrow","leftarrow","rightarrow","rightarrow","rightarrow","rightarrow","rightarrow","rightarrow"],"horizon":10,"forced_choices":["leftarrow","rightarrow","rightarrow","leftarrow"],"right_color":"lightblue","left_color":"orange","left_mu":40,"right_mu":60,"left_numbers":[35,29,46,43,42,36,24,47,42,47],"right_numbers":[57,69,65,63,59,53,60,59,53,58],"points_earned":554,"phase":"task","trial_type":"horizons-task","trial_index":88,"time_elapsed":2228848,"internal_node_id":"0.0-84.0","task_version":"0.2"},{"response_times":[1083,1975,5977,551,1105],"keys_pressed":["leftarrow","leftarrow","rightarrow","rightarrow","leftarrow"],"horizon":5,"forced_choices":["leftarrow","leftarrow","rightarrow","rightarrow"],"right_color":"orange","left_color":"lightblue","left_mu":60,"right_mu":40,"left_numbers":[75,56,48,46,64],"right_numbers":[37,32,28,33,46],"points_earned":256,"phase":"task","trial_type":"horizons-task","trial_index":89,"time_elapsed":2241042,"internal_node_id":"0.0-85.0","task_version":"0.2"},{"response_times":[704,1552,503,937,3111,1480,224,448,175,168],"keys_pressed":["rightarrow","leftarrow","leftarrow","rightarrow","leftarrow","leftarrow","leftarrow","leftarrow","leftarrow","leftarrow"],"horizon":10,"forced_choices":["rightarrow","leftarrow","leftarrow","rightarrow"],"right_color":"lightblue","left_color":"orange","left_mu":40,"right_mu":20,"left_numbers":[35,54,19,45,24,23,34,35,34,40],"right_numbers":[14,11,13,36,18,11,15,17,11,22],"points_earned":313,"phase":"task","trial_type":"horizons-task","trial_index":90,"time_elapsed":2251847,"internal_node_id":"0.0-86.0","task_version":"0.2"},{"response_times":[706,599,888,1056,1103,952,384,304,215,647],"keys_pressed":["leftarrow","leftarrow","rightarrow","leftarrow","leftarrow","leftarrow","leftarrow","leftarrow","leftarrow","leftarrow"],"horizon":10,"forced_choices":["leftarrow","leftarrow","rightarrow","leftarrow"],"right_color":"lightblue","left_color":"orange","left_mu":60,"right_mu":80,"left_numbers":[71,63,45,62,66,66,73,59,56,60],"right_numbers":[87,78,84,72,69,77,71,66,90,83],"points_earned":660,"phase":"task","trial_type":"horizons-task","trial_index":91,"time_elapsed":2260208,"internal_node_id":"0.0-87.0","task_version":"0.2"},{"rt":37209,"responses":{"age":"40","gender-categorical":"Male","gender-free-response":"","ethnicity":"Rather not say","race":["American Indian/Alaska Native","White"],"language":"Yes","fluency":"Very well"},"survey":"demographics","trial_type":"survey-demo","trial_index":92,"time_elapsed":2297422,"internal_node_id":"0.0-88.0","task_version":"0.2"},{"rt":63596,"responses":{"difficulty":"4","fun":"5","clarity":"5","strategy":"no","feedback":""},"survey":"debrief","trial_type":"survey-debrief","trial_index":93,"time_elapsed":2361022,"internal_node_id":"0.0-89.0","task_version":"0.2","interactions":"[{\"event\":\"blur\",\"trial\":0,\"time\":0},{\"event\":\"focus\",\"trial\":0,\"time\":76794},{\"event\":\"blur\",\"trial\":0,\"time\":79092},{\"event\":\"focus\",\"trial\":0,\"time\":80615},{\"event\":\"blur\",\"trial\":0,\"time\":81802},{\"event\":\"focus\",\"trial\":0,\"time\":691618},{\"event\":\"blur\",\"trial\":0,\"time\":692555},{\"event\":\"focus\",\"trial\":0,\"time\":693624},{\"event\":\"blur\",\"trial\":1,\"time\":782670},{\"event\":\"focus\",\"trial\":1,\"time\":785171},{\"event\":\"blur\",\"trial\":2,\"time\":836618},{\"event\":\"focus\",\"trial\":2,\"time\":841952},{\"event\":\"blur\",\"trial\":2,\"time\":842846},{\"event\":\"focus\",\"trial\":2,\"time\":855554},{\"event\":\"blur\",\"trial\":2,\"time\":858012},{\"event\":\"focus\",\"trial\":2,\"time\":860470},{\"event\":\"blur\",\"trial\":2,\"time\":936207},{\"event\":\"focus\",\"trial\":2,\"time\":949896},{\"event\":\"blur\",\"trial\":4,\"time\":1282190},{\"event\":\"focus\",\"trial\":4,\"time\":1291922},{\"event\":\"blur\",\"trial\":8,\"time\":1401647},{\"event\":\"focus\",\"trial\":8,\"time\":1429720},{\"event\":\"blur\",\"trial\":43,\"time\":1769345},{\"event\":\"focus\",\"trial\":43,\"time\":1770894},{\"event\":\"blur\",\"trial\":71,\"time\":1998764},{\"event\":\"focus\",\"trial\":71,\"time\":2000244}]"}]