[{"view_history":"[{\"page_index\":0,\"viewing_time\":5135.009999969043}]","rt":5135.66999998875,"trial_type":"instructions","trial_index":0,"time_elapsed":5145,"internal_node_id":"0.0-0.0","task_version":"0.2"},{"item_order":[9,3,4,8,6,7,5,11,12,2,0,1,10],"responses":{"Q10":"2","Q04":"3","Q05":"1","Q09":"1","Q07":"2","Q08":"2","Q06":"2","Q12":"1","Q13":"4","Q03":"2","Q01":"1","Q02":"2","Q11":"1"},"radio_events":[10308.934999979101,14957.694999990053,25333.4249999607,31453.355000005104,34716.6749999742,39997.40999995265,45717.26999996463,52812.76499998057,54693.34999995772,59748.67000000086,62950.36999997683,67349.33499997715,70085.33499995247,76589.18499998981],"key_events":[],"mouse_events":[0.054999953135848045,10308.934999979101,14117.094999994151,14957.694999990053,24645.324999990407,25333.4249999607,30732.61000000639,31453.355000005104,34716.6749999742,39997.40999995265,45717.26999996463,51796.89499997767,52812.76499998057,54693.34999995772,59253.32499999786,59748.67000000086,62950.36999997683,67349.33499997715,70085.33499995247,76589.18499998981,78373.35000000894],"rt":78375.24999998277,"survey":"ius12","trial_type":"survey-template","trial_index":1,"time_elapsed":83520,"internal_node_id":"0.0-1.0","task_version":"0.2"},{"item_order":[15,9,2,6,4,0,3,10,1,8,13,12,7,5,11,14],"responses":{"Q16":"5","Q10":"2","Q03":"3","Q07":"3","Q05":"1","Q01":"3","Q04":"3","Q11":"2","Q02":"1","Q09":"2","Q14":"2","Q13":"3","Q08":"2","Q06":"4","Q12":"3","Q15":"3"},"radio_events":[6467.30999997817,12578.77500000177,16259.324999991804,23483.61999995541,26554.66999998316,30971.25000000233,35619.299999962095,41035.15999997035,45987.16499999864,48995.24499999825,53610.59999995632,57083.2099999534,63059.27500000689,66098.52499997942,69538.77499996452,74323.15999997081,80835.22999996785],"key_events":[],"mouse_events":[6467.30999997817,12578.77500000177,16259.324999991804,22939.144999952987,23483.61999995541,26554.66999998316,29315.100000007078,30235.2499999688,30971.25000000233,35619.299999962095,40035.19500000402,41035.15999997035,45987.16499999864,48995.24499999825,53610.59999995632,57083.2099999534,60555.21999998018,62251.304999983404,63059.27500000689,66098.52499997942,69538.77499996452,74323.15999997081,80835.22999996785,81787.32000000309],"rt":81789.86999997869,"survey":"nfc","trial_type":"survey-template","trial_index":2,"time_elapsed":165310,"internal_node_id":"0.0-2.0","task_version":"0.2"},{"item_order":[15,6,14,11,3,1,13,0,2,12,8,7,4,10,5,9,16],"responses":{"Q16":"4","Q07":"2","Q15":"1","Q12":"2","Q04":"3","Q02":"1","Q14":"1","Q01":"4","Q03":"3","Q13":"2","Q09":"3","Q08":"3","Q05":"2","Q11":"3","Q06":"3","Q10":"4","Q17":"0"},"radio_events":[5626.220000034664,8777.769999986049,12354.280000028666,15138.005000015255,16218.359999998938,24115.634999994654,28057.42000002647,35498.380000004545,45610.35999999149,47065.71500003338,50450.255000032485,54921.74000001978,60626.21000001673,64881.5600000089,70322.2400000086,75330.33500000602,79018.40000000084,85522.24000002025,88106.28499998711],"key_events":[],"mouse_events":[4914.229999994859,5626.220000034664,8777.769999986049,12354.280000028666,15138.005000015255,16218.359999998938,24115.634999994654,27314.25500003388,28057.42000002647,35498.380000004545,45610.35999999149,46410.30500002671,47065.71500003338,50450.255000032485,54921.74000001978,60626.21000001673,64881.5600000089,69442.34499998856,70322.2400000086,75330.33500000602,79018.40000000084,85522.24000002025,88106.28499998711,89298.24500001268],"rt":89300.47499999637,"survey":"pswq","trial_type":"survey-template","trial_index":3,"time_elapsed":254609,"internal_node_id":"0.0-3.0","task_version":"0.2"},{"view_history":"[{\"page_index\":0,\"viewing_time\":5493.274999957066},{\"page_index\":1,\"viewing_time\":5695.800000044983},{\"page_index\":2,\"viewing_time\":7951.579999993555},{\"page_index\":3,\"viewing_time\":8097.73999999743},{\"page_index\":4,\"viewing_time\":5310.354999965057},{\"page_index\":5,\"viewing_time\":3969.5899999933317},{\"page_index\":6,\"viewing_time\":7710.310000053141},{\"page_index\":7,\"viewing_time\":8097.53999998793},{\"page_index\":8,\"viewing_time\":10190.49000000814},{\"page_index\":9,\"viewing_time\":6529.564999975264}]","rt":69046.37499997625,"trial_type":"instructions","trial_index":4,"time_elapsed":323653,"internal_node_id":"0.0-4.0-0.0","task_version":"0.2"},{"response_times":[1256.8600000231527,1231.8400000222027,1776.0550000239164,2193.459999980405,4222.795000008773],"keys_pressed":["rightarrow","leftarrow","rightarrow","rightarrow","leftarrow"],"horizon":5,"forced_choices":["rightarrow","leftarrow","rightarrow","rightarrow"],"right_color":"lightblue","left_color":"orange","left_mu":40,"right_mu":20,"left_numbers":[31,29,37,36,38],"right_numbers":[27,21,24,20,12],"points_earned":138,"phase":"practice","trial_type":"horizons-task","trial_index":5,"time_elapsed":335842,"internal_node_id":"0.0-4.0-1.0","task_version":"0.2"},{"response_times":[1297.4950000061654,1230.3850000025705,784.1750000370666,897.5099999806844,3261.6300000227056,2354.0899999788962,1630.559999961406,913.4949999861419,2318.6100000166334,1264.5999999949709],"keys_pressed":["leftarrow","leftarrow","rightarrow","rightarrow","leftarrow","leftarrow","rightarrow","rightarrow","rightarrow","rightarrow"],"horizon":10,"forced_choices":["leftarrow","leftarrow","rightarrow","rightarrow"],"right_color":"orange","left_color":"lightblue","left_mu":60,"right_mu":70,"left_numbers":[60,70,64,45,54,64,54,40,60,51],"right_numbers":[66,80,67,67,79,68,80,62,73,82],"points_earned":679,"phase":"practice","trial_type":"horizons-task","trial_index":6,"time_elapsed":353296,"internal_node_id":"0.0-4.0-2.0","task_version":"0.2"},{"view_history":"[{\"page_index\":0,\"viewing_time\":1776.4549999847077},{\"page_index\":1,\"viewing_time\":3250.3400000277907},{\"page_index\":2,\"viewing_time\":4686.439999961294},{\"page_index\":3,\"viewing_time\":2241.5599999949336}]","rt":11954.909999971278,"trial_type":"instructions","trial_index":7,"time_elapsed":365251,"internal_node_id":"0.0-4.0-3.0","task_version":"0.2"},{"responses":["true","false","true"],"num_errors":0,"rt":9677.255000045989,"trial_type":"horizons-comprehension","trial_index":8,"time_elapsed":374930,"internal_node_id":"0.0-4.0-4.0","task_version":"0.2"},{"trial_type":"call-function","trial_index":9,"time_elapsed":374932,"internal_node_id":"0.0-5.0","task_version":"0.2"},{"view_history":"[{\"page_index\":0,\"viewing_time\":2173.254999972414},{\"page_index\":1,\"viewing_time\":3409.265000023879}]","rt":5582.634999998845,"trial_type":"instructions","trial_index":10,"time_elapsed":380514,"internal_node_id":"0.0-6.0","task_version":"0.2"},{"response_times":[1083.634999988135,735.8550000353716,1471.8650000286289,1073.7799999769777,1470.244999974966],"keys_pressed":["leftarrow","rightarrow","leftarrow","leftarrow","rightarrow"],"horizon":5,"forced_choices":["leftarrow","rightarrow","leftarrow","leftarrow"],"right_color":"lightblue","left_color":"orange","left_mu":60,"right_mu":90,"left_numbers":[56,49,56,52,53],"right_numbers":[80,80,86,72,90],"points_earned":334,"phase":"task","trial_type":"horizons-task","trial_index":11,"time_elapsed":387855,"internal_node_id":"0.0-7.0","task_version":"0.2"},{"response_times":[1008.6350000347011,865.4549999628216,797.954999958165,832.2799999732524,1392.7699999767356,1007.4550000135787,1023.9350000047125,1089.574999990873,2286.469999991823,1073.5649999696761],"keys_pressed":["leftarrow","leftarrow","leftarrow","rightarrow","rightarrow","rightarrow","leftarrow","leftarrow","leftarrow","leftarrow"],"horizon":10,"forced_choices":["leftarrow","leftarrow","leftarrow","rightarrow"],"right_color":"orange","left_color":"lightblue","left_mu":60,"right_mu":56,"left_numbers":[53,57,53,48,69,69,58,68,71,47],"right_numbers":[46,50,44,52,67,49,67,45,74,55],"points_earned":575,"phase":"task","trial_type":"horizons-task","trial_index":12,"time_elapsed":400739,"internal_node_id":"0.0-8.0","task_version":"0.2"},{"response_times":[778.9500000071712,1266.9499999610707,909.6150000113994,945.0049999868497,1583.0600000335835],"keys_pressed":["leftarrow","leftarrow","rightarrow","rightarrow","rightarrow"],"horizon":5,"forced_choices":["leftarrow","leftarrow","rightarrow","rightarrow"],"right_color":"lightblue","left_color":"orange","left_mu":40,"right_mu":60,"left_numbers":[38,48,52,37,31],"right_numbers":[46,68,68,59,44],"points_earned":257,"phase":"task","trial_type":"horizons-task","trial_index":13,"time_elapsed":407725,"internal_node_id":"0.0-9.0","task_version":"0.2"},{"response_times":[1345.2650000108406,879.9099999596365,977.5549999903888,1902.425000036601,1744.7549999924377],"keys_pressed":["leftarrow","rightarrow","rightarrow","leftarrow","rightarrow"],"horizon":5,"forced_choices":["leftarrow","rightarrow","rightarrow","leftarrow"],"right_color":"lightblue","left_color":"orange","left_mu":60,"right_mu":68,"left_numbers":[71,58,66,57,69],"right_numbers":[77,81,67,79,67],"points_earned":343,"phase":"task","trial_type":"horizons-task","trial_index":14,"time_elapsed":416077,"internal_node_id":"0.0-10.0","task_version":"0.2"},{"response_times":[1027.1300000022165,974.3899999884889,687.0200000121258,785.1500000106171,1647.7650000015274,1169.560000009369,926.4349999721162,1025.5799999576993,766.2899999995716,1073.3650000183843],"keys_pressed":["rightarrow","leftarrow","rightarrow","rightarrow","leftarrow","leftarrow","rightarrow","rightarrow","leftarrow","leftarrow"],"horizon":10,"forced_choices":["rightarrow","leftarrow","rightarrow","rightarrow"],"right_color":"orange","left_color":"lightblue","left_mu":40,"right_mu":10,"left_numbers":[40,35,48,26,52,42,35,38,45,17],"right_numbers":[21,9,0,12,0,16,5,10,17,15],"points_earned":239,"phase":"task","trial_type":"horizons-task","trial_index":15,"time_elapsed":427666,"internal_node_id":"0.0-11.0","task_version":"0.2"},{"response_times":[923.914999992121,785.4149999911897,1037.609999999404,928.8350000279024,1184.3349999981,511.56499999342486,817.6300000050105,958.3350000320934,2559.9749999819323,913.5249999817461],"keys_pressed":["rightarrow","rightarrow","leftarrow","rightarrow","rightarrow","leftarrow","leftarrow","leftarrow","rightarrow","rightarrow"],"horizon":10,"forced_choices":["rightarrow","rightarrow","leftarrow","rightarrow"],"right_color":"lightblue","left_color":"orange","left_mu":40,"right_mu":52,"left_numbers":[45,18,46,34,37,47,36,24,36,31],"right_numbers":[46,56,62,42,50,40,46,48,43,60],"points_earned":450,"phase":"task","trial_type":"horizons-task","trial_index":16,"time_elapsed":439791,"internal_node_id":"0.0-12.0","task_version":"0.2"},{"response_times":[909.9750000168569,800.1749999821186,1009.5449999789707,1214.3550000037067,1376.0450000409037,897.4250000319444,1390.5249999952503,1327.2500000311993,1984.1149999992922,914.0350000234321],"keys_pressed":["leftarrow","rightarrow","rightarrow","rightarrow","leftarrow","leftarrow","rightarrow","leftarrow","rightarrow","rightarrow"],"horizon":10,"forced_choices":["leftarrow","rightarrow","rightarrow","rightarrow"],"right_color":"lightblue","left_color":"orange","left_mu":40,"right_mu":60,"left_numbers":[35,47,35,38,41,48,34,58,52,30],"right_numbers":[53,65,67,61,54,55,64,64,67,47],"points_earned":553,"phase":"task","trial_type":"horizons-task","trial_index":17,"time_elapsed":453116,"internal_node_id":"0.0-13.0","task_version":"0.2"},{"response_times":[912.4399999855086,864.0100000193343,816.1149999941699,2047.51500004204,912.320000003092,641.4650000515394,1006.409999972675,1167.1150000183843,834.4800000195391,766.3399999728426],"keys_pressed":["rightarrow","leftarrow","leftarrow","leftarrow","rightarrow","rightarrow","rightarrow","leftarrow","leftarrow","leftarrow"],"horizon":10,"forced_choices":["rightarrow","leftarrow","leftarrow","leftarrow"],"right_color":"orange","left_color":"lightblue","left_mu":40,"right_mu":20,"left_numbers":[35,44,47,33,41,14,42,35,42,34],"right_numbers":[9,13,9,21,28,25,26,8,21,28],"points_earned":323,"phase":"task","trial_type":"horizons-task","trial_index":18,"time_elapsed":464589,"internal_node_id":"0.0-14.0","task_version":"0.2"},{"response_times":[928.2250000396743,991.7099999729544,718.8150000292808,671.9750000047497,800.8649999974295,814.890000037849,800.165000022389,849.7849999694154,1374.1849999642,769.5899999816902],"keys_pressed":["leftarrow","rightarrow","leftarrow","rightarrow","rightarrow","rightarrow","leftarrow","leftarrow","rightarrow","rightarrow"],"horizon":10,"forced_choices":["leftarrow","rightarrow","leftarrow","rightarrow"],"right_color":"orange","left_color":"lightblue","left_mu":40,"right_mu":70,"left_numbers":[34,45,34,34,35,38,50,52,46,50],"right_numbers":[71,70,70,60,70,70,68,72,73,56],"points_earned":569,"phase":"task","trial_type":"horizons-task","trial_index":19,"time_elapsed":474814,"internal_node_id":"0.0-15.0","task_version":"0.2"},{"response_times":[764.8150000022724,959.9649999872781,687.9150000168011,1727.69500000868,1041.9200000469573],"keys_pressed":["rightarrow","leftarrow","rightarrow","leftarrow","leftarrow"],"horizon":5,"forced_choices":["rightarrow","leftarrow","rightarrow","leftarrow"],"right_color":"lightblue","left_color":"orange","left_mu":60,"right_mu":30,"left_numbers":[56,62,51,63,63],"right_numbers":[38,35,35,24,32],"points_earned":261,"phase":"task","trial_type":"horizons-task","trial_index":20,"time_elapsed":481498,"internal_node_id":"0.0-16.0","task_version":"0.2"},{"response_times":[864.4800000474788,880.0300000002608,737.569999997504,702.0149999880232,1057.6599999913014,688.1149999680929,862.5299999839626,527.959999977611,991.1350000184029,1200.1450000097975],"keys_pressed":["rightarrow","leftarrow","leftarrow","leftarrow","rightarrow","rightarrow","rightarrow","leftarrow","rightarrow","leftarrow"],"horizon":10,"forced_choices":["rightarrow","leftarrow","leftarrow","leftarrow"],"right_color":"lightblue","left_color":"orange","left_mu":60,"right_mu":30,"left_numbers":[53,50,57,65,57,62,70,68,81,57],"right_numbers":[34,27,20,31,14,22,35,26,15,26],"points_earned":417,"phase":"task","trial_type":"horizons-task","trial_index":21,"time_elapsed":491514,"internal_node_id":"0.0-17.0","task_version":"0.2"},{"response_times":[914.4499999820255,909.8249999806285,834.1999999829568,639.0949999913573,2511.1000000033528],"keys_pressed":["leftarrow","rightarrow","rightarrow","leftarrow","rightarrow"],"horizon":5,"forced_choices":["leftarrow","rightarrow","rightarrow","leftarrow"],"right_color":"orange","left_color":"lightblue","left_mu":40,"right_mu":48,"left_numbers":[47,45,27,41,43],"right_numbers":[48,41,57,41,48],"points_earned":234,"phase":"task","trial_type":"horizons-task","trial_index":22,"time_elapsed":498825,"internal_node_id":"0.0-18.0","task_version":"0.2"},{"response_times":[786.9349999818951,1422.5349999614991,609.679999994114,718.2150000007823,641.7200000141747],"keys_pressed":["rightarrow","leftarrow","leftarrow","rightarrow","rightarrow"],"horizon":5,"forced_choices":["rightarrow","leftarrow","leftarrow","rightarrow"],"right_color":"lightblue","left_color":"orange","left_mu":60,"right_mu":80,"left_numbers":[60,54,57,59,60],"right_numbers":[100,83,85,94,87],"points_earned":392,"phase":"task","trial_type":"horizons-task","trial_index":23,"time_elapsed":504506,"internal_node_id":"0.0-19.0","task_version":"0.2"},{"response_times":[736.5299999946728,687.8599999472499,864.8200000170618,1006.8750000209548,5249.849999963772],"keys_pressed":["leftarrow","rightarrow","rightarrow","rightarrow","rightarrow"],"horizon":5,"forced_choices":["leftarrow","rightarrow","rightarrow","rightarrow"],"right_color":"lightblue","left_color":"orange","left_mu":60,"right_mu":68,"left_numbers":[74,69,59,58,43],"right_numbers":[68,70,62,80,62],"points_earned":348,"phase":"task","trial_type":"horizons-task","trial_index":24,"time_elapsed":514553,"internal_node_id":"0.0-20.0","task_version":"0.2"},{"response_times":[672.6900000358,559.4500000006519,736.8800000404008,543.9250000054017,879.8449999885634,672.1249999827705,3087.745000026189,816.1899999831803,927.9150000074878,879.8100000130944],"keys_pressed":["leftarrow","rightarrow","leftarrow","rightarrow","leftarrow","rightarrow","leftarrow","rightarrow","leftarrow","rightarrow"],"horizon":10,"forced_choices":["leftarrow","rightarrow","leftarrow","rightarrow"],"right_color":"orange","left_color":"lightblue","left_mu":40,"right_mu":44,"left_numbers":[34,49,47,32,39,33,29,47,40,60],"right_numbers":[40,45,43,48,46,57,42,42,54,36],"points_earned":417,"phase":"task","trial_type":"horizons-task","trial_index":25,"time_elapsed":525832,"internal_node_id":"0.0-21.0","task_version":"0.2"},{"response_times":[818.0050000082701,654.62500002468,767.9899999639019,703.9300000178628,2497.5850000046194],"keys_pressed":["rightarrow","rightarrow","leftarrow","rightarrow","rightarrow"],"horizon":5,"forced_choices":["rightarrow","rightarrow","leftarrow","rightarrow"],"right_color":"lightblue","left_color":"orange","left_mu":40,"right_mu":52,"left_numbers":[41,30,30,31,45],"right_numbers":[31,42,39,56,55],"points_earned":214,"phase":"task","trial_type":"horizons-task","trial_index":26,"time_elapsed":532776,"internal_node_id":"0.0-22.0","task_version":"0.2"},{"response_times":[688.7550000101328,929.6999999787658,622.2350000170991,575.9800000232644,1089.6150000044145,1245.7200000062585,688.6049999739043,657.5300000258721,1519.41499998793,896.6149999760091],"keys_pressed":["rightarrow","rightarrow","rightarrow","leftarrow","leftarrow","leftarrow","rightarrow","rightarrow","leftarrow","leftarrow"],"horizon":10,"forced_choices":["rightarrow","rightarrow","rightarrow","leftarrow"],"right_color":"orange","left_color":"lightblue","left_mu":60,"right_mu":40,"left_numbers":[63,65,56,61,66,65,69,57,67,78],"right_numbers":[43,27,35,48,39,50,48,46,37,39],"points_earned":536,"phase":"task","trial_type":"horizons-task","trial_index":27,"time_elapsed":543196,"internal_node_id":"0.0-23.0","task_version":"0.2"},{"response_times":[796.3050000253133,639.885000011418,720.000000030268,1008.0050000105985,881.5999999642372],"keys_pressed":["leftarrow","rightarrow","leftarrow","rightarrow","rightarrow"],"horizon":5,"forced_choices":["leftarrow","rightarrow","leftarrow","rightarrow"],"right_color":"lightblue","left_color":"orange","left_mu":60,"right_mu":90,"left_numbers":[55,48,62,64,50],"right_numbers":[77,92,82,81,89],"points_earned":379,"phase":"task","trial_type":"horizons-task","trial_index":28,"time_elapsed":548743,"internal_node_id":"0.0-24.0","task_version":"0.2"},{"response_times":[753.4449999802746,817.5150000024587,494.43999998038635,672.0550000318326,495.73000002419576,1280.2999999839813,1455.7800000184216,881.7500000004657,638.18499998888,6705.514999979641],"keys_pressed":["rightarrow","rightarrow","leftarrow","rightarrow","leftarrow","rightarrow","leftarrow","leftarrow","rightarrow","rightarrow"],"horizon":10,"forced_choices":["rightarrow","rightarrow","leftarrow","rightarrow"],"right_color":"orange","left_color":"lightblue","left_mu":40,"right_mu":48,"left_numbers":[46,31,40,42,45,49,53,38,34,35],"right_numbers":[49,43,26,51,58,54,44,50,35,52],"points_earned":460,"phase":"task","trial_type":"horizons-task","trial_index":29,"time_elapsed":564439,"internal_node_id":"0.0-25.0","task_version":"0.2"},{"response_times":[672.8649999713525,625.6549999816343,590.5149999889545,529.4700000085868,2173.720000020694],"keys_pressed":["rightarrow","rightarrow","leftarrow","leftarrow","leftarrow"],"horizon":5,"forced_choices":["rightarrow","rightarrow","leftarrow","leftarrow"],"right_color":"lightblue","left_color":"orange","left_mu":60,"right_mu":52,"left_numbers":[41,72,45,68,53],"right_numbers":[49,58,55,63,62],"points_earned":273,"phase":"task","trial_type":"horizons-task","trial_index":30,"time_elapsed":570533,"internal_node_id":"0.0-26.0","task_version":"0.2"},{"response_times":[643.2449999847449,494.2700000246987,543.8600000343286,433.72499995166436,622.4599999841303,481.46499996073544,670.3050000360236,385.22500003455207,1294.2150000017136,3328.385000000708],"keys_pressed":["leftarrow","leftarrow","rightarrow","rightarrow","leftarrow","leftarrow","rightarrow","rightarrow","leftarrow","rightarrow"],"horizon":10,"forced_choices":["leftarrow","leftarrow","rightarrow","rightarrow"],"right_color":"orange","left_color":"lightblue","left_mu":60,"right_mu":72,"left_numbers":[69,71,69,53,62,51,68,64,62,65],"right_numbers":[80,62,86,57,79,54,62,65,69,79],"points_earned":664,"phase":"task","trial_type":"horizons-task","trial_index":31,"time_elapsed":580935,"internal_node_id":"0.0-27.0","task_version":"0.2"},{"response_times":[753.0750000150874,830.3399999858811,801.2899999739602,685.9000000404194,1121.1999999941327,798.94999996759,946.0199999739416,1742.4499999615364,976.0000000242144,4417.734999966342],"keys_pressed":["rightarrow","leftarrow","leftarrow","rightarrow","rightarrow","leftarrow","leftarrow","rightarrow","leftarrow","leftarrow"],"horizon":10,"forced_choices":["rightarrow","leftarrow","leftarrow","rightarrow"],"right_color":"lightblue","left_color":"orange","left_mu":40,"right_mu":36,"left_numbers":[51,39,29,31,24,34,40,42,41,34],"right_numbers":[29,33,29,36,40,31,52,35,43,36],"points_earned":357,"phase":"task","trial_type":"horizons-task","trial_index":32,"time_elapsed":595511,"internal_node_id":"0.0-28.0","task_version":"0.2"},{"response_times":[927.094999991823,626.3400000170805,413.59000001102686,943.9750000019558,1921.5950000216253],"keys_pressed":["leftarrow","leftarrow","rightarrow","leftarrow","leftarrow"],"horizon":5,"forced_choices":["leftarrow","leftarrow","rightarrow","leftarrow"],"right_color":"orange","left_color":"lightblue","left_mu":40,"right_mu":28,"left_numbers":[57,45,34,32,23],"right_numbers":[40,23,36,27,26],"points_earned":193,"phase":"task","trial_type":"horizons-task","trial_index":33,"time_elapsed":601850,"internal_node_id":"0.0-29.0","task_version":"0.2"},{"response_times":[651.7950000124983,655.4500000202097,497.84000002546236,814.7250000038184,639.7449999931268,1713.7750000110827,846.3050000136718,1151.9600000465289,1057.6149999978952,638.3499999647029],"keys_pressed":["leftarrow","rightarrow","rightarrow","rightarrow","leftarrow","leftarrow","leftarrow","rightarrow","rightarrow","rightarrow"],"horizon":10,"forced_choices":["leftarrow","rightarrow","rightarrow","rightarrow"],"right_color":"lightblue","left_color":"orange","left_mu":60,"right_mu":68,"left_numbers":[55,54,61,56,59,54,65,66,51,51],"right_numbers":[84,55,83,73,72,71,65,75,85,69],"points_earned":673,"phase":"task","trial_type":"horizons-task","trial_index":34,"time_elapsed":612022,"internal_node_id":"0.0-30.0","task_version":"0.2"},{"response_times":[848.7999999779277,702.2349999751896,655.9700000216253,497.73499998264015,1086.3749999552965,593.4250000282191,590.0000000256114,497.960000007879,1998.5149999847636,1167.9149999981746],"keys_pressed":["rightarrow","rightarrow","leftarrow","leftarrow","rightarrow","rightarrow","leftarrow","leftarrow","rightarrow","leftarrow"],"horizon":10,"forced_choices":["rightarrow","rightarrow","leftarrow","leftarrow"],"right_color":"lightblue","left_color":"orange","left_mu":60,"right_mu":52,"left_numbers":[72,51,60,57,29,71,69,55,57,46],"right_numbers":[57,46,56,46,51,60,57,61,37,63],"points_earned":538,"phase":"task","trial_type":"horizons-task","trial_index":35,"time_elapsed":622163,"internal_node_id":"0.0-31.0","task_version":"0.2"},{"response_times":[801.099999982398,514.0949999913573,686.4000000059605,466.07999998377636,1181.9649999961257,465.6400000094436,2446.2499999790452,559.9799999617971,769.3699999945238,654.5749999932013],"keys_pressed":["rightarrow","rightarrow","leftarrow","leftarrow","rightarrow","rightarrow","rightarrow","leftarrow","leftarrow","leftarrow"],"horizon":10,"forced_choices":["rightarrow","rightarrow","leftarrow","leftarrow"],"right_color":"orange","left_color":"lightblue","left_mu":60,"right_mu":56,"left_numbers":[62,76,63,55,75,47,58,65,63,57],"right_numbers":[41,64,56,51,46,55,58,61,54,54],"points_earned":567,"phase":"task","trial_type":"horizons-task","trial_index":36,"time_elapsed":632212,"internal_node_id":"0.0-32.0","task_version":"0.2"},{"response_times":[1106.4499999629334,750.3600000054576,559.9100000108592,608.040000020992,2257.6000000117347,669.5400000317022,594.3850000039674,574.3050000164658,608.7599999736995,703.2900000340305],"keys_pressed":["leftarrow","rightarrow","leftarrow","rightarrow","rightarrow","leftarrow","leftarrow","rightarrow","rightarrow","leftarrow"],"horizon":10,"forced_choices":["leftarrow","rightarrow","leftarrow","rightarrow"],"right_color":"orange","left_color":"lightblue","left_mu":60,"right_mu":48,"left_numbers":[58,62,62,58,50,70,59,61,55,60],"right_numbers":[39,53,37,49,44,38,42,49,47,54],"points_earned":551,"phase":"task","trial_type":"horizons-task","trial_index":37,"time_elapsed":642146,"internal_node_id":"0.0-33.0","task_version":"0.2"},{"response_times":[916.1600000225008,638.1149999797344,737.4999999883585,670.2649999642745,928.7550000008196,671.329999982845,495.10499997995794,658.629999961704,1373.2449999661185,7056.880000047386],"keys_pressed":["leftarrow","leftarrow","leftarrow","rightarrow","rightarrow","rightarrow","leftarrow","leftarrow","rightarrow","leftarrow"],"horizon":10,"forced_choices":["leftarrow","leftarrow","leftarrow","rightarrow"],"right_color":"lightblue","left_color":"orange","left_mu":40,"right_mu":32,"left_numbers":[38,46,36,49,39,46,44,31,49,41],"right_numbers":[23,30,45,34,41,24,31,19,23,45],"points_earned":358,"phase":"task","trial_type":"horizons-task","trial_index":38,"time_elapsed":657798,"internal_node_id":"0.0-34.0","task_version":"0.2"},{"response_times":[591.2249999819323,542.2700000344776,433.78500000108033,845.8349999855272,544.4250000291504,497.60999996215105,1614.3299999530427,447.87999999243766,2592.20999997342,641.3199999951757],"keys_pressed":["leftarrow","rightarrow","rightarrow","rightarrow","leftarrow","leftarrow","leftarrow","rightarrow","leftarrow","leftarrow"],"horizon":10,"forced_choices":["leftarrow","rightarrow","rightarrow","rightarrow"],"right_color":"lightblue","left_color":"orange","left_mu":60,"right_mu":52,"left_numbers":[55,65,73,51,64,64,66,52,60,60],"right_numbers":[46,51,43,46,54,56,51,52,46,45],"points_earned":561,"phase":"task","trial_type":"horizons-task","trial_index":39,"time_elapsed":668055,"internal_node_id":"0.0-35.0","task_version":"0.2"},{"response_times":[796.0300000268035,847.6899999659508,737.6550000044517,574.3699999875389,753.5250000073574,766.4649999933317,593.410000030417,718.5649999883026,4625.720000010915,718.0700000026263],"keys_pressed":["rightarrow","leftarrow","leftarrow","rightarrow","rightarrow","leftarrow","leftarrow","rightarrow","rightarrow","leftarrow"],"horizon":10,"forced_choices":["rightarrow","leftarrow","leftarrow","rightarrow"],"right_color":"orange","left_color":"lightblue","left_mu":40,"right_mu":20,"left_numbers":[32,30,47,44,47,27,32,37,27,33],"right_numbers":[18,33,28,28,21,21,9,13,16,23],"points_earned":265,"phase":"task","trial_type":"horizons-task","trial_index":40,"time_elapsed":680690,"internal_node_id":"0.0-36.0","task_version":"0.2"},{"response_times":[882.080000010319,478.220000048168,1040.9199999994598,655.1650000037625,1775.2899999613874],"keys_pressed":["leftarrow","leftarrow","leftarrow","rightarrow","leftarrow"],"horizon":5,"forced_choices":["leftarrow","leftarrow","leftarrow","rightarrow"],"right_color":"lightblue","left_color":"orange","left_mu":40,"right_mu":32,"left_numbers":[43,42,32,51,55],"right_numbers":[33,24,28,29,28],"points_earned":201,"phase":"task","trial_type":"horizons-task","trial_index":41,"time_elapsed":687026,"internal_node_id":"0.0-37.0","task_version":"0.2"},{"response_times":[672.5450000376441,703.9499999955297,559.4949999940582,786.2549999845214,1390.1950000436045],"keys_pressed":["rightarrow","leftarrow","rightarrow","rightarrow","rightarrow"],"horizon":5,"forced_choices":["rightarrow","leftarrow","rightarrow","rightarrow"],"right_color":"orange","left_color":"lightblue","left_mu":40,"right_mu":70,"left_numbers":[37,42,29,45,48],"right_numbers":[67,67,75,61,64],"points_earned":309,"phase":"task","trial_type":"horizons-task","trial_index":42,"time_elapsed":692641,"internal_node_id":"0.0-38.0","task_version":"0.2"},{"response_times":[736.8750000023283,751.1850000009872,512.7399999764748,511.7200000095181,2000.4750000080094],"keys_pressed":["leftarrow","rightarrow","leftarrow","rightarrow","rightarrow"],"horizon":5,"forced_choices":["leftarrow","rightarrow","leftarrow","rightarrow"],"right_color":"orange","left_color":"lightblue","left_mu":40,"right_mu":44,"left_numbers":[44,49,16,51,46],"right_numbers":[50,52,36,34,38],"points_earned":184,"phase":"task","trial_type":"horizons-task","trial_index":43,"time_elapsed":698656,"internal_node_id":"0.0-39.0","task_version":"0.2"},{"response_times":[658.9050000184216,991.2249999470077,641.3400000310503,1405.7400000165217,2608.7350000161678],"keys_pressed":["rightarrow","leftarrow","leftarrow","leftarrow","rightarrow"],"horizon":5,"forced_choices":["rightarrow","leftarrow","leftarrow","leftarrow"],"right_color":"lightblue","left_color":"orange","left_mu":60,"right_mu":80,"left_numbers":[58,71,69,55,78],"right_numbers":[75,89,95,71,83],"points_earned":353,"phase":"task","trial_type":"horizons-task","trial_index":44,"time_elapsed":706465,"internal_node_id":"0.0-40.0","task_version":"0.2"},{"response_times":[1122.5299999932759,494.2799999844283,609.5450000138953,589.9999999674037,1041.144999966491,640.8750000409782,750.3150000120513,576.5499999979511,1936.9249999872409,830.4050000151619],"keys_pressed":["rightarrow","leftarrow","leftarrow","leftarrow","rightarrow","rightarrow","rightarrow","leftarrow","leftarrow","rightarrow"],"horizon":10,"forced_choices":["rightarrow","leftarrow","leftarrow","leftarrow"],"right_color":"lightblue","left_color":"orange","left_mu":60,"right_mu":80,"left_numbers":[51,66,68,63,61,44,70,72,29,55],"right_numbers":[76,71,72,90,82,79,84,73,68,73],"points_earned":692,"phase":"task","trial_type":"horizons-task","trial_index":45,"time_elapsed":716560,"internal_node_id":"0.0-41.0","task_version":"0.2"},{"response_times":[930.1099999574944,766.3849999662489,543.9600000390783,495.7600000197999,1313.8550000148825,1038.2899999967776,768.6699999612756,495.28999999165535,1184.0099999681115,831.9149999879301],"keys_pressed":["rightarrow","leftarrow","rightarrow","leftarrow","leftarrow","rightarrow","rightarrow","leftarrow","rightarrow","leftarrow"],"horizon":10,"forced_choices":["rightarrow","leftarrow","rightarrow","leftarrow"],"right_color":"lightblue","left_color":"orange","left_mu":60,"right_mu":30,"left_numbers":[63,48,53,62,68,46,54,63,69,66],"right_numbers":[34,33,24,30,28,42,22,39,36,37],"points_earned":465,"phase":"task","trial_type":"horizons-task","trial_index":46,"time_elapsed":726431,"internal_node_id":"0.0-42.0","task_version":"0.2"},{"response_times":[720.7849999540485,641.4000000222586,493.8650000258349,816.324999963399,721.8350000330247,574.3800000054762,607.9949999693781,977.5699999881908,686.0900000319816,3040.2350000222214],"keys_pressed":["rightarrow","rightarrow","rightarrow","leftarrow","leftarrow","leftarrow","rightarrow","rightarrow","leftarrow","rightarrow"],"horizon":10,"forced_choices":["rightarrow","rightarrow","rightarrow","leftarrow"],"right_color":"lightblue","left_color":"orange","left_mu":60,"right_mu":64,"left_numbers":[74,54,71,58,50,58,44,46,53,57],"right_numbers":[63,68,65,66,50,65,61,55,63,72],"points_earned":603,"phase":"task","trial_type":"horizons-task","trial_index":47,"time_elapsed":737215,"internal_node_id":"0.0-43.0","task_version":"0.2"},{"response_times":[1026.5699999872595,557.9149999539368,672.0300000160933,657.4600000167266,1022.1399999572895,417.9850000073202,638.3400000049733,609.5499999937601,543.0499999783933,1199.3050000164658],"keys_pressed":["rightarrow","rightarrow","leftarrow","leftarrow","rightarrow","rightarrow","leftarrow","leftarrow","rightarrow","leftarrow"],"horizon":10,"forced_choices":["rightarrow","rightarrow","leftarrow","leftarrow"],"right_color":"orange","left_color":"lightblue","left_mu":40,"right_mu":28,"left_numbers":[41,40,31,48,44,34,43,48,39,49],"right_numbers":[25,28,41,13,27,23,18,28,28,32],"points_earned":350,"phase":"task","trial_type":"horizons-task","trial_index":48,"time_elapsed":746063,"internal_node_id":"0.0-44.0","task_version":"0.2"},{"response_times":[784.8549999762326,593.6099999817088,702.3499999777414,577.5000000139698,2078.4650000277907],"keys_pressed":["rightarrow","rightarrow","leftarrow","leftarrow","leftarrow"],"horizon":5,"forced_choices":["rightarrow","rightarrow","leftarrow","leftarrow"],"right_color":"orange","left_color":"lightblue","left_mu":40,"right_mu":28,"left_numbers":[42,36,29,42,39],"right_numbers":[22,21,23,24,24],"points_earned":153,"phase":"task","trial_type":"horizons-task","trial_index":49,"time_elapsed":752303,"internal_node_id":"0.0-45.0","task_version":"0.2"},{"response_times":[977.5900000240654,942.0449999743141,512.9199999500997,527.9749999754131,1471.9700000132434],"keys_pressed":["leftarrow","rightarrow","leftarrow","rightarrow","leftarrow"],"horizon":5,"forced_choices":["leftarrow","rightarrow","leftarrow","rightarrow"],"right_color":"orange","left_color":"lightblue","left_mu":60,"right_mu":48,"left_numbers":[74,51,64,49,59],"right_numbers":[46,34,50,45,46],"points_earned":276,"phase":"task","trial_type":"horizons-task","trial_index":50,"time_elapsed":758237,"internal_node_id":"0.0-46.0","task_version":"0.2"},{"view_history":"[{\"page_index\":0,\"viewing_time\":30882.469999953173},{\"page_index\":1,\"viewing_time\":2400.9700000169687}]","rt":33283.63999997964,"trial_type":"instructions","trial_index":51,"time_elapsed":791520,"internal_node_id":"0.0-47.0","task_version":"0.2"},{"response_times":[650.8799999719486,401.9749999861233,526.0949999792501,495.88499998208135,945.9600000409409,733.345000015106,658.0500000272878,478.13000000314787,546.0599999642,574.190000013914],"keys_pressed":["leftarrow","leftarrow","rightarrow","leftarrow","leftarrow","rightarrow","rightarrow","leftarrow","leftarrow","rightarrow"],"horizon":10,"forced_choices":["leftarrow","leftarrow","rightarrow","leftarrow"],"right_color":"orange","left_color":"lightblue","left_mu":60,"right_mu":72,"left_numbers":[60,44,47,63,49,57,61,57,56,69],"right_numbers":[77,73,81,60,74,76,71,76,73,74],"points_earned":631,"phase":"task","trial_type":"horizons-task","trial_index":52,"time_elapsed":799037,"internal_node_id":"0.0-48.0","task_version":"0.2"},{"response_times":[625.9100000024773,510.3250000393018,689.7150000440888,669.9550000485033,2002.6249999646097],"keys_pressed":["rightarrow","leftarrow","leftarrow","leftarrow","leftarrow"],"horizon":5,"forced_choices":["rightarrow","leftarrow","leftarrow","leftarrow"],"right_color":"lightblue","left_color":"orange","left_mu":60,"right_mu":30,"left_numbers":[63,64,53,55,68],"right_numbers":[40,30,36,19,38],"points_earned":280,"phase":"task","trial_type":"horizons-task","trial_index":53,"time_elapsed":805040,"internal_node_id":"0.0-49.0","task_version":"0.2"},{"response_times":[780.5149999912828,737.3049999587238,1006.7399999825284,1408.0449999892153,590.9649999812245],"keys_pressed":["leftarrow","leftarrow","rightarrow","leftarrow","rightarrow"],"horizon":5,"forced_choices":["leftarrow","leftarrow","rightarrow","leftarrow"],"right_color":"orange","left_color":"lightblue","left_mu":60,"right_mu":72,"left_numbers":[52,53,54,55,61],"right_numbers":[76,82,83,60,56],"points_earned":299,"phase":"task","trial_type":"horizons-task","trial_index":54,"time_elapsed":811068,"internal_node_id":"0.0-50.0","task_version":"0.2"},{"response_times":[656.215000024531,481.8000000086613,574.4249999988824,559.949999966193,881.4849999616854,830.4849999840371,849.6699999668635,1310.364999982994,1183.9749999926426,2719.92499998305],"keys_pressed":["leftarrow","leftarrow","rightarrow","leftarrow","leftarrow","rightarrow","rightarrow","leftarrow","rightarrow","leftarrow"],"horizon":10,"forced_choices":["leftarrow","leftarrow","rightarrow","leftarrow"],"right_color":"orange","left_color":"lightblue","left_mu":40,"right_mu":28,"left_numbers":[30,49,44,45,34,42,42,32,37,38],"right_numbers":[39,28,37,23,36,35,23,28,25,16],"points_earned":348,"phase":"task","trial_type":"horizons-task","trial_index":55,"time_elapsed":822619,"internal_node_id":"0.0-51.0","task_version":"0.2"},{"response_times":[723.0649999692105,414.4199999864213,543.9400000032037,449.640000006184,1422.3800000036135],"keys_pressed":["leftarrow","leftarrow","rightarrow","rightarrow","rightarrow"],"horizon":5,"forced_choices":["leftarrow","leftarrow","rightarrow","rightarrow"],"right_color":"orange","left_color":"lightblue","left_mu":60,"right_mu":72,"left_numbers":[67,54,70,62,63],"right_numbers":[77,59,82,56,61],"points_earned":320,"phase":"task","trial_type":"horizons-task","trial_index":56,"time_elapsed":827674,"internal_node_id":"0.0-52.0","task_version":"0.2"},{"response_times":[676.4949999633245,558.0700000282377,657.390000007581,574.5900000329129,2751.994999998715],"keys_pressed":["rightarrow","leftarrow","leftarrow","rightarrow","leftarrow"],"horizon":5,"forced_choices":["rightarrow","leftarrow","leftarrow","rightarrow"],"right_color":"orange","left_color":"lightblue","left_mu":60,"right_mu":40,"left_numbers":[51,57,41,64,59],"right_numbers":[47,42,30,46,53],"points_earned":250,"phase":"task","trial_type":"horizons-task","trial_index":57,"time_elapsed":834395,"internal_node_id":"0.0-53.0","task_version":"0.2"},{"response_times":[659.1250000055879,637.8750000149012,576.2449999456294,415.97999999066815,431.99000001186505,543.9950000145473,497.4999999976717,542.2999999718741,609.3600000021979,526.7549999989569],"keys_pressed":["leftarrow","rightarrow","leftarrow","rightarrow","leftarrow","rightarrow","rightarrow","leftarrow","leftarrow","rightarrow"],"horizon":10,"forced_choices":["leftarrow","rightarrow","leftarrow","rightarrow"],"right_color":"lightblue","left_color":"orange","left_mu":60,"right_mu":90,"left_numbers":[48,63,59,58,59,63,57,66,54,55],"right_numbers":[113,71,86,91,81,102,100,80,91,88],"points_earned":738,"phase":"task","trial_type":"horizons-task","trial_index":58,"time_elapsed":841342,"internal_node_id":"0.0-54.0","task_version":"0.2"},{"response_times":[815.2650000411086,830.4800000041723,656.7200000281446,879.2300000204705,559.9950000178069,880.025000020396,1121.549999981653,558.3499999484047,689.6600000327453,1085.6350000249222],"keys_pressed":["rightarrow","leftarrow","rightarrow","leftarrow","rightarrow","leftarrow","leftarrow","rightarrow","rightarrow","leftarrow"],"horizon":10,"forced_choices":["rightarrow","leftarrow","rightarrow","leftarrow"],"right_color":"orange","left_color":"lightblue","left_mu":40,"right_mu":10,"left_numbers":[37,31,52,38,27,37,39,39,28,32],"right_numbers":[8,21,9,10,18,0,15,18,17,0],"points_earned":247,"phase":"task","trial_type":"horizons-task","trial_index":59,"time_elapsed":850923,"internal_node_id":"0.0-55.0","task_version":"0.2"},{"response_times":[833.9300000225194,813.6499999673106,480.77000002376735,689.6700000506826,1742.5299999886192],"keys_pressed":["leftarrow","rightarrow","leftarrow","leftarrow","leftarrow"],"horizon":5,"forced_choices":["leftarrow","rightarrow","leftarrow","leftarrow"],"right_color":"lightblue","left_color":"orange","left_mu":40,"right_mu":36,"left_numbers":[32,37,33,40,30],"right_numbers":[44,28,55,49,20],"points_earned":163,"phase":"task","trial_type":"horizons-task","trial_index":60,"time_elapsed":856989,"internal_node_id":"0.0-56.0","task_version":"0.2"},{"response_times":[605.8649999904446,559.4149999669753,545.5399999627843,494.42000000271946,1089.734999986831,590.1999999769032,865.3300000005402,1053.8200000301003,1376.5049999929033,4770.075000007637],"keys_pressed":["leftarrow","rightarrow","rightarrow","leftarrow","leftarrow","rightarrow","rightarrow","leftarrow","rightarrow","rightarrow"],"horizon":10,"forced_choices":["leftarrow","rightarrow","rightarrow","leftarrow"],"right_color":"lightblue","left_color":"orange","left_mu":40,"right_mu":52,"left_numbers":[32,25,52,49,48,30,44,44,35,38],"right_numbers":[40,47,59,45,62,58,46,53,40,42],"points_earned":465,"phase":"task","trial_type":"horizons-task","trial_index":61,"time_elapsed":870444,"internal_node_id":"0.0-57.0","task_version":"0.2"},{"response_times":[797.275000018999,527.2200000472367,642.2050000401214,494.3399999756366,849.5450000045821,494.5050000096671,529.660000000149,541.5149999898858,594.3049999768846,2510.4799999971874],"keys_pressed":["leftarrow","rightarrow","rightarrow","leftarrow","leftarrow","rightarrow","rightarrow","leftarrow","leftarrow","rightarrow"],"horizon":10,"forced_choices":["leftarrow","rightarrow","rightarrow","leftarrow"],"right_color":"orange","left_color":"lightblue","left_mu":40,"right_mu":48,"left_numbers":[36,38,37,35,47,38,38,37,35,46],"right_numbers":[62,47,42,50,48,52,46,46,51,49],"points_earned":426,"phase":"task","trial_type":"horizons-task","trial_index":62,"time_elapsed":879929,"internal_node_id":"0.0-58.0","task_version":"0.2"},{"response_times":[1074.0750000113621,558.0349999945611,576.2050000485033,592.0650000334717,1215.0400000391528],"keys_pressed":["rightarrow","rightarrow","leftarrow","rightarrow","leftarrow"],"horizon":5,"forced_choices":["rightarrow","rightarrow","leftarrow","rightarrow"],"right_color":"orange","left_color":"lightblue","left_mu":60,"right_mu":48,"left_numbers":[62,71,69,65,38],"right_numbers":[48,59,38,53,36],"points_earned":267,"phase":"task","trial_type":"horizons-task","trial_index":63,"time_elapsed":885450,"internal_node_id":"0.0-59.0","task_version":"0.2"},{"response_times":[624.0350000443868,561.3149999990128,829.8899999936111,592.7249999949709,2639.1050000092946],"keys_pressed":["rightarrow","rightarrow","rightarrow","leftarrow","rightarrow"],"horizon":5,"forced_choices":["rightarrow","rightarrow","rightarrow","leftarrow"],"right_color":"lightblue","left_color":"orange","left_mu":60,"right_mu":64,"left_numbers":[49,66,71,51,48],"right_numbers":[60,63,46,65,70],"points_earned":290,"phase":"task","trial_type":"horizons-task","trial_index":64,"time_elapsed":892201,"internal_node_id":"0.0-60.0","task_version":"0.2"},{"response_times":[1456.2450000084937,929.3150000157766,542.7400000044145,1040.0549999903888,1999.9649999663234],"keys_pressed":["leftarrow","leftarrow","rightarrow","leftarrow","rightarrow"],"horizon":5,"forced_choices":["leftarrow","leftarrow","rightarrow","leftarrow"],"right_color":"orange","left_color":"lightblue","left_mu":40,"right_mu":44,"left_numbers":[41,46,41,26,37],"right_numbers":[37,53,32,45,47],"points_earned":192,"phase":"task","trial_type":"horizons-task","trial_index":65,"time_elapsed":899672,"internal_node_id":"0.0-61.0","task_version":"0.2"},{"response_times":[721.4350000140257,591.9649999705143,449.5749999769032,478.3750000060536,640.7100000069477,543.390000006184,416.55500000342727,591.2499999976717,2447.98500003526,960.674999980256],"keys_pressed":["leftarrow","rightarrow","rightarrow","leftarrow","leftarrow","rightarrow","rightarrow","leftarrow","rightarrow","rightarrow"],"horizon":10,"forced_choices":["leftarrow","rightarrow","rightarrow","leftarrow"],"right_color":"lightblue","left_color":"orange","left_mu":60,"right_mu":68,"left_numbers":[54,58,59,58,46,63,51,47,59,73],"right_numbers":[56,67,71,71,66,61,69,85,51,68],"points_earned":592,"phase":"task","trial_type":"horizons-task","trial_index":66,"time_elapsed":909016,"internal_node_id":"0.0-62.0","task_version":"0.2"},{"response_times":[705.359999963548,495.009999955073,657.839999999851,589.9799999897368,1169.8449999676086,446.23499998124316,529.3599999858998,654.6049999888055,2287.4449999653734,690.0799999712035],"keys_pressed":["rightarrow","leftarrow","leftarrow","rightarrow","rightarrow","leftarrow","leftarrow","rightarrow","leftarrow","leftarrow"],"horizon":10,"forced_choices":["rightarrow","leftarrow","leftarrow","rightarrow"],"right_color":"orange","left_color":"lightblue","left_mu":60,"right_mu":40,"left_numbers":[54,70,52,54,69,77,49,43,55,60],"right_numbers":[43,41,38,24,37,42,29,50,38,42],"points_earned":517,"phase":"task","trial_type":"horizons-task","trial_index":67,"time_elapsed":918743,"internal_node_id":"0.0-63.0","task_version":"0.2"},{"response_times":[768.6899999971502,545.5200000433251,798.3700000331737,511.91000000108033,1744.1000000108033],"keys_pressed":["leftarrow","leftarrow","leftarrow","rightarrow","leftarrow"],"horizon":5,"forced_choices":["leftarrow","leftarrow","leftarrow","rightarrow"],"right_color":"orange","left_color":"lightblue","left_mu":60,"right_mu":56,"left_numbers":[53,61,67,58,58],"right_numbers":[60,52,63,59,61],"points_earned":298,"phase":"task","trial_type":"horizons-task","trial_index":68,"time_elapsed":924614,"internal_node_id":"0.0-64.0","task_version":"0.2"},{"response_times":[804.100000008475,590.0949999922886,464.5149999996647,895.6250000046566,4143.969999975525],"keys_pressed":["leftarrow","rightarrow","rightarrow","rightarrow","leftarrow"],"horizon":5,"forced_choices":["leftarrow","rightarrow","rightarrow","rightarrow"],"right_color":"lightblue","left_color":"orange","left_mu":60,"right_mu":52,"left_numbers":[58,59,72,54,60],"right_numbers":[62,53,47,62,64],"points_earned":280,"phase":"task","trial_type":"horizons-task","trial_index":69,"time_elapsed":933015,"internal_node_id":"0.0-65.0","task_version":"0.2"},{"response_times":[1040.4499999713153,655.3050000220537,736.510000017006,865.6099999789149,702.4749999982305],"keys_pressed":["rightarrow","leftarrow","rightarrow","rightarrow","leftarrow"],"horizon":5,"forced_choices":["rightarrow","leftarrow","rightarrow","rightarrow"],"right_color":"orange","left_color":"lightblue","left_mu":40,"right_mu":10,"left_numbers":[43,29,45,52,40],"right_numbers":[0,2,3,0,9],"points_earned":72,"phase":"task","trial_type":"horizons-task","trial_index":70,"time_elapsed":938518,"internal_node_id":"0.0-66.0","task_version":"0.2"},{"response_times":[800.6700000260025,688.0250000394881,543.8999999896623,431.9099999847822,400.0149999628775,992.0649999985471,703.8550000288524,735.4400000185706,752.5749999913387,5425.660000008065],"keys_pressed":["rightarrow","leftarrow","rightarrow","leftarrow","rightarrow","leftarrow","rightarrow","leftarrow","rightarrow","rightarrow"],"horizon":10,"forced_choices":["rightarrow","leftarrow","rightarrow","leftarrow"],"right_color":"lightblue","left_color":"orange","left_mu":60,"right_mu":64,"left_numbers":[56,67,64,62,54,61,62,59,44,57],"right_numbers":[74,60,74,52,68,50,74,62,65,48],"points_earned":652,"phase":"task","trial_type":"horizons-task","trial_index":71,"time_elapsed":951494,"internal_node_id":"0.0-67.0","task_version":"0.2"},{"response_times":[848.5949999885634,479.1749999858439,514.4450000370853,734.2449999996461,1041.4250000030734],"keys_pressed":["rightarrow","leftarrow","leftarrow","leftarrow","leftarrow"],"horizon":5,"forced_choices":["rightarrow","leftarrow","leftarrow","leftarrow"],"right_color":"orange","left_color":"lightblue","left_mu":40,"right_mu":20,"left_numbers":[32,32,24,38,41],"right_numbers":[2,43,15,13,28],"points_earned":137,"phase":"task","trial_type":"horizons-task","trial_index":72,"time_elapsed":956618,"internal_node_id":"0.0-68.0","task_version":"0.2"},{"response_times":[651.6650000121444,528.4100000280887,415.949999995064,464.37999996123835,655.5500000249594,721.8750000465661,509.189999953378,912.9199999733828,495.81499997293577,1935.5150000192225],"keys_pressed":["leftarrow","rightarrow","leftarrow","leftarrow","rightarrow","rightarrow","leftarrow","rightarrow","leftarrow","rightarrow"],"horizon":10,"forced_choices":["leftarrow","rightarrow","leftarrow","leftarrow"],"right_color":"lightblue","left_color":"orange","left_mu":60,"right_mu":90,"left_numbers":[70,57,53,39,67,80,56,71,58,60],"right_numbers":[91,80,85,96,84,99,92,98,71,103],"points_earned":740,"phase":"task","trial_type":"horizons-task","trial_index":73,"time_elapsed":965414,"internal_node_id":"0.0-69.0","task_version":"0.2"},{"response_times":[738.1399999721907,557.8650000388734,496.4299999992363,464.1549999942072,1151.7449999810196],"keys_pressed":["rightarrow","leftarrow","rightarrow","leftarrow","rightarrow"],"horizon":5,"forced_choices":["rightarrow","leftarrow","rightarrow","leftarrow"],"right_color":"lightblue","left_color":"orange","left_mu":60,"right_mu":64,"left_numbers":[70,57,56,57,62],"right_numbers":[72,53,63,71,59],"points_earned":308,"phase":"task","trial_type":"horizons-task","trial_index":74,"time_elapsed":970325,"internal_node_id":"0.0-70.0","task_version":"0.2"},{"response_times":[816.335000039544,560.9500000136904,479.5000000158325,481.0699999798089,478.8750000298023,575.1700000255369,512.7750000101514,543.9300000434741,559.9999999976717,5554.210000031162],"keys_pressed":["leftarrow","leftarrow","rightarrow","leftarrow","rightarrow","leftarrow","rightarrow","leftarrow","rightarrow","rightarrow"],"horizon":10,"forced_choices":["leftarrow","leftarrow","rightarrow","leftarrow"],"right_color":"orange","left_color":"lightblue","left_mu":40,"right_mu":44,"left_numbers":[51,37,39,39,39,36,28,41,42,45],"right_numbers":[20,29,35,51,57,41,45,37,38,66],"points_earned":445,"phase":"task","trial_type":"horizons-task","trial_index":75,"time_elapsed":982393,"internal_node_id":"0.0-71.0","task_version":"0.2"},{"response_times":[908.6399999796413,399.9150000163354,625.629999965895,558.3699999842793,1169.469999964349],"keys_pressed":["rightarrow","leftarrow","leftarrow","rightarrow","rightarrow"],"horizon":5,"forced_choices":["rightarrow","leftarrow","leftarrow","rightarrow"],"right_color":"lightblue","left_color":"orange","left_mu":40,"right_mu":36,"left_numbers":[42,33,36,44,35],"right_numbers":[42,48,39,49,43],"points_earned":203,"phase":"task","trial_type":"horizons-task","trial_index":76,"time_elapsed":987557,"internal_node_id":"0.0-72.0","task_version":"0.2"},{"response_times":[608.2000000169501,561.1149999895133,558.8500000303611,416.315000038594,527.5849999743514,498.06000001262873,493.91499999910593,417.6549999974668,590.2149999747053,2128.150000004098],"keys_pressed":["leftarrow","leftarrow","rightarrow","rightarrow","leftarrow","leftarrow","rightarrow","rightarrow","leftarrow","rightarrow"],"horizon":10,"forced_choices":["leftarrow","leftarrow","rightarrow","rightarrow"],"right_color":"lightblue","left_color":"orange","left_mu":40,"right_mu":60,"left_numbers":[55,24,41,47,47,43,30,25,26,34],"right_numbers":[60,55,58,51,59,52,66,45,56,73],"points_earned":488,"phase":"task","trial_type":"horizons-task","trial_index":77,"time_elapsed":995861,"internal_node_id":"0.0-73.0","task_version":"0.2"},{"response_times":[687.0200000121258,463.83500000229105,529.694999975618,942.3599999863654,1969.524999964051],"keys_pressed":["leftarrow","rightarrow","rightarrow","rightarrow","rightarrow"],"horizon":5,"forced_choices":["leftarrow","rightarrow","rightarrow","rightarrow"],"right_color":"lightblue","left_color":"orange","left_mu":40,"right_mu":60,"left_numbers":[49,45,36,37,52],"right_numbers":[61,59,66,45,73],"points_earned":292,"phase":"task","trial_type":"horizons-task","trial_index":78,"time_elapsed":1001958,"internal_node_id":"0.0-74.0","task_version":"0.2"},{"response_times":[686.3649999722838,687.86500004353,640.5650000087917,591.5950000053272,1279.6550000202842],"keys_pressed":["leftarrow","rightarrow","rightarrow","leftarrow","rightarrow"],"horizon":5,"forced_choices":["leftarrow","rightarrow","rightarrow","leftarrow"],"right_color":"lightblue","left_color":"orange","left_mu":40,"right_mu":52,"left_numbers":[36,48,43,40,49],"right_numbers":[35,56,46,48,52],"points_earned":230,"phase":"task","trial_type":"horizons-task","trial_index":79,"time_elapsed":1007348,"internal_node_id":"0.0-75.0","task_version":"0.2"},{"response_times":[752.4599999887869,447.95000000158325,415.46999994898215,480.5250000208616,912.4749999609776],"keys_pressed":["leftarrow","rightarrow","leftarrow","rightarrow","rightarrow"],"horizon":5,"forced_choices":["leftarrow","rightarrow","leftarrow","rightarrow"],"right_color":"orange","left_color":"lightblue","left_mu":40,"right_mu":70,"left_numbers":[40,39,31,36,42],"right_numbers":[72,76,64,67,69],"points_earned":283,"phase":"task","trial_type":"horizons-task","trial_index":80,"time_elapsed":1011859,"internal_node_id":"0.0-76.0","task_version":"0.2"},{"response_times":[657.439999980852,609.5150000182912,605.4700000095181,402.57999999448657,605.5100000230595,433.385000040289,479.18000002391636,497.84000002546236,446.28000003285706,2641.735000011977],"keys_pressed":["leftarrow","leftarrow","rightarrow","rightarrow","leftarrow","leftarrow","rightarrow","rightarrow","leftarrow","leftarrow"],"horizon":10,"forced_choices":["leftarrow","leftarrow","rightarrow","rightarrow"],"right_color":"lightblue","left_color":"orange","left_mu":40,"right_mu":32,"left_numbers":[44,45,34,36,34,35,27,51,30,27],"right_numbers":[33,29,33,25,24,29,42,18,37,25],"points_earned":333,"phase":"task","trial_type":"horizons-task","trial_index":81,"time_elapsed":1020739,"internal_node_id":"0.0-77.0","task_version":"0.2"},{"response_times":[991.440000012517,560.654999979306,479.68499996932223,448.22500000009313,784.6250000293367],"keys_pressed":["rightarrow","leftarrow","rightarrow","leftarrow","leftarrow"],"horizon":5,"forced_choices":["rightarrow","leftarrow","rightarrow","leftarrow"],"right_color":"orange","left_color":"lightblue","left_mu":40,"right_mu":10,"left_numbers":[35,41,39,45,44],"right_numbers":[0,0,19,7,2],"points_earned":149,"phase":"task","trial_type":"horizons-task","trial_index":82,"time_elapsed":1025507,"internal_node_id":"0.0-78.0","task_version":"0.2"},{"response_times":[576.9299999810755,879.9049999797717,607.979999971576,639.8749999934807,4096.064999990631],"keys_pressed":["rightarrow","rightarrow","leftarrow","rightarrow","leftarrow"],"horizon":5,"forced_choices":["rightarrow","rightarrow","leftarrow","rightarrow"],"right_color":"orange","left_color":"lightblue","left_mu":40,"right_mu":48,"left_numbers":[39,35,45,34,53],"right_numbers":[49,41,58,43,41],"points_earned":231,"phase":"task","trial_type":"horizons-task","trial_index":83,"time_elapsed":1033811,"internal_node_id":"0.0-79.0","task_version":"0.2"},{"response_times":[576.4900000067428,367.25999996997416,464.67500005383044,1248.0050000012852,1567.91499996325,961.1600000062026,462.7450000261888,657.550000003539,382.49499996891245,2335.97999997437],"keys_pressed":["rightarrow","leftarrow","rightarrow","rightarrow","leftarrow","leftarrow","rightarrow","rightarrow","leftarrow","rightarrow"],"horizon":10,"forced_choices":["rightarrow","leftarrow","rightarrow","rightarrow"],"right_color":"orange","left_color":"lightblue","left_mu":40,"right_mu":70,"left_numbers":[42,36,46,27,34,44,22,30,32,25],"right_numbers":[47,64,69,57,62,71,64,77,57,80],"points_earned":540,"phase":"task","trial_type":"horizons-task","trial_index":84,"time_elapsed":1044338,"internal_node_id":"0.0-80.0","task_version":"0.2"},{"response_times":[770.2249999856576,558.1900000106543,623.8649999722838,527.4499999941327,464.57000001100823,2977.6999999885447,526.1000000173226,529.6799999778159,494.49000001186505,5761.655000038445],"keys_pressed":["rightarrow","rightarrow","leftarrow","rightarrow","leftarrow","leftarrow","rightarrow","rightarrow","leftarrow","leftarrow"],"horizon":10,"forced_choices":["rightarrow","rightarrow","leftarrow","rightarrow"],"right_color":"orange","left_color":"lightblue","left_mu":60,"right_mu":48,"left_numbers":[83,57,57,74,54,58,55,49,57,67],"right_numbers":[40,53,54,37,47,50,42,65,47,46],"points_earned":530,"phase":"task","trial_type":"horizons-task","trial_index":85,"time_elapsed":1059073,"internal_node_id":"0.0-81.0","task_version":"0.2"},{"response_times":[1056.44499999471,496.1699999985285,593.5649999883026,589.5650000311434,448.8499999861233,799.5799999916926,464.354999945499,479.92000001249835,512.1350000263192,2431.9399999803863],"keys_pressed":["rightarrow","leftarrow","leftarrow","rightarrow","leftarrow","rightarrow","leftarrow","rightarrow","leftarrow","rightarrow"],"horizon":10,"forced_choices":["rightarrow","leftarrow","leftarrow","rightarrow"],"right_color":"lightblue","left_color":"orange","left_mu":60,"right_mu":80,"left_numbers":[49,56,59,37,42,75,49,75,52,58],"right_numbers":[88,74,83,78,82,73,77,83,90,77],"points_earned":657,"phase":"task","trial_type":"horizons-task","trial_index":86,"time_elapsed":1068449,"internal_node_id":"0.0-82.0","task_version":"0.2"},{"response_times":[720.755000016652,641.364999988582,558.3650000044145,609.9300000350922,1646.0099999676459],"keys_pressed":["leftarrow","leftarrow","rightarrow","rightarrow","leftarrow"],"horizon":5,"forced_choices":["leftarrow","leftarrow","rightarrow","rightarrow"],"right_color":"lightblue","left_color":"orange","left_mu":40,"right_mu":32,"left_numbers":[25,50,58,44,48],"right_numbers":[32,32,37,38,39],"points_earned":198,"phase":"task","trial_type":"horizons-task","trial_index":87,"time_elapsed":1074130,"internal_node_id":"0.0-83.0","task_version":"0.2"},{"response_times":[574.8299999977462,641.5900000138208,605.855000030715,466.21500002220273,1918.3150000171736],"keys_pressed":["rightarrow","rightarrow","leftarrow","leftarrow","leftarrow"],"horizon":5,"forced_choices":["rightarrow","rightarrow","leftarrow","leftarrow"],"right_color":"orange","left_color":"lightblue","left_mu":60,"right_mu":56,"left_numbers":[59,66,65,45,67],"right_numbers":[41,45,63,65,63],"points_earned":263,"phase":"task","trial_type":"horizons-task","trial_index":88,"time_elapsed":1079838,"internal_node_id":"0.0-84.0","task_version":"0.2"},{"response_times":[659.0100000030361,465.4650000156835,941.7299999622628,640.6800000113435,1185.7200000085868],"keys_pressed":["rightarrow","rightarrow","rightarrow","leftarrow","leftarrow"],"horizon":5,"forced_choices":["rightarrow","rightarrow","rightarrow","leftarrow"],"right_color":"orange","left_color":"lightblue","left_mu":60,"right_mu":40,"left_numbers":[40,59,46,68,62],"right_numbers":[63,38,30,45,53],"points_earned":261,"phase":"task","trial_type":"horizons-task","trial_index":89,"time_elapsed":1085232,"internal_node_id":"0.0-85.0","task_version":"0.2"},{"response_times":[720.9150000126101,543.839999998454,641.7150000343099,590.3999999864027,991.8150000157766],"keys_pressed":["rightarrow","leftarrow","leftarrow","rightarrow","leftarrow"],"horizon":5,"forced_choices":["rightarrow","leftarrow","leftarrow","rightarrow"],"right_color":"orange","left_color":"lightblue","left_mu":40,"right_mu":20,"left_numbers":[42,48,44,42,39],"right_numbers":[13,17,22,24,14],"points_earned":168,"phase":"task","trial_type":"horizons-task","trial_index":90,"time_elapsed":1090224,"internal_node_id":"0.0-86.0","task_version":"0.2"},{"response_times":[721.5699999942444,479.1599999880418,463.9599999645725,657.5150000280701,414.4249999662861,1169.449999986682,526.5999999828637,1232.0150000159629,575.8899999782443,3105.7000000146218],"keys_pressed":["leftarrow","rightarrow","leftarrow","leftarrow","rightarrow","rightarrow","leftarrow","rightarrow","leftarrow","leftarrow"],"horizon":10,"forced_choices":["leftarrow","rightarrow","leftarrow","leftarrow"],"right_color":"lightblue","left_color":"orange","left_mu":40,"right_mu":36,"left_numbers":[32,35,48,46,45,47,37,33,36,40],"right_numbers":[44,34,23,39,30,45,27,20,29,51],"points_earned":368,"phase":"task","trial_type":"horizons-task","trial_index":91,"time_elapsed":1101071,"internal_node_id":"0.0-87.0","task_version":"0.2"},{"rt":14064.820000028703,"responses":{"age":"45","gender-categorical":"Male","gender-free-response":"","ethnicity":"Not Hispanic or Latino","race":["White"],"language":"Yes","fluency":"Very well"},"survey":"demographics","trial_type":"survey-demo","trial_index":92,"time_elapsed":1115138,"internal_node_id":"0.0-88.0","task_version":"0.2"},{"rt":57765.89999999851,"responses":{"difficulty":"5","fun":"3","clarity":"5","strategy":"I just tried to get as large a sample from each stack as I could before choosing one.","feedback":"No."},"survey":"debrief","trial_type":"survey-debrief","trial_index":93,"time_elapsed":1172903,"internal_node_id":"0.0-89.0","task_version":"0.2","interactions":"[]"}]