[{"view_history":"[{\"page_index\":0,\"viewing_time\":3586.3650000537746}]","rt":3589.5350000355393,"trial_type":"instructions","trial_index":0,"time_elapsed":3645,"internal_node_id":"0.0-0.0","task_version":"0.2"},{"item_order":[11,1,7,5,12,14,13,10,6,9,4,2,0,3,8,15],"responses":{"Q12":"4","Q02":"2","Q08":"2","Q06":"4","Q13":"3","Q15":"2","Q14":"3","Q11":"3","Q07":"4","Q10":"3","Q05":"3","Q03":"3","Q01":"4","Q04":"3","Q09":"3","Q16":"4"},"radio_events":[6961.955000006128,10817.559999995865,16926.97000002954,21216.104999999516,28319.100000022445,34302.91000002762,38021.875000034925,44079.29999998305,49312.544999993406,54543.82500000065,59540.37000000244,60246.12000002526,63899.03999998933,69131.1449999921,73478.79500000272,77609.90500001935],"key_events":[],"mouse_events":[0.6600000197067857,6961.955000006128,10817.559999995865,16926.97000002954,21216.104999999516,28319.100000022445,31043.36000001058,34302.91000002762,35480.53499998059,38021.875000034925,44079.29999998305,49312.544999993406,54543.82500000065,57587.84500003094,59540.37000000244,60246.12000002526,63899.03999998933,69131.1449999921,73478.79500000272,77609.90500001935,78418.03000000073],"rt":78429.86000003293,"survey":"nfc","trial_type":"survey-template","trial_index":1,"time_elapsed":82105,"internal_node_id":"0.0-1.0","task_version":"0.2"},{"item_order":[15,9,12,7,3,14,11,2,10,1,4,8,16,6,13,5,0],"responses":{"Q16":"3","Q10":"3","Q13":"2","Q08":"2","Q04":"2","Q15":"1","Q12":"2","Q03":"3","Q11":"2","Q02":"3","Q05":"2","Q09":"1","Q17":"0","Q07":"1","Q14":"1","Q06":"2","Q01":"3"},"radio_events":[5807.315000041854,8578.275000036228,11442.08000000799,17117.940000025555,18188.43999999808,22501.95500004338,28200.860000040848,31522.475000005215,33088.915000029374,35750.11000002269,37114.0149999992,38389.57500003744,42254.66000003507,45921.26500001177,50984.15500001283,53396.00500004599,56500.520000001416,58267.17500004452],"key_events":[],"mouse_events":[5807.315000041854,8578.275000036228,11442.08000000799,14421.715000004042,17117.940000025555,18188.43999999808,20366.155000054277,22501.95500004338,28200.860000040848,29487.050000054296,30841.52500005439,31522.475000005215,33088.915000029374,35750.11000002269,37114.0149999992,38389.57500003744,42254.66000003507,45921.26500001177,50984.15500001283,53396.00500004599,55577.745000016876,56500.520000001416,58267.17500004452,59474.750000052154],"rt":59485.31000001822,"survey":"pswq","trial_type":"survey-template","trial_index":2,"time_elapsed":141608,"internal_node_id":"0.0-2.0","task_version":"0.2"},{"item_order":[10,0,3,5,2,8,12,11,7,1,9,6,4],"responses":{"Q11":"3","Q01":"2","Q04":"3","Q06":"1","Q03":"3","Q09":"3","Q13":"4","Q12":"3","Q08":"2","Q02":"1","Q10":"2","Q07":"1","Q05":"2"},"radio_events":[7305.62999995891,11181.479999970179,17679.294999979902,23735.504999989644,27827.344999997877,31194.77000000188,33403.80499995081,34914.50499999337,39998.82499995874,41324.75499995053,45387.739999976475,51826.0499999742,53203.63999996334,54761.95999997435,57196.14499999443,60326.06999995187],"key_events":[],"mouse_events":[7305.62999995891,11181.479999970179,17679.294999979902,23735.504999989644,27827.344999997877,31194.77000000188,33403.80499995081,34914.50499999337,39998.82499995874,41324.75499995053,45387.739999976475,48862.644999986514,51166.53999994742,51826.0499999742,52373.71499999426,53203.63999996334,54761.95999997435,57196.14499999443,60326.06999995187,61298.44499996398],"rt":61311.83500000043,"survey":"ius12","trial_type":"survey-template","trial_index":3,"time_elapsed":202936,"internal_node_id":"0.0-3.0","task_version":"0.2"},{"view_history":"[{\"page_index\":0,\"viewing_time\":7250.745000026654},{\"page_index\":1,\"viewing_time\":6701.719999953639},{\"page_index\":2,\"viewing_time\":12034.105000027921},{\"page_index\":3,\"viewing_time\":5082.554999971762},{\"page_index\":4,\"viewing_time\":1834.4900000374764},{\"page_index\":5,\"viewing_time\":4249.874999979511},{\"page_index\":6,\"viewing_time\":6505.600000033155},{\"page_index\":7,\"viewing_time\":13877.924999978859},{\"page_index\":8,\"viewing_time\":6007.199999992736},{\"page_index\":9,\"viewing_time\":10441.86500000069}]","rt":73987.02000000048,"trial_type":"instructions","trial_index":4,"time_elapsed":276928,"internal_node_id":"0.0-4.0-0.0","task_version":"0.2"},{"response_times":[7450.430000026245,1837.6200000056997,667.4699999857694,705.1600000122562,1697.039999999106],"keys_pressed":["rightarrow","leftarrow","rightarrow","rightarrow","rightarrow"],"horizon":5,"forced_choices":["rightarrow","leftarrow","rightarrow","rightarrow"],"right_color":"lightblue","left_color":"orange","left_mu":40,"right_mu":20,"left_numbers":[44,27,35,26,17],"right_numbers":[12,25,30,14,20],"points_earned":103,"phase":"practice","trial_type":"horizons-task","trial_index":5,"time_elapsed":290809,"internal_node_id":"0.0-4.0-1.0","task_version":"0.2"},{"response_times":[1206.9100000080653,605.0800000084564,536.5149999852292,527.8950000065379,893.9000000245869,5.315000016707927,820.2400000300258,5.935000022873282,532.695000001695,19.33500001905486],"keys_pressed":["leftarrow","leftarrow","rightarrow","rightarrow","rightarrow","leftarrow","leftarrow","rightarrow","rightarrow","leftarrow"],"horizon":10,"forced_choices":["leftarrow","leftarrow","rightarrow","rightarrow"],"right_color":"orange","left_color":"lightblue","left_mu":60,"right_mu":70,"left_numbers":[65,43,63,56,61,59,44,46,64,42],"right_numbers":[75,83,78,72,59,64,66,65,71,77],"points_earned":598,"phase":"practice","trial_type":"horizons-task","trial_index":6,"time_elapsed":297484,"internal_node_id":"0.0-4.0-2.0","task_version":"0.2"},{"view_history":"[{\"page_index\":0,\"viewing_time\":2198.865000042133},{\"page_index\":1,\"viewing_time\":4651.229999959469},{\"page_index\":2,\"viewing_time\":5181.625000026543},{\"page_index\":3,\"viewing_time\":5131.764999998268}]","rt":17164.2550000106,"trial_type":"instructions","trial_index":7,"time_elapsed":314650,"internal_node_id":"0.0-4.0-3.0","task_version":"0.2"},{"responses":["false","true","true"],"num_errors":2,"rt":15300.144999986514,"trial_type":"horizons-comprehension","trial_index":8,"time_elapsed":329960,"internal_node_id":"0.0-4.0-4.0","task_version":"0.2"},{"view_history":"[{\"page_index\":0,\"viewing_time\":5131.649999995716},{\"page_index\":1,\"viewing_time\":1466.9349999749102},{\"page_index\":2,\"viewing_time\":4795.065000012983},{\"page_index\":1,\"viewing_time\":621.2700000032783},{\"page_index\":2,\"viewing_time\":548.5849999822676},{\"page_index\":3,\"viewing_time\":861.5749999880791},{\"page_index\":4,\"viewing_time\":596.9899999909103},{\"page_index\":5,\"viewing_time\":368.7900000368245},{\"page_index\":6,\"viewing_time\":691.7499999981374},{\"page_index\":7,\"viewing_time\":1667.1799999894574},{\"page_index\":8,\"viewing_time\":617.7150000003166},{\"page_index\":9,\"viewing_time\":717.0250000199303}]","rt":18086.059999943245,"trial_type":"instructions","trial_index":9,"time_elapsed":348057,"internal_node_id":"0.0-4.1-0.1","task_version":"0.2"},{"response_times":[2228.339999972377,669.80000003241,484.72000000765547,654.7900000005029,807.2050000191666],"keys_pressed":["rightarrow","leftarrow","rightarrow","rightarrow","rightarrow"],"horizon":5,"forced_choices":["rightarrow","leftarrow","rightarrow","rightarrow"],"right_color":"lightblue","left_color":"orange","left_mu":40,"right_mu":20,"left_numbers":[40,59,31,43,33],"right_numbers":[6,25,26,28,16],"points_earned":135,"phase":"practice","trial_type":"horizons-task","trial_index":10,"time_elapsed":354410,"internal_node_id":"0.0-4.1-1.1","task_version":"0.2"},{"response_times":[1242.2849999857135,860.7199999969453,452.37999997334555,548.3649999951012,772.0149999950081,16.100000008009374,600.7350000436418,30.645000049844384,619.8600000352599,1.3700000126846135],"keys_pressed":["leftarrow","leftarrow","rightarrow","rightarrow","rightarrow","leftarrow","rightarrow","leftarrow","leftarrow","rightarrow"],"horizon":10,"forced_choices":["leftarrow","leftarrow","rightarrow","rightarrow"],"right_color":"orange","left_color":"lightblue","left_mu":60,"right_mu":70,"left_numbers":[46,56,65,58,53,54,41,65,57,66],"right_numbers":[76,71,68,68,62,74,79,67,77,74],"points_earned":629,"phase":"practice","trial_type":"horizons-task","trial_index":11,"time_elapsed":361060,"internal_node_id":"0.0-4.1-2.1","task_version":"0.2"},{"view_history":"[{\"page_index\":0,\"viewing_time\":2174.2749999975786},{\"page_index\":1,\"viewing_time\":1955.0450000097044},{\"page_index\":2,\"viewing_time\":665.1299999793991},{\"page_index\":3,\"viewing_time\":533.3799999789335}]","rt":5329.214999976102,"trial_type":"instructions","trial_index":12,"time_elapsed":366391,"internal_node_id":"0.0-4.1-3.1","task_version":"0.2"},{"responses":["true","true","true"],"num_errors":1,"rt":9225.899999961257,"trial_type":"horizons-comprehension","trial_index":13,"time_elapsed":375625,"internal_node_id":"0.0-4.1-4.1","task_version":"0.2"},{"view_history":"[{\"page_index\":0,\"viewing_time\":3020.1949999900535},{\"page_index\":1,\"viewing_time\":5440.405000001192},{\"page_index\":2,\"viewing_time\":11160.610000020824},{\"page_index\":3,\"viewing_time\":5999.309999984689},{\"page_index\":4,\"viewing_time\":990.8850000356324},{\"page_index\":5,\"viewing_time\":1742.469999997411},{\"page_index\":6,\"viewing_time\":1707.2799999732524},{\"page_index\":7,\"viewing_time\":1416.8850000132807},{\"page_index\":8,\"viewing_time\":756.5349999931641},{\"page_index\":9,\"viewing_time\":1182.874999998603}]","rt":33418.00499998499,"trial_type":"instructions","trial_index":14,"time_elapsed":409053,"internal_node_id":"0.0-4.2-0.2","task_version":"0.2"},{"response_times":[1318.924999970477,1853.0899999896064,430.2550000138581,472.34999999636784,587.0599999907427],"keys_pressed":["rightarrow","leftarrow","rightarrow","rightarrow","rightarrow"],"horizon":5,"forced_choices":["rightarrow","leftarrow","rightarrow","rightarrow"],"right_color":"lightblue","left_color":"orange","left_mu":40,"right_mu":20,"left_numbers":[46,46,41,37,36],"right_numbers":[17,28,45,26,19],"points_earned":153,"phase":"practice","trial_type":"horizons-task","trial_index":15,"time_elapsed":415220,"internal_node_id":"0.0-4.2-1.2","task_version":"0.2"},{"response_times":[866.550000035204,583.2850000006147,377.1100000012666,427.4200000218116,1422.6600000401959,763.9150000177324,676.355000003241,996.335000032559,499.3100000428967,497.5550000090152],"keys_pressed":["leftarrow","leftarrow","rightarrow","rightarrow","leftarrow","leftarrow","rightarrow","leftarrow","rightarrow","leftarrow"],"horizon":10,"forced_choices":["leftarrow","leftarrow","rightarrow","rightarrow"],"right_color":"orange","left_color":"lightblue","left_mu":60,"right_mu":70,"left_numbers":[66,69,73,69,51,64,45,59,53,64],"right_numbers":[71,70,79,78,66,76,72,64,54,71],"points_earned":656,"phase":"practice","trial_type":"horizons-task","trial_index":16,"time_elapsed":423838,"internal_node_id":"0.0-4.2-2.2","task_version":"0.2"},{"view_history":"[{\"page_index\":0,\"viewing_time\":1817.1349999611266},{\"page_index\":1,\"viewing_time\":1903.165000025183},{\"page_index\":2,\"viewing_time\":942.2599999816157},{\"page_index\":3,\"viewing_time\":676.9399999757297}]","rt":5340.184999979101,"trial_type":"instructions","trial_index":17,"time_elapsed":429181,"internal_node_id":"0.0-4.2-3.2","task_version":"0.2"},{"responses":["true","false","true"],"num_errors":0,"rt":13292.805000033695,"trial_type":"horizons-comprehension","trial_index":18,"time_elapsed":442480,"internal_node_id":"0.0-4.2-4.2","task_version":"0.2"},{"trial_type":"call-function","trial_index":19,"time_elapsed":442491,"internal_node_id":"0.0-5.0","task_version":"0.2"},{"view_history":"[{\"page_index\":0,\"viewing_time\":1602.5900000240654},{\"page_index\":1,\"viewing_time\":1800.6049999967217}]","rt":3404.6500000404194,"trial_type":"instructions","trial_index":20,"time_elapsed":445898,"internal_node_id":"0.0-6.0","task_version":"0.2"},{"response_times":[1557.9950000392273,1341.199999966193,459.8250000271946,478.899999987334,709.2200000188313,382.3949999641627,493.76500002108514,462.1400000178255,702.1149999927729,447.9849999770522],"keys_pressed":["rightarrow","leftarrow","rightarrow","rightarrow","leftarrow","rightarrow","rightarrow","rightarrow","rightarrow","rightarrow"],"horizon":10,"forced_choices":["rightarrow","leftarrow","rightarrow","rightarrow"],"right_color":"lightblue","left_color":"orange","left_mu":40,"right_mu":48,"left_numbers":[41,40,53,36,40,39,46,44,38,41],"right_numbers":[50,46,22,53,50,48,51,45,39,38],"points_earned":426,"phase":"task","trial_type":"horizons-task","trial_index":21,"time_elapsed":454458,"internal_node_id":"0.0-7.0","task_version":"0.2"},{"response_times":[987.3299999744631,763.4649999672547,524.6000000042841,463.55500002391636,461.7599999764934,539.8050000076182,233.63999999128282,463.5349999880418,404.7399999690242,406.81999997468665],"keys_pressed":["rightarrow","leftarrow","leftarrow","rightarrow","leftarrow","leftarrow","rightarrow","rightarrow","leftarrow","rightarrow"],"horizon":10,"forced_choices":["rightarrow","leftarrow","leftarrow","rightarrow"],"right_color":"lightblue","left_color":"orange","left_mu":60,"right_mu":30,"left_numbers":[65,55,56,61,68,58,68,52,59,62],"right_numbers":[28,21,34,30,36,33,23,24,37,29],"points_earned":430,"phase":"task","trial_type":"horizons-task","trial_index":22,"time_elapsed":461213,"internal_node_id":"0.0-8.0","task_version":"0.2"},{"response_times":[1048.3649999951012,521.3450000155717,498.11000004410744,408.72499998658895,670.0849999906495,426.06999998679385,493.36999998195097,382.9600000171922,304.7849999857135,408.4850000217557],"keys_pressed":["leftarrow","rightarrow","leftarrow","rightarrow","rightarrow","rightarrow","rightarrow","leftarrow","rightarrow","rightarrow"],"horizon":10,"forced_choices":["leftarrow","rightarrow","leftarrow","rightarrow"],"right_color":"orange","left_color":"lightblue","left_mu":40,"right_mu":28,"left_numbers":[38,34,24,50,30,42,56,45,37,46],"right_numbers":[28,11,35,35,26,41,25,30,28,35],"points_earned":308,"phase":"task","trial_type":"horizons-task","trial_index":23,"time_elapsed":467900,"internal_node_id":"0.0-9.0","task_version":"0.2"},{"response_times":[1512.8099999856204,777.0249999593943,582.2199999820441,656.1350000556558,558.9899999904446],"keys_pressed":["leftarrow","leftarrow","rightarrow","rightarrow","leftarrow"],"horizon":5,"forced_choices":["leftarrow","leftarrow","rightarrow","rightarrow"],"right_color":"orange","left_color":"lightblue","left_mu":40,"right_mu":70,"left_numbers":[43,37,50,37,53],"right_numbers":[63,68,48,74,68],"points_earned":255,"phase":"task","trial_type":"horizons-task","trial_index":24,"time_elapsed":473501,"internal_node_id":"0.0-10.0","task_version":"0.2"},{"response_times":[745.7699999795295,529.5349999796599,547.1399999805726,652.4949999875389,1274.6400000178255],"keys_pressed":["leftarrow","leftarrow","leftarrow","rightarrow","leftarrow"],"horizon":5,"forced_choices":["leftarrow","leftarrow","leftarrow","rightarrow"],"right_color":"orange","left_color":"lightblue","left_mu":60,"right_mu":72,"left_numbers":[63,52,71,64,51],"right_numbers":[72,72,74,63,79],"points_earned":300,"phase":"task","trial_type":"horizons-task","trial_index":25,"time_elapsed":478755,"internal_node_id":"0.0-11.0","task_version":"0.2"},{"response_times":[999.3350000004284,485.47000001417473,615.3250000206754,610.6449999497272,1155.07500001695],"keys_pressed":["leftarrow","rightarrow","rightarrow","leftarrow","leftarrow"],"horizon":5,"forced_choices":["leftarrow","rightarrow","rightarrow","leftarrow"],"right_color":"orange","left_color":"lightblue","left_mu":40,"right_mu":52,"left_numbers":[31,36,28,44,48],"right_numbers":[50,68,54,63,43],"points_earned":245,"phase":"task","trial_type":"horizons-task","trial_index":26,"time_elapsed":484127,"internal_node_id":"0.0-12.0","task_version":"0.2"},{"response_times":[1034.235000028275,726.3999999850057,580.2099999855272,529.5899999910034,597.9100000113249,648.9949999959208,689.8849999997765,364.4600000116043,525.4050000221469,313.6800000211224],"keys_pressed":["leftarrow","leftarrow","rightarrow","rightarrow","leftarrow","rightarrow","rightarrow","leftarrow","leftarrow","rightarrow"],"horizon":10,"forced_choices":["leftarrow","leftarrow","rightarrow","rightarrow"],"right_color":"orange","left_color":"lightblue","left_mu":40,"right_mu":10,"left_numbers":[41,31,47,29,41,35,47,42,39,33],"right_numbers":[8,3,6,23,7,21,8,21,27,0],"points_earned":252,"phase":"task","trial_type":"horizons-task","trial_index":27,"time_elapsed":491644,"internal_node_id":"0.0-13.0","task_version":"0.2"},{"response_times":[720.2350000152364,447.22999999066815,679.8249999992549,646.7100000008941,1114.6799999987707],"keys_pressed":["leftarrow","rightarrow","rightarrow","rightarrow","rightarrow"],"horizon":5,"forced_choices":["leftarrow","rightarrow","rightarrow","rightarrow"],"right_color":"lightblue","left_color":"orange","left_mu":60,"right_mu":68,"left_numbers":[49,56,57,59,63],"right_numbers":[82,75,71,69,62],"points_earned":326,"phase":"task","trial_type":"horizons-task","trial_index":28,"time_elapsed":496807,"internal_node_id":"0.0-14.0","task_version":"0.2"},{"response_times":[2498.569999996107,483.9349999674596,706.2049999949522,524.1450000321493,652.6450000237674],"keys_pressed":["rightarrow","leftarrow","leftarrow","rightarrow","rightarrow"],"horizon":5,"forced_choices":["rightarrow","leftarrow","leftarrow","rightarrow"],"right_color":"orange","left_color":"lightblue","left_mu":60,"right_mu":56,"left_numbers":[62,42,74,63,64],"right_numbers":[66,49,67,52,56],"points_earned":290,"phase":"task","trial_type":"horizons-task","trial_index":29,"time_elapsed":503178,"internal_node_id":"0.0-15.0","task_version":"0.2"},{"response_times":[10557.300000044052,524.730000004638,547.7100000134669,491.00999999791384,767.8399999858811,497.8300000075251,422.56500001531094,467.98499999567866,465.29500000178814,261.84499997179955],"keys_pressed":["leftarrow","leftarrow","leftarrow","rightarrow","rightarrow","leftarrow","rightarrow","leftarrow","rightarrow","rightarrow"],"horizon":10,"forced_choices":["leftarrow","leftarrow","leftarrow","rightarrow"],"right_color":"orange","left_color":"lightblue","left_mu":40,"right_mu":10,"left_numbers":[40,29,33,46,45,20,49,30,24,55],"right_numbers":[0,15,8,12,7,8,0,17,4,16],"points_earned":191,"phase":"task","trial_type":"horizons-task","trial_index":30,"time_elapsed":519735,"internal_node_id":"0.0-16.0","task_version":"0.2"},{"response_times":[808.3399999886751,468.32500002346933,503.119999950286,522.1950000268407,433.9950000285171],"keys_pressed":["rightarrow","rightarrow","leftarrow","leftarrow","rightarrow"],"horizon":5,"forced_choices":["rightarrow","rightarrow","leftarrow","leftarrow"],"right_color":"orange","left_color":"lightblue","left_mu":60,"right_mu":40,"left_numbers":[67,58,59,60,58],"right_numbers":[53,41,42,31,33],"points_earned":246,"phase":"task","trial_type":"horizons-task","trial_index":31,"time_elapsed":524044,"internal_node_id":"0.0-17.0","task_version":"0.2"},{"response_times":[571.6149999643676,489.60500000976026,652.2450000047684,808.1750000128523,727.7500000200234],"keys_pressed":["rightarrow","leftarrow","rightarrow","leftarrow","leftarrow"],"horizon":5,"forced_choices":["rightarrow","leftarrow","rightarrow","leftarrow"],"right_color":"orange","left_color":"lightblue","left_mu":60,"right_mu":52,"left_numbers":[65,68,63,64,72],"right_numbers":[44,55,60,42,59],"points_earned":308,"phase":"task","trial_type":"horizons-task","trial_index":32,"time_elapsed":528800,"internal_node_id":"0.0-18.0","task_version":"0.2"},{"response_times":[848.8200000138022,480.83000001497567,631.0750000411645,468.32500002346933,1770.3050000127405],"keys_pressed":["leftarrow","rightarrow","rightarrow","leftarrow","rightarrow"],"horizon":5,"forced_choices":["leftarrow","rightarrow","rightarrow","leftarrow"],"right_color":"lightblue","left_color":"orange","left_mu":60,"right_mu":68,"left_numbers":[60,58,51,56,68],"right_numbers":[69,61,66,65,71],"points_earned":314,"phase":"task","trial_type":"horizons-task","trial_index":33,"time_elapsed":534505,"internal_node_id":"0.0-19.0","task_version":"0.2"},{"response_times":[916.8049999861978,438.3899999666028,808.6749999783933,431.3500000280328,674.570000031963,859.180000028573,428.8749999832362,864.6150000276975,559.3799999915063,481.1850000405684],"keys_pressed":["leftarrow","rightarrow","leftarrow","rightarrow","rightarrow","leftarrow","rightarrow","leftarrow","rightarrow","leftarrow"],"horizon":10,"forced_choices":["leftarrow","rightarrow","leftarrow","rightarrow"],"right_color":"orange","left_color":"lightblue","left_mu":40,"right_mu":36,"left_numbers":[42,37,39,47,39,42,47,48,50,48],"right_numbers":[28,26,39,50,40,40,39,40,35,29],"points_earned":409,"phase":"task","trial_type":"horizons-task","trial_index":34,"time_elapsed":542475,"internal_node_id":"0.0-20.0","task_version":"0.2"},{"response_times":[887.0049999677576,971.1750000133179,744.6950000012293,976.6899999813177,843.1649999693036],"keys_pressed":["rightarrow","rightarrow","leftarrow","rightarrow","leftarrow"],"horizon":5,"forced_choices":["rightarrow","rightarrow","leftarrow","rightarrow"],"right_color":"lightblue","left_color":"orange","left_mu":40,"right_mu":60,"left_numbers":[45,47,46,49,37],"right_numbers":[56,56,62,69,65],"points_earned":264,"phase":"task","trial_type":"horizons-task","trial_index":35,"time_elapsed":548404,"internal_node_id":"0.0-21.0","task_version":"0.2"},{"response_times":[722.1400000271387,697.8099999832921,525.9850000147708,548.8899999763817,501.88999995589256],"keys_pressed":["rightarrow","leftarrow","leftarrow","rightarrow","rightarrow"],"horizon":5,"forced_choices":["rightarrow","leftarrow","leftarrow","rightarrow"],"right_color":"lightblue","left_color":"orange","left_mu":60,"right_mu":48,"left_numbers":[54,48,64,59,62],"right_numbers":[41,56,38,48,50],"points_earned":251,"phase":"task","trial_type":"horizons-task","trial_index":36,"time_elapsed":552941,"internal_node_id":"0.0-22.0","task_version":"0.2"},{"response_times":[703.0300000333227,511.1599999945611,593.1199999758974,721.3599999668077,739.5249999826774],"keys_pressed":["rightarrow","leftarrow","leftarrow","leftarrow","rightarrow"],"horizon":5,"forced_choices":["rightarrow","leftarrow","leftarrow","leftarrow"],"right_color":"orange","left_color":"lightblue","left_mu":40,"right_mu":28,"left_numbers":[38,29,38,41,38],"right_numbers":[19,38,25,28,21],"points_earned":148,"phase":"task","trial_type":"horizons-task","trial_index":37,"time_elapsed":557747,"internal_node_id":"0.0-23.0","task_version":"0.2"},{"response_times":[892.2100000199862,547.8299999958836,525.5499999620952,489.66000002110377,808.8400000124238],"keys_pressed":["rightarrow","leftarrow","rightarrow","leftarrow","leftarrow"],"horizon":5,"forced_choices":["rightarrow","leftarrow","rightarrow","leftarrow"],"right_color":"lightblue","left_color":"orange","left_mu":40,"right_mu":20,"left_numbers":[38,42,45,38,37],"right_numbers":[16,26,48,23,18],"points_earned":181,"phase":"task","trial_type":"horizons-task","trial_index":38,"time_elapsed":562520,"internal_node_id":"0.0-24.0","task_version":"0.2"},{"response_times":[817.8000000189058,454.0549999801442,713.7149999616668,503.24500002898276,624.8600000399165,1105.2550000022165,569.2699999781325,651.8700000015087,642.4850000184961,368.6299999826588],"keys_pressed":["rightarrow","leftarrow","leftarrow","leftarrow","rightarrow","leftarrow","rightarrow","rightarrow","leftarrow","rightarrow"],"horizon":10,"forced_choices":["rightarrow","leftarrow","leftarrow","leftarrow"],"right_color":"orange","left_color":"lightblue","left_mu":40,"right_mu":28,"left_numbers":[37,27,47,48,27,52,36,33,40,45],"right_numbers":[32,39,31,30,26,28,14,20,14,34],"points_earned":340,"phase":"task","trial_type":"horizons-task","trial_index":39,"time_elapsed":570476,"internal_node_id":"0.0-25.0","task_version":"0.2"},{"response_times":[1528.3899999922141,530.9549999656156,456.3450000132434,589.2500000190921,291.56500002136454],"keys_pressed":["leftarrow","rightarrow","leftarrow","leftarrow","rightarrow"],"horizon":5,"forced_choices":["leftarrow","rightarrow","leftarrow","leftarrow"],"right_color":"lightblue","left_color":"orange","left_mu":60,"right_mu":80,"left_numbers":[55,48,62,44,60],"right_numbers":[87,76,72,85,89],"points_earned":326,"phase":"task","trial_type":"horizons-task","trial_index":40,"time_elapsed":575379,"internal_node_id":"0.0-26.0","task_version":"0.2"},{"response_times":[2576.9100000034086,633.30499996664,355.0149999791756,502.44000001112,454.2399999918416],"keys_pressed":["leftarrow","rightarrow","leftarrow","rightarrow","rightarrow"],"horizon":5,"forced_choices":["leftarrow","rightarrow","leftarrow","rightarrow"],"right_color":"orange","left_color":"lightblue","left_mu":60,"right_mu":64,"left_numbers":[44,61,63,68,68],"right_numbers":[57,54,66,67,68],"points_earned":296,"phase":"task","trial_type":"horizons-task","trial_index":41,"time_elapsed":581405,"internal_node_id":"0.0-27.0","task_version":"0.2"},{"response_times":[885.9100000117905,496.9749999581836,364.7550000459887,576.0899999877438,465.604999975767],"keys_pressed":["leftarrow","leftarrow","rightarrow","leftarrow","rightarrow"],"horizon":5,"forced_choices":["leftarrow","leftarrow","rightarrow","leftarrow"],"right_color":"lightblue","left_color":"orange","left_mu":40,"right_mu":32,"left_numbers":[32,33,37,36,45],"right_numbers":[47,21,43,22,26],"points_earned":170,"phase":"task","trial_type":"horizons-task","trial_index":42,"time_elapsed":585700,"internal_node_id":"0.0-28.0","task_version":"0.2"},{"response_times":[612.9799999762326,749.779999954626,588.7250000378117,911.6050000302494,419.0299999900162],"keys_pressed":["rightarrow","rightarrow","leftarrow","rightarrow","rightarrow"],"horizon":5,"forced_choices":["rightarrow","rightarrow","leftarrow","rightarrow"],"right_color":"orange","left_color":"lightblue","left_mu":60,"right_mu":40,"left_numbers":[50,56,58,56,64],"right_numbers":[24,43,33,42,31],"points_earned":198,"phase":"task","trial_type":"horizons-task","trial_index":43,"time_elapsed":590486,"internal_node_id":"0.0-29.0","task_version":"0.2"},{"response_times":[661.9300000020303,672.2249999875203,426.7450000043027,611.8000000133179,467.0299999997951,344.1200000233948,455.4350000107661,332.69000001018867,241.9649999937974,377.6250000228174],"keys_pressed":["leftarrow","leftarrow","rightarrow","rightarrow","leftarrow","rightarrow","leftarrow","leftarrow","rightarrow","rightarrow"],"horizon":10,"forced_choices":["leftarrow","leftarrow","rightarrow","rightarrow"],"right_color":"orange","left_color":"lightblue","left_mu":60,"right_mu":72,"left_numbers":[64,47,69,61,62,62,54,58,59,60],"right_numbers":[74,72,76,62,78,68,70,64,75,46],"points_earned":612,"phase":"task","trial_type":"horizons-task","trial_index":44,"time_elapsed":596582,"internal_node_id":"0.0-30.0","task_version":"0.2"},{"response_times":[804.1499999817461,664.4850000157021,601.0399999795482,394.8300000047311,607.4149999767542,870.6450000172481,220.14500002842396,885.2950000436977,642.8399999858811,445.2000000164844],"keys_pressed":["rightarrow","rightarrow","leftarrow","rightarrow","leftarrow","leftarrow","rightarrow","leftarrow","leftarrow","leftarrow"],"horizon":10,"forced_choices":["rightarrow","rightarrow","leftarrow","rightarrow"],"right_color":"orange","left_color":"lightblue","left_mu":60,"right_mu":52,"left_numbers":[57,54,64,68,51,50,60,62,60,61],"right_numbers":[39,51,46,63,47,52,59,46,43,49],"points_earned":560,"phase":"task","trial_type":"horizons-task","trial_index":45,"time_elapsed":604235,"internal_node_id":"0.0-31.0","task_version":"0.2"},{"response_times":[798.270000028424,666.5149999898858,480.25000002235174,373.31500003347173,422.05499997362494],"keys_pressed":["leftarrow","leftarrow","rightarrow","leftarrow","rightarrow"],"horizon":5,"forced_choices":["leftarrow","leftarrow","rightarrow","leftarrow"],"right_color":"lightblue","left_color":"orange","left_mu":40,"right_mu":44,"left_numbers":[40,42,40,42,29],"right_numbers":[39,42,52,39,65],"points_earned":241,"phase":"task","trial_type":"horizons-task","trial_index":46,"time_elapsed":608480,"internal_node_id":"0.0-32.0","task_version":"0.2"},{"response_times":[874.2550000315532,597.0850000157952,291.8199999839999,409.6700000227429,343.96000002743676],"keys_pressed":["leftarrow","leftarrow","rightarrow","rightarrow","leftarrow"],"horizon":5,"forced_choices":["leftarrow","leftarrow","rightarrow","rightarrow"],"right_color":"orange","left_color":"lightblue","left_mu":60,"right_mu":72,"left_numbers":[61,42,49,48,60],"right_numbers":[75,74,68,72,80],"points_earned":303,"phase":"task","trial_type":"horizons-task","trial_index":47,"time_elapsed":612512,"internal_node_id":"0.0-33.0","task_version":"0.2"},{"response_times":[791.1800000001676,335.7049999758601,367.4899999750778,868.7199999694712,704.2299999739043],"keys_pressed":["leftarrow","rightarrow","leftarrow","rightarrow","rightarrow"],"horizon":5,"forced_choices":["leftarrow","rightarrow","leftarrow","rightarrow"],"right_color":"orange","left_color":"lightblue","left_mu":40,"right_mu":28,"left_numbers":[44,47,50,32,49],"right_numbers":[35,31,24,26,22],"points_earned":173,"phase":"task","trial_type":"horizons-task","trial_index":48,"time_elapsed":617098,"internal_node_id":"0.0-34.0","task_version":"0.2"},{"response_times":[726.3950000051409,397.8299999726005,743.190000008326,321.5199999976903,382.3949999641627],"keys_pressed":["leftarrow","rightarrow","rightarrow","leftarrow","rightarrow"],"horizon":5,"forced_choices":["leftarrow","rightarrow","rightarrow","leftarrow"],"right_color":"lightblue","left_color":"orange","left_mu":40,"right_mu":44,"left_numbers":[45,35,48,52,43],"right_numbers":[48,41,45,47,50],"points_earned":233,"phase":"task","trial_type":"horizons-task","trial_index":49,"time_elapsed":621203,"internal_node_id":"0.0-35.0","task_version":"0.2"},{"response_times":[653.8150000269525,853.8399999961257,498.2700000400655,424.3000000133179,474.25999998813495,689.0750000020489,329.7099999617785,340.41499998420477,339.7899999981746,422.0649999915622],"keys_pressed":["rightarrow","rightarrow","rightarrow","leftarrow","rightarrow","rightarrow","leftarrow","leftarrow","rightarrow","leftarrow"],"horizon":10,"forced_choices":["rightarrow","rightarrow","rightarrow","leftarrow"],"right_color":"lightblue","left_color":"orange","left_mu":60,"right_mu":30,"left_numbers":[57,65,66,63,60,61,62,44,63,58],"right_numbers":[39,29,21,25,21,27,31,31,31,19],"points_earned":395,"phase":"task","trial_type":"horizons-task","trial_index":50,"time_elapsed":627734,"internal_node_id":"0.0-36.0","task_version":"0.2"},{"response_times":[697.2550000064075,380.9999999939464,638.9999999664724,643.3349999715574,524.245000036899],"keys_pressed":["rightarrow","leftarrow","leftarrow","leftarrow","rightarrow"],"horizon":5,"forced_choices":["rightarrow","leftarrow","leftarrow","leftarrow"],"right_color":"orange","left_color":"lightblue","left_mu":40,"right_mu":52,"left_numbers":[33,33,46,37,40],"right_numbers":[46,53,58,63,51],"points_earned":213,"phase":"task","trial_type":"horizons-task","trial_index":51,"time_elapsed":632123,"internal_node_id":"0.0-37.0","task_version":"0.2"},{"response_times":[827.4899999960326,332.1750000468455,327.2249999572523,468.1400000117719,379.43000002996996],"keys_pressed":["leftarrow","rightarrow","leftarrow","leftarrow","rightarrow"],"horizon":5,"forced_choices":["leftarrow","rightarrow","leftarrow","leftarrow"],"right_color":"orange","left_color":"lightblue","left_mu":40,"right_mu":36,"left_numbers":[32,30,27,35,35],"right_numbers":[43,38,35,29,37],"points_earned":169,"phase":"task","trial_type":"horizons-task","trial_index":52,"time_elapsed":635989,"internal_node_id":"0.0-38.0","task_version":"0.2"},{"response_times":[676.9349999958649,278.6949999863282,386.69999997364357,774.5250000152737,473.72999996878207],"keys_pressed":["leftarrow","rightarrow","rightarrow","rightarrow","rightarrow"],"horizon":5,"forced_choices":["leftarrow","rightarrow","rightarrow","rightarrow"],"right_color":"orange","left_color":"lightblue","left_mu":60,"right_mu":64,"left_numbers":[67,56,74,65,75],"right_numbers":[60,72,71,61,59],"points_earned":330,"phase":"task","trial_type":"horizons-task","trial_index":53,"time_elapsed":640087,"internal_node_id":"0.0-39.0","task_version":"0.2"},{"response_times":[588.5049999924377,368.84499998996034,774.7100000269711,465.7949999673292,503.85500001721084,299.42499997559935,400.4649999551475,436.67500000447035,399.5200000354089,179.27999998209998],"keys_pressed":["rightarrow","leftarrow","leftarrow","rightarrow","leftarrow","leftarrow","rightarrow","leftarrow","leftarrow","rightarrow"],"horizon":10,"forced_choices":["rightarrow","leftarrow","leftarrow","rightarrow"],"right_color":"lightblue","left_color":"orange","left_mu":60,"right_mu":48,"left_numbers":[55,58,65,42,51,61,59,52,61,60],"right_numbers":[42,58,50,48,46,27,40,55,41,44],"points_earned":522,"phase":"task","trial_type":"horizons-task","trial_index":54,"time_elapsed":646016,"internal_node_id":"0.0-40.0","task_version":"0.2"},{"response_times":[713.3150000008754,308.7299999897368,427.8999999514781,340.16500000143424,311.41500000376254,285.96000000834465,269.5700000040233,444.8100000154227,319.0850000246428,337.085000006482],"keys_pressed":["leftarrow","rightarrow","rightarrow","leftarrow","rightarrow","leftarrow","rightarrow","rightarrow","rightarrow","leftarrow"],"horizon":10,"forced_choices":["leftarrow","rightarrow","rightarrow","leftarrow"],"right_color":"orange","left_color":"lightblue","left_mu":40,"right_mu":52,"left_numbers":[39,33,39,22,44,44,39,25,46,36],"right_numbers":[48,60,66,59,55,45,54,56,44,48],"points_earned":476,"phase":"task","trial_type":"horizons-task","trial_index":55,"time_elapsed":651280,"internal_node_id":"0.0-41.0","task_version":"0.2"},{"response_times":[539.6199999959208,727.9149999958463,482.9250000184402,770.2949999948032,419.9849999858998,420.4249999602325,329.1600000229664,512.1500000241213,344.794999982696,382.5849999557249],"keys_pressed":["rightarrow","rightarrow","leftarrow","leftarrow","rightarrow","leftarrow","rightarrow","rightarrow","leftarrow","rightarrow"],"horizon":10,"forced_choices":["rightarrow","rightarrow","leftarrow","leftarrow"],"right_color":"lightblue","left_color":"orange","left_mu":40,"right_mu":48,"left_numbers":[43,49,43,37,34,28,30,44,37,54],"right_numbers":[56,56,54,44,51,47,50,54,38,38],"points_earned":450,"phase":"task","trial_type":"horizons-task","trial_index":56,"time_elapsed":657715,"internal_node_id":"0.0-42.0","task_version":"0.2"},{"response_times":[846.7199999722652,642.070000001695,404.70000001369044,390.46000002417713,328.525000018999],"keys_pressed":["rightarrow","rightarrow","leftarrow","rightarrow","leftarrow"],"horizon":5,"forced_choices":["rightarrow","rightarrow","leftarrow","rightarrow"],"right_color":"orange","left_color":"lightblue","left_mu":60,"right_mu":52,"left_numbers":[46,51,50,58,55],"right_numbers":[56,57,46,44,56],"points_earned":262,"phase":"task","trial_type":"horizons-task","trial_index":57,"time_elapsed":661832,"internal_node_id":"0.0-43.0","task_version":"0.2"},{"response_times":[579.059999960009,771.8149999855086,519.2400000523776,390.8950000186451,297.069999971427,415.18499999074265,344.96499999659136,311.1149999895133,228.98000001441687,179.3700000271201],"keys_pressed":["leftarrow","leftarrow","rightarrow","leftarrow","rightarrow","rightarrow","leftarrow","leftarrow","leftarrow","rightarrow"],"horizon":10,"forced_choices":["leftarrow","leftarrow","rightarrow","leftarrow"],"right_color":"lightblue","left_color":"orange","left_mu":40,"right_mu":44,"left_numbers":[43,31,68,31,33,47,49,41,44,40],"right_numbers":[39,55,39,49,55,26,29,37,52,41],"points_earned":400,"phase":"task","trial_type":"horizons-task","trial_index":58,"time_elapsed":667375,"internal_node_id":"0.0-44.0","task_version":"0.2"},{"response_times":[836.0499999835156,393.02499999757856,389.05500003602356,789.5000000135042,530.6350000319071,206.14500000374392,521.7549999943003,471.8499999726191,579.4699999969453,354.65500003192574],"keys_pressed":["leftarrow","rightarrow","leftarrow","leftarrow","leftarrow","rightarrow","leftarrow","leftarrow","rightarrow","leftarrow"],"horizon":10,"forced_choices":["leftarrow","rightarrow","leftarrow","leftarrow"],"right_color":"orange","left_color":"lightblue","left_mu":40,"right_mu":36,"left_numbers":[41,37,37,44,32,45,38,34,33,37],"right_numbers":[41,36,34,36,31,36,19,33,29,43],"points_earned":364,"phase":"task","trial_type":"horizons-task","trial_index":59,"time_elapsed":673971,"internal_node_id":"0.0-45.0","task_version":"0.2"},{"response_times":[696.8249999918044,418.134999985341,493.0750000057742,606.8300000042655,364.53000002074987,331.34499995503575,535.2999999886379,441.9950000010431,279.96499999426305,530.2600000286475],"keys_pressed":["leftarrow","rightarrow","rightarrow","rightarrow","leftarrow","rightarrow","leftarrow","leftarrow","rightarrow","leftarrow"],"horizon":10,"forced_choices":["leftarrow","rightarrow","rightarrow","rightarrow"],"right_color":"lightblue","left_color":"orange","left_mu":60,"right_mu":68,"left_numbers":[64,71,54,47,61,53,63,57,51,52],"right_numbers":[60,69,79,76,67,62,76,74,66,58],"points_earned":649,"phase":"task","trial_type":"horizons-task","trial_index":60,"time_elapsed":680176,"internal_node_id":"0.0-46.0","task_version":"0.2"},{"view_history":"[{\"page_index\":0,\"viewing_time\":4451.814999978524},{\"page_index\":1,\"viewing_time\":1671.1599999689497}]","rt":6124.229999957606,"trial_type":"instructions","trial_index":61,"time_elapsed":686303,"internal_node_id":"0.0-47.0","task_version":"0.2"},{"response_times":[1507.9699999769218,506.74500002060086,315.83999999566004,637.0999999926426,621.3750000461005,390.24500001687557,427.1900000167079,323.8400000263937,326.83500001439825,443.9550000242889],"keys_pressed":["leftarrow","leftarrow","rightarrow","rightarrow","leftarrow","rightarrow","rightarrow","leftarrow","rightarrow","leftarrow"],"horizon":10,"forced_choices":["leftarrow","leftarrow","rightarrow","rightarrow"],"right_color":"orange","left_color":"lightblue","left_mu":40,"right_mu":70,"left_numbers":[24,49,43,49,44,31,27,31,55,50],"right_numbers":[83,69,77,60,59,73,83,70,68,65],"points_earned":559,"phase":"task","trial_type":"horizons-task","trial_index":62,"time_elapsed":693325,"internal_node_id":"0.0-48.0","task_version":"0.2"},{"response_times":[677.6649999665096,1056.1800000141375,578.9649999933317,701.5899999532849,422.0000000204891,1090.8899999922141,1033.3000000100583,427.4199999636039,655.6749999872409,547.8449999936856],"keys_pressed":["leftarrow","rightarrow","rightarrow","rightarrow","leftarrow","rightarrow","leftarrow","rightarrow","rightarrow","rightarrow"],"horizon":10,"forced_choices":["leftarrow","rightarrow","rightarrow","rightarrow"],"right_color":"lightblue","left_color":"orange","left_mu":60,"right_mu":48,"left_numbers":[63,56,51,54,65,48,74,63,58,46],"right_numbers":[60,60,34,64,55,48,55,50,36,34],"points_earned":528,"phase":"task","trial_type":"horizons-task","trial_index":63,"time_elapsed":702032,"internal_node_id":"0.0-49.0","task_version":"0.2"},{"response_times":[698.6899999901652,1042.3050000099465,674.4050000561401,699.3599999696016,484.88000000361353,463.77000003121793,429.23499998869374,401.9100000150502,467.79000002425164,381.4649999840185],"keys_pressed":["rightarrow","rightarrow","leftarrow","leftarrow","rightarrow","rightarrow","rightarrow","leftarrow","rightarrow","leftarrow"],"horizon":10,"forced_choices":["rightarrow","rightarrow","leftarrow","leftarrow"],"right_color":"lightblue","left_color":"orange","left_mu":60,"right_mu":90,"left_numbers":[56,49,64,68,55,81,64,56,59,44],"right_numbers":[81,87,94,82,87,85,84,88,85,100],"points_earned":741,"phase":"task","trial_type":"horizons-task","trial_index":64,"time_elapsed":709281,"internal_node_id":"0.0-50.0","task_version":"0.2"},{"response_times":[874.0100000286475,561.6149999550544,309.41500002518296,465.9949999768287,315.15500001842156,358.8500000187196,369.93500002427027,431.5099999657832,407.4549999786541,507.7249999740161],"keys_pressed":["leftarrow","rightarrow","rightarrow","leftarrow","rightarrow","leftarrow","rightarrow","rightarrow","leftarrow","rightarrow"],"horizon":10,"forced_choices":["leftarrow","rightarrow","rightarrow","leftarrow"],"right_color":"lightblue","left_color":"orange","left_mu":60,"right_mu":68,"left_numbers":[52,67,52,56,59,57,57,52,62,74],"right_numbers":[71,52,65,67,67,68,62,71,68,69],"points_earned":613,"phase":"task","trial_type":"horizons-task","trial_index":65,"time_elapsed":715388,"internal_node_id":"0.0-51.0","task_version":"0.2"},{"response_times":[620.6850000307895,342.449999996461,1023.3700000098906,565.9649999579415,377.52500001806766,403.79999997094274,309.8749999771826,225.61000002315268,593.4399999678135,674.9249999993481],"keys_pressed":["rightarrow","leftarrow","leftarrow","leftarrow","rightarrow","leftarrow","rightarrow","rightarrow","leftarrow","leftarrow"],"horizon":10,"forced_choices":["rightarrow","leftarrow","leftarrow","leftarrow"],"right_color":"orange","left_color":"lightblue","left_mu":60,"right_mu":56,"left_numbers":[53,53,50,63,57,67,43,49,60,52],"right_numbers":[74,67,45,67,70,56,48,44,43,59],"points_earned":581,"phase":"task","trial_type":"horizons-task","trial_index":66,"time_elapsed":722031,"internal_node_id":"0.0-52.0","task_version":"0.2"},{"response_times":[553.2649999950081,419.32500002440065,355.5649999761954,531.905000039842,396.4999999734573],"keys_pressed":["rightarrow","leftarrow","rightarrow","rightarrow","leftarrow"],"horizon":5,"forced_choices":["rightarrow","leftarrow","rightarrow","rightarrow"],"right_color":"orange","left_color":"lightblue","left_mu":40,"right_mu":70,"left_numbers":[44,37,45,38,42],"right_numbers":[49,53,75,84,73],"points_earned":287,"phase":"task","trial_type":"horizons-task","trial_index":67,"time_elapsed":725794,"internal_node_id":"0.0-53.0","task_version":"0.2"},{"response_times":[577.9599999659695,515.3700000373647,1081.3499999931082,550.6649999879301,551.7999999574386],"keys_pressed":["rightarrow","leftarrow","leftarrow","rightarrow","rightarrow"],"horizon":5,"forced_choices":["rightarrow","leftarrow","leftarrow","rightarrow"],"right_color":"lightblue","left_color":"orange","left_mu":60,"right_mu":30,"left_numbers":[66,65,65,72,60],"right_numbers":[38,19,43,19,38],"points_earned":225,"phase":"task","trial_type":"horizons-task","trial_index":68,"time_elapsed":730577,"internal_node_id":"0.0-54.0","task_version":"0.2"},{"response_times":[619.1749999998137,651.030000008177,665.6749999965541,457.30499998899177,705.5000000400469],"keys_pressed":["rightarrow","rightarrow","rightarrow","leftarrow","leftarrow"],"horizon":5,"forced_choices":["rightarrow","rightarrow","rightarrow","leftarrow"],"right_color":"lightblue","left_color":"orange","left_mu":60,"right_mu":90,"left_numbers":[68,60,59,44,56],"right_numbers":[96,91,97,91,95],"points_earned":384,"phase":"task","trial_type":"horizons-task","trial_index":69,"time_elapsed":735185,"internal_node_id":"0.0-55.0","task_version":"0.2"},{"response_times":[1141.0649999743327,580.7200000272132,368.5549999936484,642.6650000503287,1432.1850000414997],"keys_pressed":["leftarrow","rightarrow","leftarrow","rightarrow","rightarrow"],"horizon":5,"forced_choices":["leftarrow","rightarrow","leftarrow","rightarrow"],"right_color":"orange","left_color":"lightblue","left_mu":40,"right_mu":36,"left_numbers":[38,33,41,35,29],"right_numbers":[34,50,38,21,29],"points_earned":179,"phase":"task","trial_type":"horizons-task","trial_index":70,"time_elapsed":740868,"internal_node_id":"0.0-56.0","task_version":"0.2"},{"response_times":[856.1999999801628,702.980000001844,624.7999999905005,307.73000000044703,516.8199999607168],"keys_pressed":["leftarrow","leftarrow","leftarrow","rightarrow","rightarrow"],"horizon":5,"forced_choices":["leftarrow","leftarrow","leftarrow","rightarrow"],"right_color":"orange","left_color":"lightblue","left_mu":40,"right_mu":10,"left_numbers":[49,46,42,45,49],"right_numbers":[16,0,18,18,17],"points_earned":172,"phase":"task","trial_type":"horizons-task","trial_index":71,"time_elapsed":745381,"internal_node_id":"0.0-57.0","task_version":"0.2"},{"response_times":[732.880000025034,396.98999997926876,511.8650000076741,627.6350000407547,534.8699999740347,456.77500002784654,397.8249999927357,308.8050000369549,376.6699999687262,403.87499995995313],"keys_pressed":["leftarrow","rightarrow","rightarrow","rightarrow","leftarrow","rightarrow","leftarrow","leftarrow","rightarrow","leftarrow"],"horizon":10,"forced_choices":["leftarrow","rightarrow","rightarrow","rightarrow"],"right_color":"orange","left_color":"lightblue","left_mu":60,"right_mu":64,"left_numbers":[69,51,51,53,58,64,72,69,52,57],"right_numbers":[59,48,72,78,78,65,60,48,62,69],"points_earned":650,"phase":"task","trial_type":"horizons-task","trial_index":72,"time_elapsed":751654,"internal_node_id":"0.0-58.0","task_version":"0.2"},{"response_times":[776.6450000344776,692.125000001397,423.77499997382984,313.0799999926239,546.7500000377186],"keys_pressed":["leftarrow","rightarrow","leftarrow","rightarrow","rightarrow"],"horizon":5,"forced_choices":["leftarrow","rightarrow","leftarrow","rightarrow"],"right_color":"lightblue","left_color":"orange","left_mu":60,"right_mu":80,"left_numbers":[63,54,50,75,62],"right_numbers":[76,87,83,75,73],"points_earned":348,"phase":"task","trial_type":"horizons-task","trial_index":73,"time_elapsed":755913,"internal_node_id":"0.0-59.0","task_version":"0.2"},{"response_times":[649.7349999845028,532.4200000031851,651.1000000173226,1402.689999958966,501.955000043381],"keys_pressed":["rightarrow","rightarrow","rightarrow","leftarrow","rightarrow"],"horizon":5,"forced_choices":["rightarrow","rightarrow","rightarrow","leftarrow"],"right_color":"lightblue","left_color":"orange","left_mu":60,"right_mu":30,"left_numbers":[51,49,59,52,61],"right_numbers":[33,20,23,41,46],"points_earned":174,"phase":"task","trial_type":"horizons-task","trial_index":74,"time_elapsed":761156,"internal_node_id":"0.0-60.0","task_version":"0.2"},{"response_times":[691.2349999765866,641.2499999860302,412.29000000748783,477.66500001307577,705.1550000323914,575.1499999896623,404.22000002581626,478.3799999859184,316.54500000877306,373.58000001404434],"keys_pressed":["leftarrow","leftarrow","rightarrow","leftarrow","rightarrow","rightarrow","leftarrow","leftarrow","rightarrow","leftarrow"],"horizon":10,"forced_choices":["leftarrow","leftarrow","rightarrow","leftarrow"],"right_color":"lightblue","left_color":"orange","left_mu":40,"right_mu":32,"left_numbers":[32,44,31,50,28,55,42,27,51,31],"right_numbers":[39,35,27,31,28,29,38,28,31,34],"points_earned":341,"phase":"task","trial_type":"horizons-task","trial_index":75,"time_elapsed":767737,"internal_node_id":"0.0-61.0","task_version":"0.2"},{"response_times":[644.3000000435859,402.00000000186265,541.6149999946356,335.9550000168383,361.2449999782257,393.41499999864027,420.6549999653362,330.7700000004843,325.68499998888,375.67500001750886],"keys_pressed":["leftarrow","rightarrow","rightarrow","leftarrow","rightarrow","rightarrow","leftarrow","leftarrow","leftarrow","rightarrow"],"horizon":10,"forced_choices":["leftarrow","rightarrow","rightarrow","leftarrow"],"right_color":"lightblue","left_color":"orange","left_mu":40,"right_mu":44,"left_numbers":[38,46,36,47,29,45,44,39,43,40],"right_numbers":[32,49,44,48,42,38,46,56,39,31],"points_earned":415,"phase":"task","trial_type":"horizons-task","trial_index":76,"time_elapsed":773374,"internal_node_id":"0.0-62.0","task_version":"0.2"},{"response_times":[644.620000035502,497.1050000167452,547.6600000401959,510.9449999872595,612.2299999697134],"keys_pressed":["rightarrow","leftarrow","rightarrow","leftarrow","rightarrow"],"horizon":5,"forced_choices":["rightarrow","leftarrow","rightarrow","leftarrow"],"right_color":"lightblue","left_color":"orange","left_mu":40,"right_mu":60,"left_numbers":[54,23,34,47,28],"right_numbers":[54,62,50,56,67],"points_earned":241,"phase":"task","trial_type":"horizons-task","trial_index":77,"time_elapsed":777692,"internal_node_id":"0.0-63.0","task_version":"0.2"},{"response_times":[1057.1099999942817,755.9349999646656,457.8099999926053,429.7000000369735,489.16499997721985,413.509999983944,264.7600000491366,463.9200000092387,379.25499997800216,444.4800000055693],"keys_pressed":["leftarrow","leftarrow","leftarrow","rightarrow","leftarrow","leftarrow","rightarrow","rightarrow","leftarrow","rightarrow"],"horizon":10,"forced_choices":["leftarrow","leftarrow","leftarrow","rightarrow"],"right_color":"orange","left_color":"lightblue","left_mu":60,"right_mu":72,"left_numbers":[53,53,54,45,56,67,55,75,58,56],"right_numbers":[80,62,75,62,70,78,54,49,71,79],"points_earned":585,"phase":"task","trial_type":"horizons-task","trial_index":78,"time_elapsed":784352,"internal_node_id":"0.0-64.0","task_version":"0.2"},{"response_times":[775.5700000561774,385.81500004511327,364.27499999990687,358.34999999497086,314.2649999936111,300.3649999736808,386.29500003298745,268.1200000224635,346.28500003600493,588.5500000440516],"keys_pressed":["rightarrow","leftarrow","rightarrow","leftarrow","leftarrow","rightarrow","leftarrow","leftarrow","rightarrow","leftarrow"],"horizon":10,"forced_choices":["rightarrow","leftarrow","rightarrow","leftarrow"],"right_color":"lightblue","left_color":"orange","left_mu":40,"right_mu":60,"left_numbers":[45,41,38,29,39,36,40,34,31,35],"right_numbers":[62,61,57,51,72,69,45,71,55,61],"points_earned":461,"phase":"task","trial_type":"horizons-task","trial_index":79,"time_elapsed":789945,"internal_node_id":"0.0-65.0","task_version":"0.2"},{"response_times":[815.694999997504,496.58500001532957,259.8700000089593,1125.5399999790825,828.0849999864586],"keys_pressed":["rightarrow","leftarrow","rightarrow","rightarrow","leftarrow"],"horizon":5,"forced_choices":["rightarrow","leftarrow","rightarrow","rightarrow"],"right_color":"lightblue","left_color":"orange","left_mu":40,"right_mu":48,"left_numbers":[30,48,35,43,38],"right_numbers":[35,51,52,40,48],"points_earned":213,"phase":"task","trial_type":"horizons-task","trial_index":80,"time_elapsed":794977,"internal_node_id":"0.0-66.0","task_version":"0.2"},{"response_times":[655.1549999858253,447.28999998187646,328.50499998312443,962.9750000312924,441.73000002047047,368.82500001229346,300.47000001650304,358.20000001695007,386.19499997003004,488.965000025928],"keys_pressed":["rightarrow","leftarrow","rightarrow","rightarrow","rightarrow","leftarrow","rightarrow","rightarrow","leftarrow","leftarrow"],"horizon":10,"forced_choices":["rightarrow","leftarrow","rightarrow","rightarrow"],"right_color":"orange","left_color":"lightblue","left_mu":40,"right_mu":70,"left_numbers":[28,47,36,35,42,28,39,54,45,48],"right_numbers":[64,59,74,71,60,67,69,74,71,87],"points_earned":580,"phase":"task","trial_type":"horizons-task","trial_index":81,"time_elapsed":801220,"internal_node_id":"0.0-67.0","task_version":"0.2"},{"response_times":[853.9049999671988,434.81500004418194,651.175000006333,510.66499995067716,215.00500000547618],"keys_pressed":["rightarrow","leftarrow","leftarrow","leftarrow","rightarrow"],"horizon":5,"forced_choices":["rightarrow","leftarrow","leftarrow","leftarrow"],"right_color":"orange","left_color":"lightblue","left_mu":60,"right_mu":56,"left_numbers":[57,55,51,46,51],"right_numbers":[65,62,60,52,43],"points_earned":260,"phase":"task","trial_type":"horizons-task","trial_index":82,"time_elapsed":805405,"internal_node_id":"0.0-68.0","task_version":"0.2"},{"response_times":[729.8599999630824,641.8849999899976,499.599999981001,1012.7900000079535,453.9850000292063],"keys_pressed":["rightarrow","rightarrow","leftarrow","leftarrow","leftarrow"],"horizon":5,"forced_choices":["rightarrow","rightarrow","leftarrow","leftarrow"],"right_color":"lightblue","left_color":"orange","left_mu":40,"right_mu":48,"left_numbers":[41,30,44,39,34],"right_numbers":[42,30,47,48,55],"points_earned":189,"phase":"task","trial_type":"horizons-task","trial_index":83,"time_elapsed":810247,"internal_node_id":"0.0-69.0","task_version":"0.2"},{"response_times":[1032.0350000401959,402.9549999977462,476.29500000039116,309.88000001525506,480.44499999377877,386.0149999964051,385.11500001186505,297.580000013113,295.18499999539927,354.05500000342727],"keys_pressed":["leftarrow","rightarrow","leftarrow","rightarrow","rightarrow","rightarrow","leftarrow","rightarrow","leftarrow","rightarrow"],"horizon":10,"forced_choices":["leftarrow","rightarrow","leftarrow","rightarrow"],"right_color":"orange","left_color":"lightblue","left_mu":60,"right_mu":64,"left_numbers":[60,58,56,52,63,71,52,65,66,67],"right_numbers":[69,75,67,41,61,70,63,60,50,51],"points_earned":592,"phase":"task","trial_type":"horizons-task","trial_index":84,"time_elapsed":816173,"internal_node_id":"0.0-70.0","task_version":"0.2"},{"response_times":[536.2399999867193,233.41500002425164,673.5399999888614,391.37000002665445,299.4300000136718,220.20500001963228,278.44500000355765,201.69999997597188,327.10499997483566,302.7299999957904],"keys_pressed":["leftarrow","rightarrow","leftarrow","leftarrow","leftarrow","rightarrow","leftarrow","rightarrow","leftarrow","leftarrow"],"horizon":10,"forced_choices":["leftarrow","rightarrow","leftarrow","leftarrow"],"right_color":"lightblue","left_color":"orange","left_mu":60,"right_mu":80,"left_numbers":[56,71,62,55,46,63,55,63,62,61],"right_numbers":[82,78,71,85,73,76,85,67,87,70],"points_earned":618,"phase":"task","trial_type":"horizons-task","trial_index":85,"time_elapsed":821145,"internal_node_id":"0.0-71.0","task_version":"0.2"},{"response_times":[538.5749999550171,530.220000015106,568.1400000466965,325.87999996030703,280.87499999674037,294.034999969881,252.79999995836988,223.27000001678243,183.8799999677576,169.01000001234934],"keys_pressed":["leftarrow","leftarrow","rightarrow","leftarrow","rightarrow","leftarrow","rightarrow","leftarrow","rightarrow","leftarrow"],"horizon":10,"forced_choices":["leftarrow","leftarrow","rightarrow","leftarrow"],"right_color":"lightblue","left_color":"orange","left_mu":40,"right_mu":20,"left_numbers":[39,43,26,31,51,51,34,35,38,44],"right_numbers":[15,34,7,15,13,20,19,23,13,18],"points_earned":295,"phase":"task","trial_type":"horizons-task","trial_index":86,"time_elapsed":826017,"internal_node_id":"0.0-72.0","task_version":"0.2"},{"response_times":[674.4249999755993,547.4500000127591,435.5100000393577,520.4049999592826,311.4549999590963],"keys_pressed":["leftarrow","leftarrow","rightarrow","rightarrow","leftarrow"],"horizon":5,"forced_choices":["leftarrow","leftarrow","rightarrow","rightarrow"],"right_color":"orange","left_color":"lightblue","left_mu":40,"right_mu":10,"left_numbers":[38,29,58,49,42],"right_numbers":[0,0,12,13,10],"points_earned":134,"phase":"task","trial_type":"horizons-task","trial_index":87,"time_elapsed":830011,"internal_node_id":"0.0-73.0","task_version":"0.2"},{"response_times":[814.8199999704957,348.6000000266358,325.98500000312924,370.93500001356006,296.64499999489635],"keys_pressed":["rightarrow","leftarrow","leftarrow","rightarrow","leftarrow"],"horizon":5,"forced_choices":["rightarrow","leftarrow","leftarrow","rightarrow"],"right_color":"lightblue","left_color":"orange","left_mu":40,"right_mu":32,"left_numbers":[24,38,39,49,37],"right_numbers":[31,32,33,24,30],"points_earned":169,"phase":"task","trial_type":"horizons-task","trial_index":88,"time_elapsed":833677,"internal_node_id":"0.0-74.0","task_version":"0.2"},{"response_times":[530.4450000403449,805.530000012368,485.58000003686175,491.51500000152737,297.4199999589473],"keys_pressed":["leftarrow","leftarrow","rightarrow","leftarrow","rightarrow"],"horizon":5,"forced_choices":["leftarrow","leftarrow","rightarrow","leftarrow"],"right_color":"lightblue","left_color":"orange","left_mu":40,"right_mu":20,"left_numbers":[52,38,26,31,51],"right_numbers":[27,17,18,26,29],"points_earned":168,"phase":"task","trial_type":"horizons-task","trial_index":89,"time_elapsed":837816,"internal_node_id":"0.0-75.0","task_version":"0.2"},{"response_times":[932.7650000341237,376.784999971278,536.5699999965727,491.5550000150688,328.975000011269,363.23999997694045,277.48499996960163,326.790000020992,292.49500000150874,300.5299999495037],"keys_pressed":["rightarrow","leftarrow","leftarrow","rightarrow","leftarrow","rightarrow","rightarrow","leftarrow","rightarrow","leftarrow"],"horizon":10,"forced_choices":["rightarrow","leftarrow","leftarrow","rightarrow"],"right_color":"orange","left_color":"lightblue","left_mu":60,"right_mu":56,"left_numbers":[68,57,53,58,57,65,74,61,55,55],"right_numbers":[48,57,77,61,52,46,59,60,59,63],"points_earned":556,"phase":"task","trial_type":"horizons-task","trial_index":90,"time_elapsed":843550,"internal_node_id":"0.0-76.0","task_version":"0.2"},{"response_times":[684.5199999515899,372.26500001270324,678.4549999865703,486.7599999997765,336.92500001052395,288.27000001911074,309.4799999962561,306.9950000499375,397.24500000011176,260.89000003412366],"keys_pressed":["rightarrow","leftarrow","leftarrow","rightarrow","leftarrow","rightarrow","leftarrow","rightarrow","leftarrow","leftarrow"],"horizon":10,"forced_choices":["rightarrow","leftarrow","leftarrow","rightarrow"],"right_color":"lightblue","left_color":"orange","left_mu":40,"right_mu":32,"left_numbers":[33,44,30,46,41,34,22,48,48,45],"right_numbers":[30,38,30,47,45,31,25,43,28,23],"points_earned":381,"phase":"task","trial_type":"horizons-task","trial_index":91,"time_elapsed":849179,"internal_node_id":"0.0-77.0","task_version":"0.2"},{"response_times":[732.640000001993,471.045000012964,350.0099999946542,251.5750000020489,320.4949999926612,448.3949999557808,269.6049999794923,241.9699999736622,261.8099999963306,217.91499998653308],"keys_pressed":["rightarrow","leftarrow","rightarrow","leftarrow","rightarrow","rightarrow","leftarrow","rightarrow","leftarrow","leftarrow"],"horizon":10,"forced_choices":["rightarrow","leftarrow","rightarrow","leftarrow"],"right_color":"lightblue","left_color":"orange","left_mu":40,"right_mu":20,"left_numbers":[31,51,50,54,36,35,39,41,47,44],"right_numbers":[26,33,12,20,22,24,27,11,19,39],"points_earned":330,"phase":"task","trial_type":"horizons-task","trial_index":92,"time_elapsed":854250,"internal_node_id":"0.0-78.0","task_version":"0.2"},{"response_times":[631.8900000187568,633.3549999981187,603.5550000378862,359.3649999820627,323.01499997265637,345.3849999932572,331.8100000033155,283.69000001112,281.9749999907799,279.5050000422634],"keys_pressed":["rightarrow","rightarrow","leftarrow","rightarrow","leftarrow","rightarrow","rightarrow","leftarrow","rightarrow","leftarrow"],"horizon":10,"forced_choices":["rightarrow","rightarrow","leftarrow","rightarrow"],"right_color":"lightblue","left_color":"orange","left_mu":40,"right_mu":60,"left_numbers":[35,43,35,44,33,38,43,33,36,15],"right_numbers":[61,69,58,60,71,58,73,63,68,73],"points_earned":505,"phase":"task","trial_type":"horizons-task","trial_index":93,"time_elapsed":859830,"internal_node_id":"0.0-79.0","task_version":"0.2"},{"response_times":[691.335000039544,823.1299999752082,582.6950000482611,390.4849999817088,323.87999998172745,323.14500003121793,250.56000001495704,279.1350000188686,251.589999999851,298.23499999474734],"keys_pressed":["rightarrow","rightarrow","leftarrow","rightarrow","leftarrow","rightarrow","rightarrow","rightarrow","leftarrow","rightarrow"],"horizon":10,"forced_choices":["rightarrow","rightarrow","leftarrow","rightarrow"],"right_color":"orange","left_color":"lightblue","left_mu":60,"right_mu":40,"left_numbers":[54,59,54,52,54,56,59,59,51,55],"right_numbers":[35,51,43,39,49,38,46,51,26,45],"points_earned":464,"phase":"task","trial_type":"horizons-task","trial_index":94,"time_elapsed":865563,"internal_node_id":"0.0-80.0","task_version":"0.2"},{"response_times":[574.5699999970384,701.230000006035,480.4850000073202,718.555000028573,525.179999996908],"keys_pressed":["rightarrow","rightarrow","leftarrow","leftarrow","rightarrow"],"horizon":5,"forced_choices":["rightarrow","rightarrow","leftarrow","leftarrow"],"right_color":"lightblue","left_color":"orange","left_mu":60,"right_mu":90,"left_numbers":[57,59,57,70,54],"right_numbers":[92,89,89,83,82],"points_earned":390,"phase":"task","trial_type":"horizons-task","trial_index":95,"time_elapsed":870098,"internal_node_id":"0.0-81.0","task_version":"0.2"},{"response_times":[491.7649999842979,678.7350000231527,320.24500000989065,353.3849999657832,234.72999996738508,260.0850000162609,239.37999998452142,191.06000004103407,281.0499999905005,261.82499999413267],"keys_pressed":["rightarrow","rightarrow","leftarrow","leftarrow","leftarrow","rightarrow","leftarrow","rightarrow","leftarrow","rightarrow"],"horizon":10,"forced_choices":["rightarrow","rightarrow","leftarrow","leftarrow"],"right_color":"orange","left_color":"lightblue","left_mu":60,"right_mu":40,"left_numbers":[57,49,61,57,49,69,65,66,64,48],"right_numbers":[40,31,29,40,54,26,41,35,48,46],"points_earned":474,"phase":"task","trial_type":"horizons-task","trial_index":96,"time_elapsed":874942,"internal_node_id":"0.0-82.0","task_version":"0.2"},{"response_times":[567.3650000244379,481.2200000160374,295.91500002425164,296.3500000187196,273.77999998861924,493.83499997202307,257.4699999531731,219.4000000017695,417.29000001214445,158.58500002650544],"keys_pressed":["rightarrow","leftarrow","rightarrow","leftarrow","rightarrow","leftarrow","leftarrow","rightarrow","rightarrow","rightarrow"],"horizon":10,"forced_choices":["rightarrow","leftarrow","rightarrow","leftarrow"],"right_color":"orange","left_color":"lightblue","left_mu":60,"right_mu":52,"left_numbers":[60,59,50,74,60,45,79,63,71,56],"right_numbers":[38,58,66,44,41,47,40,50,59,57],"points_earned":568,"phase":"task","trial_type":"horizons-task","trial_index":97,"time_elapsed":879911,"internal_node_id":"0.0-83.0","task_version":"0.2"},{"response_times":[744.4850000320002,606.705000041984,257.4449999956414,351.43500001868233,346.7700000037439,237.64000000664964,214.16500001214445,213.12999998917803,302.8249999624677,296.8600000021979],"keys_pressed":["rightarrow","rightarrow","rightarrow","leftarrow","rightarrow","leftarrow","rightarrow","leftarrow","leftarrow","rightarrow"],"horizon":10,"forced_choices":["rightarrow","rightarrow","rightarrow","leftarrow"],"right_color":"lightblue","left_color":"orange","left_mu":60,"right_mu":90,"left_numbers":[67,60,62,62,61,60,60,53,63,51],"right_numbers":[88,94,93,98,98,98,101,84,84,97],"points_earned":809,"phase":"task","trial_type":"horizons-task","trial_index":98,"time_elapsed":885003,"internal_node_id":"0.0-84.0","task_version":"0.2"},{"response_times":[1374.294999986887,273.2700000051409,391.8050000211224,610.1600000401959,350.2100000041537],"keys_pressed":["leftarrow","rightarrow","rightarrow","rightarrow","leftarrow"],"horizon":5,"forced_choices":["leftarrow","rightarrow","rightarrow","rightarrow"],"right_color":"lightblue","left_color":"orange","left_mu":60,"right_mu":48,"left_numbers":[54,58,66,59,57],"right_numbers":[43,50,43,37,44],"points_earned":241,"phase":"task","trial_type":"horizons-task","trial_index":99,"time_elapsed":889525,"internal_node_id":"0.0-85.0","task_version":"0.2"},{"response_times":[932.8049999894574,339.68999999342486,307.5599999865517,244.73999999463558,230.57999997399747,164.9599999655038,172.29499999666587,169.02999999001622,139.65000002644956,137.34999997541308],"keys_pressed":["leftarrow","rightarrow","leftarrow","rightarrow","leftarrow","rightarrow","leftarrow","rightarrow","leftarrow","rightarrow"],"horizon":10,"forced_choices":["leftarrow","rightarrow","leftarrow","rightarrow"],"right_color":"lightblue","left_color":"orange","left_mu":60,"right_mu":80,"left_numbers":[59,39,65,51,41,68,64,49,74,63],"right_numbers":[63,93,75,78,78,78,86,70,79,90],"points_earned":712,"phase":"task","trial_type":"horizons-task","trial_index":100,"time_elapsed":893869,"internal_node_id":"0.0-86.0","task_version":"0.2"},{"response_times":[725.9100000374019,418.46000001532957,655.510000011418,404.6700000180863,179.46000001393259,166.20000003604218,224.92499998770654,246.5249999659136,161.64999996544793,170.07499997271225],"keys_pressed":["rightarrow","leftarrow","leftarrow","leftarrow","leftarrow","leftarrow","rightarrow","leftarrow","rightarrow","leftarrow"],"horizon":10,"forced_choices":["rightarrow","leftarrow","leftarrow","leftarrow"],"right_color":"orange","left_color":"lightblue","left_mu":40,"right_mu":52,"left_numbers":[41,63,32,33,34,45,49,49,30,35],"right_numbers":[33,55,53,38,48,58,46,60,57,60],"points_earned":427,"phase":"task","trial_type":"horizons-task","trial_index":101,"time_elapsed":898727,"internal_node_id":"0.0-87.0","task_version":"0.2"},{"rt":23141.445000015665,"responses":{"age":"26","gender-categorical":"Female","gender-free-response":"","ethnicity":"Not Hispanic or Latino","race":["White"],"language":"Yes","fluency":"Very well"},"survey":"demographics","trial_type":"survey-demo","trial_index":102,"time_elapsed":922030,"internal_node_id":"0.0-88.0","task_version":"0.2"},{"rt":17427.279999945313,"responses":{"difficulty":"3","fun":"5","clarity":"4","strategy":"no","feedback":"no"},"survey":"debrief","trial_type":"survey-debrief","trial_index":103,"time_elapsed":939467,"internal_node_id":"0.0-89.0","task_version":"0.2","interactions":"[{\"event\":\"blur\",\"trial\":1,\"time\":79351},{\"event\":\"focus\",\"trial\":1,\"time\":79711}]"}]