[{"view_history":"[{\"page_index\":0,\"viewing_time\":2294}]","rt":2294,"trial_type":"instructions","trial_index":0,"time_elapsed":2300,"internal_node_id":"0.0-0.0","task_version":"0.2"},{"item_order":[1,10,4,15,3,16,11,0,5,13,9,7,6,12,8,2,14],"responses":{"Q02":"2","Q11":"2","Q05":"3","Q16":"2","Q04":"4","Q17":"0","Q12":"3","Q01":"3","Q06":"2","Q14":"2","Q10":"4","Q08":"4","Q07":"3","Q13":"2","Q09":"2","Q03":"4","Q15":"4"},"radio_events":[9603,15714,16682,20367,23658,26926,30873,33469,36280,38746,41036,43105,46197,49777,52716,56400,60300],"key_events":[],"mouse_events":[0,7870,9603,15714,16682,20367,23658,26926,30873,33469,36280,38746,41036,43105,46197,49777,52716,56400,60300,60974],"rt":60975,"survey":"pswq","trial_type":"survey-template","trial_index":1,"time_elapsed":63302,"internal_node_id":"0.0-1.0","task_version":"0.2"},{"item_order":[7,12,2,6,0,11,8,10,4,1,5,3,9],"responses":{"Q08":"2","Q13":"4","Q03":"3","Q07":"3","Q01":"3","Q12":"2","Q09":"2","Q11":"2","Q05":"3","Q02":"3","Q06":"2","Q04":"2","Q10":"3"},"radio_events":[4106,6685,9712,11794,13811,24854,26536,32442,34553,36547,39507,43867,44997],"key_events":[],"mouse_events":[4106,6685,9712,11794,13811,24854,26536,32442,34553,36547,39507,43867,44997,45800],"rt":45800,"survey":"ius12","trial_type":"survey-template","trial_index":2,"time_elapsed":109111,"internal_node_id":"0.0-2.0","task_version":"0.2"},{"item_order":[2,10,15,5,3,9,14,11,7,12,0,6,1,4,13,8],"responses":{"Q03":"2","Q11":"4","Q16":"5","Q06":"4","Q04":"3","Q10":"2","Q15":"3","Q12":"3","Q08":"3","Q13":"3","Q01":"3","Q07":"4","Q02":"4","Q05":"2","Q14":"1","Q09":"4"},"radio_events":[35425,39117,41956,44751,48891,54071,56914,61984,66355,68918,70672,75769,78475,82972,86626,91957,94455],"key_events":[],"mouse_events":[35425,39117,41956,44751,48891,54071,56914,61984,66355,68918,70672,75769,78475,82972,86626,91957,94455,96326],"rt":96326,"survey":"nfc","trial_type":"survey-template","trial_index":3,"time_elapsed":205450,"internal_node_id":"0.0-3.0","task_version":"0.2"},{"view_history":"[{\"page_index\":0,\"viewing_time\":5458},{\"page_index\":1,\"viewing_time\":5549},{\"page_index\":2,\"viewing_time\":7148},{\"page_index\":3,\"viewing_time\":12337},{\"page_index\":4,\"viewing_time\":5861},{\"page_index\":5,\"viewing_time\":3408},{\"page_index\":6,\"viewing_time\":6773},{\"page_index\":7,\"viewing_time\":8718},{\"page_index\":8,\"viewing_time\":11962},{\"page_index\":9,\"viewing_time\":12151}]","rt":79366,"trial_type":"instructions","trial_index":4,"time_elapsed":284821,"internal_node_id":"0.0-4.0-0.0","task_version":"0.2"},{"response_times":[961,1069,535,618,3949],"keys_pressed":["rightarrow","leftarrow","rightarrow","rightarrow","leftarrow"],"horizon":5,"forced_choices":["rightarrow","leftarrow","rightarrow","rightarrow"],"right_color":"lightblue","left_color":"orange","left_mu":40,"right_mu":20,"left_numbers":[43,53,43,47,36],"right_numbers":[16,16,10,15,23],"points_earned":130,"phase":"practice","trial_type":"horizons-task","trial_index":5,"time_elapsed":293486,"internal_node_id":"0.0-4.0-1.0","task_version":"0.2"},{"response_times":[1170,599,493,474,6239,4392,3393,2378,953,1691],"keys_pressed":["leftarrow","leftarrow","rightarrow","rightarrow","leftarrow","leftarrow","leftarrow","rightarrow","rightarrow","leftarrow"],"horizon":10,"forced_choices":["leftarrow","leftarrow","rightarrow","rightarrow"],"right_color":"orange","left_color":"lightblue","left_mu":60,"right_mu":70,"left_numbers":[67,74,69,66,58,56,63,63,63,63],"right_numbers":[55,73,71,69,71,73,66,70,53,80],"points_earned":644,"phase":"practice","trial_type":"horizons-task","trial_index":6,"time_elapsed":316786,"internal_node_id":"0.0-4.0-2.0","task_version":"0.2"},{"view_history":"[{\"page_index\":0,\"viewing_time\":1052},{\"page_index\":1,\"viewing_time\":3256},{\"page_index\":2,\"viewing_time\":4545},{\"page_index\":3,\"viewing_time\":1974}]","rt":10827,"trial_type":"instructions","trial_index":7,"time_elapsed":327614,"internal_node_id":"0.0-4.0-3.0","task_version":"0.2"},{"responses":["true","false","true"],"num_errors":0,"rt":8824,"trial_type":"horizons-comprehension","trial_index":8,"time_elapsed":336443,"internal_node_id":"0.0-4.0-4.0","task_version":"0.2"},{"trial_type":"call-function","trial_index":9,"time_elapsed":336446,"internal_node_id":"0.0-5.0","task_version":"0.2"},{"view_history":"[{\"page_index\":0,\"viewing_time\":1477},{\"page_index\":1,\"viewing_time\":5343}]","rt":6820,"trial_type":"instructions","trial_index":10,"time_elapsed":343269,"internal_node_id":"0.0-6.0","task_version":"0.2"},{"response_times":[943,581,536,518,2882,2411,2173,1953,712,493],"keys_pressed":["rightarrow","rightarrow","leftarrow","leftarrow","leftarrow","leftarrow","leftarrow","rightarrow","leftarrow","leftarrow"],"horizon":10,"forced_choices":["rightarrow","rightarrow","leftarrow","leftarrow"],"right_color":"lightblue","left_color":"orange","left_mu":60,"right_mu":48,"left_numbers":[54,46,59,65,57,57,50,51,66,60],"right_numbers":[54,59,45,49,53,56,48,34,73,40],"points_earned":561,"phase":"task","trial_type":"horizons-task","trial_index":11,"time_elapsed":357995,"internal_node_id":"0.0-7.0","task_version":"0.2"},{"response_times":[810,629,605,819,7019],"keys_pressed":["rightarrow","rightarrow","leftarrow","rightarrow","leftarrow"],"horizon":5,"forced_choices":["rightarrow","rightarrow","leftarrow","rightarrow"],"right_color":"lightblue","left_color":"orange","left_mu":60,"right_mu":48,"left_numbers":[64,63,60,63,67],"right_numbers":[44,43,52,50,48],"points_earned":264,"phase":"task","trial_type":"horizons-task","trial_index":12,"time_elapsed":369386,"internal_node_id":"0.0-8.0","task_version":"0.2"},{"response_times":[1918,1250,582,954,2487,1132,3263,769,926,645],"keys_pressed":["leftarrow","rightarrow","leftarrow","leftarrow","rightarrow","rightarrow","leftarrow","rightarrow","rightarrow","leftarrow"],"horizon":10,"forced_choices":["leftarrow","rightarrow","leftarrow","leftarrow"],"right_color":"lightblue","left_color":"orange","left_mu":40,"right_mu":60,"left_numbers":[42,34,48,37,37,64,50,50,33,49],"right_numbers":[59,62,52,65,69,57,56,53,44,53],"points_earned":511,"phase":"task","trial_type":"horizons-task","trial_index":13,"time_elapsed":384827,"internal_node_id":"0.0-9.0","task_version":"0.2"},{"response_times":[691,439,518,589,4191],"keys_pressed":["rightarrow","leftarrow","leftarrow","leftarrow","leftarrow"],"horizon":5,"forced_choices":["rightarrow","leftarrow","leftarrow","leftarrow"],"right_color":"orange","left_color":"lightblue","left_mu":40,"right_mu":28,"left_numbers":[35,33,28,35,42],"right_numbers":[28,25,33,40,36],"points_earned":166,"phase":"task","trial_type":"horizons-task","trial_index":14,"time_elapsed":392768,"internal_node_id":"0.0-10.0","task_version":"0.2"},{"response_times":[728,445,436,487,4198],"keys_pressed":["leftarrow","leftarrow","rightarrow","leftarrow","rightarrow"],"horizon":5,"forced_choices":["leftarrow","leftarrow","rightarrow","leftarrow"],"right_color":"lightblue","left_color":"orange","left_mu":40,"right_mu":44,"left_numbers":[29,55,49,33,43],"right_numbers":[42,32,53,48,43],"points_earned":213,"phase":"task","trial_type":"horizons-task","trial_index":15,"time_elapsed":400578,"internal_node_id":"0.0-11.0","task_version":"0.2"},{"response_times":[740,470,428,847,1791],"keys_pressed":["leftarrow","leftarrow","rightarrow","leftarrow","leftarrow"],"horizon":5,"forced_choices":["leftarrow","leftarrow","rightarrow","leftarrow"],"right_color":"lightblue","left_color":"orange","left_mu":40,"right_mu":10,"left_numbers":[46,44,50,36,39],"right_numbers":[9,4,16,9,0],"points_earned":181,"phase":"task","trial_type":"horizons-task","trial_index":16,"time_elapsed":406365,"internal_node_id":"0.0-12.0","task_version":"0.2"},{"response_times":[812,495,415,424,2785,1303,927,1099,524,1015],"keys_pressed":["leftarrow","leftarrow","rightarrow","rightarrow","leftarrow","leftarrow","rightarrow","rightarrow","leftarrow","rightarrow"],"horizon":10,"forced_choices":["leftarrow","leftarrow","rightarrow","rightarrow"],"right_color":"orange","left_color":"lightblue","left_mu":60,"right_mu":56,"left_numbers":[66,49,61,62,76,68,55,58,50,63],"right_numbers":[63,52,45,52,58,56,61,64,41,51],"points_earned":582,"phase":"task","trial_type":"horizons-task","trial_index":17,"time_elapsed":417673,"internal_node_id":"0.0-13.0","task_version":"0.2"},{"response_times":[1211,466,410,478,3154,1116,706,877,541,535],"keys_pressed":["leftarrow","leftarrow","rightarrow","leftarrow","rightarrow","rightarrow","leftarrow","rightarrow","rightarrow","rightarrow"],"horizon":10,"forced_choices":["leftarrow","leftarrow","rightarrow","leftarrow"],"right_color":"lightblue","left_color":"orange","left_mu":40,"right_mu":44,"left_numbers":[45,29,41,42,32,28,31,38,37,39],"right_numbers":[45,45,43,47,50,42,45,57,41,52],"points_earned":432,"phase":"task","trial_type":"horizons-task","trial_index":18,"time_elapsed":428680,"internal_node_id":"0.0-14.0","task_version":"0.2"},{"response_times":[900,529,1367,1662,1178],"keys_pressed":["leftarrow","rightarrow","rightarrow","rightarrow","leftarrow"],"horizon":5,"forced_choices":["leftarrow","rightarrow","rightarrow","rightarrow"],"right_color":"lightblue","left_color":"orange","left_mu":40,"right_mu":32,"left_numbers":[35,39,38,47,34],"right_numbers":[19,33,23,28,38],"points_earned":153,"phase":"task","trial_type":"horizons-task","trial_index":19,"time_elapsed":435824,"internal_node_id":"0.0-15.0","task_version":"0.2"},{"response_times":[810,469,433,463,2125,1548,1422,914,603,612],"keys_pressed":["rightarrow","rightarrow","leftarrow","rightarrow","rightarrow","leftarrow","rightarrow","rightarrow","rightarrow","rightarrow"],"horizon":10,"forced_choices":["rightarrow","rightarrow","leftarrow","rightarrow"],"right_color":"lightblue","left_color":"orange","left_mu":60,"right_mu":68,"left_numbers":[69,59,57,51,61,61,54,68,39,42],"right_numbers":[63,62,69,77,63,73,68,64,83,74],"points_earned":672,"phase":"task","trial_type":"horizons-task","trial_index":20,"time_elapsed":446734,"internal_node_id":"0.0-16.0","task_version":"0.2"},{"response_times":[870,1172,950,563,2292,696,1298,528,477,452],"keys_pressed":["leftarrow","rightarrow","rightarrow","rightarrow","rightarrow","rightarrow","leftarrow","rightarrow","rightarrow","rightarrow"],"horizon":10,"forced_choices":["leftarrow","rightarrow","rightarrow","rightarrow"],"right_color":"orange","left_color":"lightblue","left_mu":40,"right_mu":70,"left_numbers":[45,45,24,61,38,44,29,26,37,35],"right_numbers":[63,60,67,70,77,68,75,65,65,57],"points_earned":603,"phase":"task","trial_type":"horizons-task","trial_index":21,"time_elapsed":457544,"internal_node_id":"0.0-17.0","task_version":"0.2"},{"response_times":[975,615,494,397,1697,1120,673,520,414,487],"keys_pressed":["rightarrow","leftarrow","leftarrow","rightarrow","leftarrow","leftarrow","leftarrow","leftarrow","leftarrow","leftarrow"],"horizon":10,"forced_choices":["rightarrow","leftarrow","leftarrow","rightarrow"],"right_color":"lightblue","left_color":"orange","left_mu":40,"right_mu":10,"left_numbers":[31,36,39,37,39,30,54,31,35,35],"right_numbers":[6,7,15,6,13,15,0,9,22,7],"points_earned":311,"phase":"task","trial_type":"horizons-task","trial_index":22,"time_elapsed":466448,"internal_node_id":"0.0-18.0","task_version":"0.2"},{"response_times":[858,462,369,600,896],"keys_pressed":["leftarrow","leftarrow","rightarrow","leftarrow","leftarrow"],"horizon":5,"forced_choices":["leftarrow","leftarrow","rightarrow","leftarrow"],"right_color":"lightblue","left_color":"orange","left_mu":40,"right_mu":20,"left_numbers":[42,43,36,40,23],"right_numbers":[18,12,11,27,15],"points_earned":159,"phase":"task","trial_type":"horizons-task","trial_index":23,"time_elapsed":471150,"internal_node_id":"0.0-19.0","task_version":"0.2"},{"response_times":[784,474,448,566,5649],"keys_pressed":["rightarrow","leftarrow","rightarrow","rightarrow","rightarrow"],"horizon":5,"forced_choices":["rightarrow","leftarrow","rightarrow","rightarrow"],"right_color":"orange","left_color":"lightblue","left_mu":40,"right_mu":36,"left_numbers":[45,32,51,41,25],"right_numbers":[24,36,47,32,42],"points_earned":177,"phase":"task","trial_type":"horizons-task","trial_index":24,"time_elapsed":480585,"internal_node_id":"0.0-20.0","task_version":"0.2"},{"response_times":[743,389,578,493,3882,654,767,551,461,444],"keys_pressed":["rightarrow","leftarrow","leftarrow","rightarrow","rightarrow","rightarrow","rightarrow","leftarrow","rightarrow","rightarrow"],"horizon":10,"forced_choices":["rightarrow","leftarrow","leftarrow","rightarrow"],"right_color":"lightblue","left_color":"orange","left_mu":60,"right_mu":80,"left_numbers":[62,65,65,47,77,64,66,56,65,68],"right_numbers":[66,79,83,75,82,71,66,74,77,78],"points_earned":701,"phase":"task","trial_type":"horizons-task","trial_index":25,"time_elapsed":491061,"internal_node_id":"0.0-21.0","task_version":"0.2"},{"response_times":[660,469,439,414,1710,843,966,1208,410,443],"keys_pressed":["leftarrow","rightarrow","leftarrow","rightarrow","rightarrow","rightarrow","rightarrow","leftarrow","rightarrow","rightarrow"],"horizon":10,"forced_choices":["leftarrow","rightarrow","leftarrow","rightarrow"],"right_color":"orange","left_color":"lightblue","left_mu":40,"right_mu":70,"left_numbers":[30,29,41,37,43,35,31,44,47,37],"right_numbers":[78,82,71,69,73,74,54,62,63,73],"points_earned":603,"phase":"task","trial_type":"horizons-task","trial_index":26,"time_elapsed":500131,"internal_node_id":"0.0-22.0","task_version":"0.2"},{"response_times":[1204,755,368,439,1265],"keys_pressed":["leftarrow","leftarrow","rightarrow","rightarrow","leftarrow"],"horizon":5,"forced_choices":["leftarrow","leftarrow","rightarrow","rightarrow"],"right_color":"lightblue","left_color":"orange","left_mu":40,"right_mu":32,"left_numbers":[35,40,37,44,58],"right_numbers":[24,25,20,19,24],"points_earned":172,"phase":"task","trial_type":"horizons-task","trial_index":27,"time_elapsed":505670,"internal_node_id":"0.0-23.0","task_version":"0.2"},{"response_times":[653,475,548,810,1418,1194,482,539,436,450],"keys_pressed":["leftarrow","rightarrow","rightarrow","leftarrow","leftarrow","leftarrow","rightarrow","leftarrow","leftarrow","leftarrow"],"horizon":10,"forced_choices":["leftarrow","rightarrow","rightarrow","leftarrow"],"right_color":"orange","left_color":"lightblue","left_mu":40,"right_mu":28,"left_numbers":[50,45,47,40,55,45,40,36,29,38],"right_numbers":[42,31,33,31,25,27,13,22,29,34],"points_earned":370,"phase":"task","trial_type":"horizons-task","trial_index":28,"time_elapsed":514188,"internal_node_id":"0.0-24.0","task_version":"0.2"},{"response_times":[703,447,471,725,1609,1044,594,466,392,345],"keys_pressed":["rightarrow","leftarrow","rightarrow","rightarrow","leftarrow","rightarrow","leftarrow","leftarrow","leftarrow","leftarrow"],"horizon":10,"forced_choices":["rightarrow","leftarrow","rightarrow","rightarrow"],"right_color":"orange","left_color":"lightblue","left_mu":60,"right_mu":30,"left_numbers":[73,67,73,51,46,48,68,69,53,61],"right_numbers":[32,23,39,38,35,25,34,27,22,27],"points_earned":498,"phase":"task","trial_type":"horizons-task","trial_index":29,"time_elapsed":522493,"internal_node_id":"0.0-25.0","task_version":"0.2"},{"response_times":[575,522,401,458,1469],"keys_pressed":["rightarrow","rightarrow","leftarrow","leftarrow","leftarrow"],"horizon":5,"forced_choices":["rightarrow","rightarrow","leftarrow","leftarrow"],"right_color":"lightblue","left_color":"orange","left_mu":60,"right_mu":48,"left_numbers":[57,58,61,77,39],"right_numbers":[39,43,52,55,50],"points_earned":259,"phase":"task","trial_type":"horizons-task","trial_index":30,"time_elapsed":527427,"internal_node_id":"0.0-26.0","task_version":"0.2"},{"response_times":[906,332,361,1084,2452],"keys_pressed":["leftarrow","rightarrow","leftarrow","leftarrow","leftarrow"],"horizon":5,"forced_choices":["leftarrow","rightarrow","leftarrow","leftarrow"],"right_color":"orange","left_color":"lightblue","left_mu":60,"right_mu":52,"left_numbers":[60,66,46,46,70],"right_numbers":[46,58,67,50,46],"points_earned":280,"phase":"task","trial_type":"horizons-task","trial_index":31,"time_elapsed":534077,"internal_node_id":"0.0-27.0","task_version":"0.2"},{"response_times":[8657,458,446,469,700],"keys_pressed":["rightarrow","rightarrow","leftarrow","leftarrow","leftarrow"],"horizon":5,"forced_choices":["rightarrow","rightarrow","leftarrow","leftarrow"],"right_color":"lightblue","left_color":"orange","left_mu":40,"right_mu":20,"left_numbers":[35,42,38,52,35],"right_numbers":[20,22,29,25,25],"points_earned":167,"phase":"task","trial_type":"horizons-task","trial_index":32,"time_elapsed":546318,"internal_node_id":"0.0-28.0","task_version":"0.2"},{"response_times":[472,376,411,412,2959],"keys_pressed":["leftarrow","rightarrow","rightarrow","leftarrow","rightarrow"],"horizon":5,"forced_choices":["leftarrow","rightarrow","rightarrow","leftarrow"],"right_color":"lightblue","left_color":"orange","left_mu":40,"right_mu":44,"left_numbers":[29,30,42,44,43],"right_numbers":[42,37,56,20,53],"points_earned":219,"phase":"task","trial_type":"horizons-task","trial_index":33,"time_elapsed":552460,"internal_node_id":"0.0-29.0","task_version":"0.2"},{"response_times":[723,582,443,502,1154],"keys_pressed":["rightarrow","rightarrow","leftarrow","rightarrow","rightarrow"],"horizon":5,"forced_choices":["rightarrow","rightarrow","leftarrow","rightarrow"],"right_color":"lightblue","left_color":"orange","left_mu":60,"right_mu":64,"left_numbers":[61,58,61,63,56],"right_numbers":[73,61,68,71,73],"points_earned":339,"phase":"task","trial_type":"horizons-task","trial_index":34,"time_elapsed":557370,"internal_node_id":"0.0-30.0","task_version":"0.2"},{"response_times":[832,4181,471,838,522],"keys_pressed":["leftarrow","rightarrow","rightarrow","rightarrow","rightarrow"],"horizon":5,"forced_choices":["leftarrow","rightarrow","rightarrow","rightarrow"],"right_color":"orange","left_color":"lightblue","left_mu":60,"right_mu":90,"left_numbers":[53,59,58,49,51],"right_numbers":[82,83,91,99,86],"points_earned":412,"phase":"task","trial_type":"horizons-task","trial_index":35,"time_elapsed":565722,"internal_node_id":"0.0-31.0","task_version":"0.2"},{"response_times":[593,455,491,508,1570,985,908,501,401,328],"keys_pressed":["leftarrow","rightarrow","leftarrow","rightarrow","leftarrow","leftarrow","rightarrow","leftarrow","leftarrow","leftarrow"],"horizon":10,"forced_choices":["leftarrow","rightarrow","leftarrow","rightarrow"],"right_color":"orange","left_color":"lightblue","left_mu":60,"right_mu":30,"left_numbers":[56,68,51,58,64,55,74,58,69,57],"right_numbers":[24,36,31,27,25,37,43,26,33,48],"points_earned":516,"phase":"task","trial_type":"horizons-task","trial_index":36,"time_elapsed":573974,"internal_node_id":"0.0-32.0","task_version":"0.2"},{"response_times":[774,330,312,365,2341],"keys_pressed":["leftarrow","rightarrow","leftarrow","rightarrow","rightarrow"],"horizon":5,"forced_choices":["leftarrow","rightarrow","leftarrow","rightarrow"],"right_color":"orange","left_color":"lightblue","left_mu":60,"right_mu":90,"left_numbers":[53,55,61,56,70],"right_numbers":[91,97,94,69,95],"points_earned":375,"phase":"task","trial_type":"horizons-task","trial_index":37,"time_elapsed":579604,"internal_node_id":"0.0-33.0","task_version":"0.2"},{"response_times":[602,338,334,582,2264],"keys_pressed":["rightarrow","leftarrow","rightarrow","leftarrow","rightarrow"],"horizon":5,"forced_choices":["rightarrow","leftarrow","rightarrow","leftarrow"],"right_color":"orange","left_color":"lightblue","left_mu":40,"right_mu":52,"left_numbers":[41,46,21,45,39],"right_numbers":[43,36,51,48,46],"points_earned":231,"phase":"task","trial_type":"horizons-task","trial_index":38,"time_elapsed":585234,"internal_node_id":"0.0-34.0","task_version":"0.2"},{"response_times":[549,379,587,579,2246,1751,469,436,422,514],"keys_pressed":["rightarrow","leftarrow","leftarrow","rightarrow","leftarrow","rightarrow","leftarrow","leftarrow","leftarrow","leftarrow"],"horizon":10,"forced_choices":["rightarrow","leftarrow","leftarrow","rightarrow"],"right_color":"orange","left_color":"lightblue","left_mu":60,"right_mu":40,"left_numbers":[53,52,67,57,58,50,77,66,76,48],"right_numbers":[50,35,39,36,43,47,36,43,47,38],"points_earned":577,"phase":"task","trial_type":"horizons-task","trial_index":39,"time_elapsed":594676,"internal_node_id":"0.0-35.0","task_version":"0.2"},{"response_times":[550,733,1178,433,1054,444,443,404,431,386],"keys_pressed":["leftarrow","rightarrow","leftarrow","rightarrow","rightarrow","rightarrow","rightarrow","rightarrow","rightarrow","rightarrow"],"horizon":10,"forced_choices":["leftarrow","rightarrow","leftarrow","rightarrow"],"right_color":"orange","left_color":"lightblue","left_mu":60,"right_mu":90,"left_numbers":[66,56,52,69,43,67,67,48,51,61],"right_numbers":[90,93,93,103,110,87,90,78,96,89],"points_earned":864,"phase":"task","trial_type":"horizons-task","trial_index":40,"time_elapsed":602244,"internal_node_id":"0.0-36.0","task_version":"0.2"},{"response_times":[639,349,721,584,1756,1303,633,1389,437,359],"keys_pressed":["rightarrow","leftarrow","leftarrow","leftarrow","rightarrow","rightarrow","rightarrow","rightarrow","rightarrow","rightarrow"],"horizon":10,"forced_choices":["rightarrow","leftarrow","leftarrow","leftarrow"],"right_color":"lightblue","left_color":"orange","left_mu":60,"right_mu":80,"left_numbers":[58,67,50,67,58,54,61,50,70,58],"right_numbers":[72,58,80,87,81,83,72,74,81,83],"points_earned":730,"phase":"task","trial_type":"horizons-task","trial_index":41,"time_elapsed":611924,"internal_node_id":"0.0-37.0","task_version":"0.2"},{"response_times":[653,852,645,596,3141],"keys_pressed":["leftarrow","rightarrow","rightarrow","leftarrow","leftarrow"],"horizon":5,"forced_choices":["leftarrow","rightarrow","rightarrow","leftarrow"],"right_color":"orange","left_color":"lightblue","left_mu":40,"right_mu":28,"left_numbers":[29,39,27,50,35],"right_numbers":[22,44,28,16,28],"points_earned":186,"phase":"task","trial_type":"horizons-task","trial_index":42,"time_elapsed":619319,"internal_node_id":"0.0-38.0","task_version":"0.2"},{"response_times":[486,579,433,697,2346,1837,420,453,414,429],"keys_pressed":["rightarrow","rightarrow","rightarrow","leftarrow","leftarrow","leftarrow","rightarrow","rightarrow","rightarrow","rightarrow"],"horizon":10,"forced_choices":["rightarrow","rightarrow","rightarrow","leftarrow"],"right_color":"orange","left_color":"lightblue","left_mu":40,"right_mu":48,"left_numbers":[34,28,50,52,40,48,38,36,33,33],"right_numbers":[42,53,48,48,40,57,52,77,53,33],"points_earned":498,"phase":"task","trial_type":"horizons-task","trial_index":43,"time_elapsed":628921,"internal_node_id":"0.0-39.0","task_version":"0.2"},{"response_times":[612,731,916,108,5631,566,511,725,2870,412],"keys_pressed":["rightarrow","rightarrow","leftarrow","leftarrow","rightarrow","leftarrow","leftarrow","leftarrow","rightarrow","leftarrow"],"horizon":10,"forced_choices":["rightarrow","rightarrow","leftarrow","leftarrow"],"right_color":"lightblue","left_color":"orange","left_mu":40,"right_mu":20,"left_numbers":[51,28,38,36,37,50,42,50,27,47],"right_numbers":[10,32,16,32,28,20,5,24,31,9],"points_earned":364,"phase":"task","trial_type":"horizons-task","trial_index":44,"time_elapsed":643521,"internal_node_id":"0.0-40.0","task_version":"0.2"},{"response_times":[593,654,551,634,3022],"keys_pressed":["rightarrow","rightarrow","leftarrow","leftarrow","leftarrow"],"horizon":5,"forced_choices":["rightarrow","rightarrow","leftarrow","leftarrow"],"right_color":"lightblue","left_color":"orange","left_mu":60,"right_mu":68,"left_numbers":[66,55,73,63,74],"right_numbers":[60,57,73,68,69],"points_earned":327,"phase":"task","trial_type":"horizons-task","trial_index":45,"time_elapsed":650487,"internal_node_id":"0.0-41.0","task_version":"0.2"},{"response_times":[580,575,1266,645,1744,1069,544,494,537,434],"keys_pressed":["rightarrow","leftarrow","rightarrow","leftarrow","rightarrow","leftarrow","rightarrow","rightarrow","rightarrow","rightarrow"],"horizon":10,"forced_choices":["rightarrow","leftarrow","rightarrow","leftarrow"],"right_color":"orange","left_color":"lightblue","left_mu":40,"right_mu":52,"left_numbers":[36,26,43,40,37,46,21,31,36,14],"right_numbers":[44,58,58,49,49,65,46,59,61,66],"points_earned":495,"phase":"task","trial_type":"horizons-task","trial_index":46,"time_elapsed":659889,"internal_node_id":"0.0-42.0","task_version":"0.2"},{"response_times":[584,671,525,482,1545],"keys_pressed":["leftarrow","leftarrow","rightarrow","rightarrow","leftarrow"],"horizon":5,"forced_choices":["leftarrow","leftarrow","rightarrow","rightarrow"],"right_color":"orange","left_color":"lightblue","left_mu":60,"right_mu":56,"left_numbers":[66,70,58,48,56],"right_numbers":[60,59,48,52,60],"points_earned":292,"phase":"task","trial_type":"horizons-task","trial_index":47,"time_elapsed":665208,"internal_node_id":"0.0-43.0","task_version":"0.2"},{"response_times":[575,561,416,394,2630,1256,1421,336,453,464],"keys_pressed":["leftarrow","leftarrow","rightarrow","rightarrow","leftarrow","leftarrow","rightarrow","leftarrow","leftarrow","leftarrow"],"horizon":10,"forced_choices":["leftarrow","leftarrow","rightarrow","rightarrow"],"right_color":"lightblue","left_color":"orange","left_mu":40,"right_mu":32,"left_numbers":[33,37,34,33,29,45,22,43,30,31],"right_numbers":[24,21,25,33,19,36,27,25,27,35],"points_earned":333,"phase":"task","trial_type":"horizons-task","trial_index":48,"time_elapsed":675227,"internal_node_id":"0.0-44.0","task_version":"0.2"},{"response_times":[605,588,447,576,2025,1025,434,451,1036,420],"keys_pressed":["leftarrow","rightarrow","leftarrow","leftarrow","leftarrow","rightarrow","leftarrow","leftarrow","leftarrow","leftarrow"],"horizon":10,"forced_choices":["leftarrow","rightarrow","leftarrow","leftarrow"],"right_color":"orange","left_color":"lightblue","left_mu":60,"right_mu":52,"left_numbers":[56,63,67,48,68,56,64,71,78,58],"right_numbers":[57,46,61,55,52,44,44,41,48,58],"points_earned":600,"phase":"task","trial_type":"horizons-task","trial_index":49,"time_elapsed":684343,"internal_node_id":"0.0-45.0","task_version":"0.2"},{"response_times":[572,453,380,453,2636],"keys_pressed":["rightarrow","leftarrow","rightarrow","leftarrow","rightarrow"],"horizon":5,"forced_choices":["rightarrow","leftarrow","rightarrow","leftarrow"],"right_color":"orange","left_color":"lightblue","left_mu":40,"right_mu":48,"left_numbers":[28,48,40,40,33],"right_numbers":[46,53,54,43,36],"points_earned":224,"phase":"task","trial_type":"horizons-task","trial_index":50,"time_elapsed":690346,"internal_node_id":"0.0-46.0","task_version":"0.2"},{"view_history":"[{\"page_index\":0,\"viewing_time\":4833},{\"page_index\":1,\"viewing_time\":2604}]","rt":7437,"trial_type":"instructions","trial_index":51,"time_elapsed":697783,"internal_node_id":"0.0-47.0","task_version":"0.2"},{"response_times":[723,483,385,623,1567],"keys_pressed":["rightarrow","leftarrow","rightarrow","rightarrow","leftarrow"],"horizon":5,"forced_choices":["rightarrow","leftarrow","rightarrow","rightarrow"],"right_color":"orange","left_color":"lightblue","left_mu":60,"right_mu":30,"left_numbers":[72,68,62,65,57],"right_numbers":[37,29,38,32,28],"points_earned":232,"phase":"task","trial_type":"horizons-task","trial_index":52,"time_elapsed":703082,"internal_node_id":"0.0-48.0","task_version":"0.2"},{"response_times":[556,733,670,1177,1588],"keys_pressed":["leftarrow","leftarrow","leftarrow","rightarrow","leftarrow"],"horizon":5,"forced_choices":["leftarrow","leftarrow","leftarrow","rightarrow"],"right_color":"orange","left_color":"lightblue","left_mu":60,"right_mu":40,"left_numbers":[57,72,50,57,64],"right_numbers":[37,45,24,41,38],"points_earned":284,"phase":"task","trial_type":"horizons-task","trial_index":53,"time_elapsed":709317,"internal_node_id":"0.0-49.0","task_version":"0.2"},{"response_times":[810,603,624,642,1597],"keys_pressed":["rightarrow","leftarrow","rightarrow","leftarrow","leftarrow"],"horizon":5,"forced_choices":["rightarrow","leftarrow","rightarrow","leftarrow"],"right_color":"lightblue","left_color":"orange","left_mu":60,"right_mu":64,"left_numbers":[45,77,42,70,68],"right_numbers":[66,50,47,69,61],"points_earned":328,"phase":"task","trial_type":"horizons-task","trial_index":54,"time_elapsed":715106,"internal_node_id":"0.0-50.0","task_version":"0.2"},{"response_times":[833,627,528,458,3010],"keys_pressed":["leftarrow","leftarrow","leftarrow","rightarrow","rightarrow"],"horizon":5,"forced_choices":["leftarrow","leftarrow","leftarrow","rightarrow"],"right_color":"lightblue","left_color":"orange","left_mu":60,"right_mu":72,"left_numbers":[53,69,52,63,65],"right_numbers":[53,83,64,75,85],"points_earned":334,"phase":"task","trial_type":"horizons-task","trial_index":55,"time_elapsed":722076,"internal_node_id":"0.0-51.0","task_version":"0.2"},{"response_times":[958,370,369,513,1608,1388,713,438,937,632],"keys_pressed":["rightarrow","leftarrow","rightarrow","rightarrow","leftarrow","leftarrow","rightarrow","leftarrow","rightarrow","leftarrow"],"horizon":10,"forced_choices":["rightarrow","leftarrow","rightarrow","rightarrow"],"right_color":"orange","left_color":"lightblue","left_mu":40,"right_mu":36,"left_numbers":[27,35,49,41,60,39,35,46,41,35],"right_numbers":[40,37,33,31,31,32,50,48,19,43],"points_earned":388,"phase":"task","trial_type":"horizons-task","trial_index":56,"time_elapsed":731514,"internal_node_id":"0.0-52.0","task_version":"0.2"},{"response_times":[484,387,631,741,1319,913,395,510,444,322],"keys_pressed":["rightarrow","leftarrow","leftarrow","leftarrow","rightarrow","rightarrow","leftarrow","leftarrow","leftarrow","leftarrow"],"horizon":10,"forced_choices":["rightarrow","leftarrow","leftarrow","leftarrow"],"right_color":"orange","left_color":"lightblue","left_mu":40,"right_mu":28,"left_numbers":[46,27,29,41,41,36,39,50,40,36],"right_numbers":[26,31,39,18,17,22,38,12,25,35],"points_earned":327,"phase":"task","trial_type":"horizons-task","trial_index":57,"time_elapsed":739170,"internal_node_id":"0.0-53.0","task_version":"0.2"},{"response_times":[557,467,559,611,852],"keys_pressed":["rightarrow","rightarrow","rightarrow","leftarrow","rightarrow"],"horizon":5,"forced_choices":["rightarrow","rightarrow","rightarrow","leftarrow"],"right_color":"orange","left_color":"lightblue","left_mu":60,"right_mu":56,"left_numbers":[60,67,54,52,64],"right_numbers":[48,64,63,74,52],"points_earned":279,"phase":"task","trial_type":"horizons-task","trial_index":58,"time_elapsed":743727,"internal_node_id":"0.0-54.0","task_version":"0.2"},{"response_times":[528,1092,1100,1280,2354,848,754,466,426,345],"keys_pressed":["rightarrow","rightarrow","leftarrow","leftarrow","leftarrow","rightarrow","rightarrow","rightarrow","rightarrow","rightarrow"],"horizon":10,"forced_choices":["rightarrow","rightarrow","leftarrow","leftarrow"],"right_color":"lightblue","left_color":"orange","left_mu":60,"right_mu":68,"left_numbers":[76,63,55,71,47,59,61,54,54,43],"right_numbers":[49,71,50,74,64,72,64,67,61,61],"points_earned":618,"phase":"task","trial_type":"horizons-task","trial_index":59,"time_elapsed":754430,"internal_node_id":"0.0-55.0","task_version":"0.2"},{"response_times":[703,492,516,591,1836,544,605,423,272,321],"keys_pressed":["leftarrow","leftarrow","rightarrow","leftarrow","leftarrow","rightarrow","leftarrow","leftarrow","leftarrow","leftarrow"],"horizon":10,"forced_choices":["leftarrow","leftarrow","rightarrow","leftarrow"],"right_color":"lightblue","left_color":"orange","left_mu":40,"right_mu":10,"left_numbers":[52,59,24,37,35,53,46,35,20,32],"right_numbers":[9,0,20,16,13,2,15,5,22,9],"points_earned":338,"phase":"task","trial_type":"horizons-task","trial_index":60,"time_elapsed":762242,"internal_node_id":"0.0-56.0","task_version":"0.2"},{"response_times":[570,412,467,602,1935,809,686,316,418,349],"keys_pressed":["leftarrow","rightarrow","rightarrow","leftarrow","rightarrow","leftarrow","rightarrow","rightarrow","rightarrow","rightarrow"],"horizon":10,"forced_choices":["leftarrow","rightarrow","rightarrow","leftarrow"],"right_color":"lightblue","left_color":"orange","left_mu":40,"right_mu":44,"left_numbers":[42,24,26,38,47,20,49,47,36,50],"right_numbers":[45,50,33,42,47,32,56,44,44,43],"points_earned":417,"phase":"task","trial_type":"horizons-task","trial_index":61,"time_elapsed":770319,"internal_node_id":"0.0-57.0","task_version":"0.2"},{"response_times":[661,396,510,830,1101],"keys_pressed":["rightarrow","rightarrow","rightarrow","leftarrow","rightarrow"],"horizon":5,"forced_choices":["rightarrow","rightarrow","rightarrow","leftarrow"],"right_color":"orange","left_color":"lightblue","left_mu":40,"right_mu":48,"left_numbers":[27,39,32,39,33],"right_numbers":[49,46,50,45,45],"points_earned":229,"phase":"task","trial_type":"horizons-task","trial_index":62,"time_elapsed":775330,"internal_node_id":"0.0-58.0","task_version":"0.2"},{"response_times":[739,481,1211,575,1638,423,382,248,310,308],"keys_pressed":["leftarrow","rightarrow","rightarrow","rightarrow","leftarrow","rightarrow","rightarrow","rightarrow","rightarrow","rightarrow"],"horizon":10,"forced_choices":["leftarrow","rightarrow","rightarrow","rightarrow"],"right_color":"orange","left_color":"lightblue","left_mu":60,"right_mu":90,"left_numbers":[58,65,56,55,45,62,64,68,58,77],"right_numbers":[79,100,84,104,90,103,85,81,88,89],"points_earned":837,"phase":"task","trial_type":"horizons-task","trial_index":63,"time_elapsed":783156,"internal_node_id":"0.0-59.0","task_version":"0.2"},{"response_times":[602,509,548,605,1118,496,510,424,413,290],"keys_pressed":["leftarrow","leftarrow","rightarrow","rightarrow","rightarrow","rightarrow","leftarrow","rightarrow","rightarrow","rightarrow"],"horizon":10,"forced_choices":["leftarrow","leftarrow","rightarrow","rightarrow"],"right_color":"lightblue","left_color":"orange","left_mu":40,"right_mu":60,"left_numbers":[29,40,44,44,33,25,52,21,18,48],"right_numbers":[54,54,62,79,56,67,62,70,50,46],"points_earned":551,"phase":"task","trial_type":"horizons-task","trial_index":64,"time_elapsed":790184,"internal_node_id":"0.0-60.0","task_version":"0.2"},{"response_times":[579,424,438,425,1278,482,405,287,214,449],"keys_pressed":["leftarrow","leftarrow","leftarrow","rightarrow","rightarrow","leftarrow","leftarrow","leftarrow","leftarrow","leftarrow"],"horizon":10,"forced_choices":["leftarrow","leftarrow","leftarrow","rightarrow"],"right_color":"orange","left_color":"lightblue","left_mu":60,"right_mu":40,"left_numbers":[75,48,69,62,56,77,57,75,41,58],"right_numbers":[37,45,54,33,38,39,28,42,39,37],"points_earned":571,"phase":"task","trial_type":"horizons-task","trial_index":65,"time_elapsed":796682,"internal_node_id":"0.0-61.0","task_version":"0.2"},{"response_times":[616,577,774,608,2146],"keys_pressed":["leftarrow","rightarrow","leftarrow","rightarrow","leftarrow"],"horizon":5,"forced_choices":["leftarrow","rightarrow","leftarrow","rightarrow"],"right_color":"orange","left_color":"lightblue","left_mu":40,"right_mu":36,"left_numbers":[32,27,41,37,21],"right_numbers":[43,40,32,26,35],"points_earned":160,"phase":"task","trial_type":"horizons-task","trial_index":66,"time_elapsed":802910,"internal_node_id":"0.0-62.0","task_version":"0.2"},{"response_times":[716,503,514,495,2003,1060,753,578,601,387],"keys_pressed":["leftarrow","rightarrow","leftarrow","rightarrow","leftarrow","leftarrow","leftarrow","rightarrow","leftarrow","leftarrow"],"horizon":10,"forced_choices":["leftarrow","rightarrow","leftarrow","rightarrow"],"right_color":"orange","left_color":"lightblue","left_mu":40,"right_mu":36,"left_numbers":[48,34,36,42,41,42,47,38,42,32],"right_numbers":[40,25,44,42,28,29,31,30,27,42],"points_earned":385,"phase":"task","trial_type":"horizons-task","trial_index":67,"time_elapsed":812033,"internal_node_id":"0.0-63.0","task_version":"0.2"},{"response_times":[557,401,701,591,1877],"keys_pressed":["rightarrow","leftarrow","leftarrow","leftarrow","rightarrow"],"horizon":5,"forced_choices":["rightarrow","leftarrow","leftarrow","leftarrow"],"right_color":"orange","left_color":"lightblue","left_mu":40,"right_mu":52,"left_numbers":[31,39,32,27,23],"right_numbers":[51,53,56,49,48],"points_earned":197,"phase":"task","trial_type":"horizons-task","trial_index":68,"time_elapsed":817674,"internal_node_id":"0.0-64.0","task_version":"0.2"},{"response_times":[687,477,545,501,1880,589,560,603,574,435],"keys_pressed":["leftarrow","rightarrow","rightarrow","leftarrow","leftarrow","leftarrow","leftarrow","leftarrow","leftarrow","leftarrow"],"horizon":10,"forced_choices":["leftarrow","rightarrow","rightarrow","leftarrow"],"right_color":"orange","left_color":"lightblue","left_mu":60,"right_mu":52,"left_numbers":[58,66,67,52,58,72,57,60,70,55],"right_numbers":[42,47,47,47,52,58,59,56,45,61],"points_earned":576,"phase":"task","trial_type":"horizons-task","trial_index":69,"time_elapsed":826037,"internal_node_id":"0.0-65.0","task_version":"0.2"},{"response_times":[663,385,614,451,1515,883,1173,423,386,356],"keys_pressed":["rightarrow","leftarrow","rightarrow","leftarrow","rightarrow","rightarrow","leftarrow","rightarrow","rightarrow","rightarrow"],"horizon":10,"forced_choices":["rightarrow","leftarrow","rightarrow","leftarrow"],"right_color":"orange","left_color":"lightblue","left_mu":40,"right_mu":48,"left_numbers":[38,34,40,33,40,26,37,41,48,45],"right_numbers":[50,45,49,48,55,38,41,46,58,49],"points_earned":449,"phase":"task","trial_type":"horizons-task","trial_index":70,"time_elapsed":834397,"internal_node_id":"0.0-66.0","task_version":"0.2"},{"response_times":[544,370,474,465,1261,1206,333,1251,494,301],"keys_pressed":["rightarrow","rightarrow","leftarrow","rightarrow","leftarrow","leftarrow","rightarrow","leftarrow","leftarrow","leftarrow"],"horizon":10,"forced_choices":["rightarrow","rightarrow","leftarrow","rightarrow"],"right_color":"lightblue","left_color":"orange","left_mu":60,"right_mu":48,"left_numbers":[62,76,65,54,47,63,51,57,65,58],"right_numbers":[47,49,41,41,43,46,53,40,38,42],"points_earned":545,"phase":"task","trial_type":"horizons-task","trial_index":71,"time_elapsed":842606,"internal_node_id":"0.0-67.0","task_version":"0.2"},{"response_times":[630,401,569,1156,1096],"keys_pressed":["leftarrow","rightarrow","rightarrow","rightarrow","rightarrow"],"horizon":5,"forced_choices":["leftarrow","rightarrow","rightarrow","rightarrow"],"right_color":"orange","left_color":"lightblue","left_mu":40,"right_mu":70,"left_numbers":[25,37,58,46,36],"right_numbers":[57,81,82,66,64],"points_earned":318,"phase":"task","trial_type":"horizons-task","trial_index":72,"time_elapsed":847970,"internal_node_id":"0.0-68.0","task_version":"0.2"},{"response_times":[647,463,366,534,1641,503,447,270,340,278],"keys_pressed":["leftarrow","leftarrow","rightarrow","leftarrow","leftarrow","leftarrow","leftarrow","leftarrow","leftarrow","leftarrow"],"horizon":10,"forced_choices":["leftarrow","leftarrow","rightarrow","leftarrow"],"right_color":"lightblue","left_color":"orange","left_mu":40,"right_mu":20,"left_numbers":[53,44,33,44,32,43,44,35,38,38],"right_numbers":[16,7,17,21,25,35,31,27,11,33],"points_earned":388,"phase":"task","trial_type":"horizons-task","trial_index":73,"time_elapsed":854971,"internal_node_id":"0.0-69.0","task_version":"0.2"},{"response_times":[652,473,386,431,2848,606,385,655,521,533],"keys_pressed":["rightarrow","leftarrow","rightarrow","leftarrow","leftarrow","leftarrow","rightarrow","rightarrow","rightarrow","rightarrow"],"horizon":10,"forced_choices":["rightarrow","leftarrow","rightarrow","leftarrow"],"right_color":"lightblue","left_color":"orange","left_mu":60,"right_mu":64,"left_numbers":[43,57,59,69,55,61,64,49,50,55],"right_numbers":[55,52,62,70,64,49,62,69,68,63],"points_earned":621,"phase":"task","trial_type":"horizons-task","trial_index":74,"time_elapsed":863969,"internal_node_id":"0.0-70.0","task_version":"0.2"},{"response_times":[935,437,540,536,1218,472,1221,827,654,428],"keys_pressed":["leftarrow","leftarrow","leftarrow","rightarrow","rightarrow","rightarrow","leftarrow","rightarrow","rightarrow","rightarrow"],"horizon":10,"forced_choices":["leftarrow","leftarrow","leftarrow","rightarrow"],"right_color":"lightblue","left_color":"orange","left_mu":60,"right_mu":72,"left_numbers":[52,65,68,71,48,63,59,48,53,67],"right_numbers":[64,70,76,82,57,67,71,70,66,79],"points_earned":665,"phase":"task","trial_type":"horizons-task","trial_index":75,"time_elapsed":872753,"internal_node_id":"0.0-71.0","task_version":"0.2"},{"response_times":[665,445,481,487,1222],"keys_pressed":["rightarrow","rightarrow","leftarrow","rightarrow","rightarrow"],"horizon":5,"forced_choices":["rightarrow","rightarrow","leftarrow","rightarrow"],"right_color":"lightblue","left_color":"orange","left_mu":60,"right_mu":68,"left_numbers":[53,62,79,49,58],"right_numbers":[81,58,63,68,69],"points_earned":355,"phase":"task","trial_type":"horizons-task","trial_index":76,"time_elapsed":877563,"internal_node_id":"0.0-72.0","task_version":"0.2"},{"response_times":[653,491,398,605,3035],"keys_pressed":["leftarrow","rightarrow","leftarrow","leftarrow","rightarrow"],"horizon":5,"forced_choices":["leftarrow","rightarrow","leftarrow","leftarrow"],"right_color":"lightblue","left_color":"orange","left_mu":40,"right_mu":60,"left_numbers":[48,35,56,37,55],"right_numbers":[61,59,65,64,48],"points_earned":248,"phase":"task","trial_type":"horizons-task","trial_index":77,"time_elapsed":884256,"internal_node_id":"0.0-73.0","task_version":"0.2"},{"response_times":[710,649,538,734,1508,708,745,402,500,409],"keys_pressed":["rightarrow","leftarrow","leftarrow","rightarrow","rightarrow","rightarrow","leftarrow","rightarrow","leftarrow","leftarrow"],"horizon":10,"forced_choices":["rightarrow","leftarrow","leftarrow","rightarrow"],"right_color":"lightblue","left_color":"orange","left_mu":60,"right_mu":72,"left_numbers":[64,50,64,69,58,74,73,55,71,53],"right_numbers":[72,61,78,66,62,67,62,64,69,70],"points_earned":642,"phase":"task","trial_type":"horizons-task","trial_index":78,"time_elapsed":892671,"internal_node_id":"0.0-74.0","task_version":"0.2"},{"response_times":[747,501,574,506,1871,794,354,697,575,548],"keys_pressed":["leftarrow","rightarrow","rightarrow","rightarrow","leftarrow","leftarrow","rightarrow","rightarrow","leftarrow","leftarrow"],"horizon":10,"forced_choices":["leftarrow","rightarrow","rightarrow","rightarrow"],"right_color":"lightblue","left_color":"orange","left_mu":40,"right_mu":32,"left_numbers":[24,33,33,46,26,43,30,42,42,49],"right_numbers":[36,29,25,27,37,32,35,24,34,38],"points_earned":324,"phase":"task","trial_type":"horizons-task","trial_index":79,"time_elapsed":901347,"internal_node_id":"0.0-75.0","task_version":"0.2"},{"response_times":[663,447,801,920,1311],"keys_pressed":["rightarrow","leftarrow","leftarrow","rightarrow","rightarrow"],"horizon":5,"forced_choices":["rightarrow","leftarrow","leftarrow","rightarrow"],"right_color":"lightblue","left_color":"orange","left_mu":60,"right_mu":80,"left_numbers":[61,60,57,58,64],"right_numbers":[79,84,81,89,90],"points_earned":375,"phase":"task","trial_type":"horizons-task","trial_index":80,"time_elapsed":907004,"internal_node_id":"0.0-76.0","task_version":"0.2"},{"response_times":[701,437,359,378,1016],"keys_pressed":["leftarrow","rightarrow","leftarrow","rightarrow","leftarrow"],"horizon":5,"forced_choices":["leftarrow","rightarrow","leftarrow","rightarrow"],"right_color":"orange","left_color":"lightblue","left_mu":60,"right_mu":30,"left_numbers":[49,70,65,51,70],"right_numbers":[25,33,23,19,41],"points_earned":236,"phase":"task","trial_type":"horizons-task","trial_index":81,"time_elapsed":911407,"internal_node_id":"0.0-77.0","task_version":"0.2"},{"response_times":[588,397,564,559,1690,522,569,506,1059,353],"keys_pressed":["rightarrow","leftarrow","leftarrow","leftarrow","rightarrow","rightarrow","rightarrow","rightarrow","leftarrow","rightarrow"],"horizon":10,"forced_choices":["rightarrow","leftarrow","leftarrow","leftarrow"],"right_color":"orange","left_color":"lightblue","left_mu":40,"right_mu":52,"left_numbers":[40,36,38,25,26,44,44,26,48,29],"right_numbers":[54,40,60,55,57,52,45,60,67,49],"points_earned":464,"phase":"task","trial_type":"horizons-task","trial_index":82,"time_elapsed":919723,"internal_node_id":"0.0-78.0","task_version":"0.2"},{"response_times":[712,598,479,424,979],"keys_pressed":["rightarrow","leftarrow","leftarrow","rightarrow","rightarrow"],"horizon":5,"forced_choices":["rightarrow","leftarrow","leftarrow","rightarrow"],"right_color":"lightblue","left_color":"orange","left_mu":60,"right_mu":72,"left_numbers":[68,65,60,67,52],"right_numbers":[77,80,73,69,61],"points_earned":332,"phase":"task","trial_type":"horizons-task","trial_index":83,"time_elapsed":924426,"internal_node_id":"0.0-79.0","task_version":"0.2"},{"response_times":[615,473,580,532,5611],"keys_pressed":["leftarrow","leftarrow","rightarrow","rightarrow","rightarrow"],"horizon":5,"forced_choices":["leftarrow","leftarrow","rightarrow","rightarrow"],"right_color":"lightblue","left_color":"orange","left_mu":40,"right_mu":60,"left_numbers":[53,35,51,44,51],"right_numbers":[58,76,63,59,68],"points_earned":278,"phase":"task","trial_type":"horizons-task","trial_index":84,"time_elapsed":933749,"internal_node_id":"0.0-80.0","task_version":"0.2"},{"response_times":[658,404,548,828,928],"keys_pressed":["rightarrow","leftarrow","leftarrow","rightarrow","leftarrow"],"horizon":5,"forced_choices":["rightarrow","leftarrow","leftarrow","rightarrow"],"right_color":"lightblue","left_color":"orange","left_mu":40,"right_mu":10,"left_numbers":[38,46,39,33,34],"right_numbers":[7,8,2,0,8],"points_earned":126,"phase":"task","trial_type":"horizons-task","trial_index":85,"time_elapsed":938625,"internal_node_id":"0.0-81.0","task_version":"0.2"},{"response_times":[553,415,349,460,1548,1215,841,314,544,464],"keys_pressed":["rightarrow","rightarrow","rightarrow","leftarrow","leftarrow","leftarrow","leftarrow","rightarrow","leftarrow","leftarrow"],"horizon":10,"forced_choices":["rightarrow","rightarrow","rightarrow","leftarrow"],"right_color":"orange","left_color":"lightblue","left_mu":60,"right_mu":56,"left_numbers":[44,55,56,57,62,55,63,70,65,69],"right_numbers":[57,54,49,49,61,61,68,59,68,62],"points_earned":590,"phase":"task","trial_type":"horizons-task","trial_index":86,"time_elapsed":946840,"internal_node_id":"0.0-82.0","task_version":"0.2"},{"response_times":[595,586,544,463,1968,806,661,549,439,309],"keys_pressed":["rightarrow","rightarrow","leftarrow","rightarrow","leftarrow","leftarrow","rightarrow","leftarrow","leftarrow","leftarrow"],"horizon":10,"forced_choices":["rightarrow","rightarrow","leftarrow","rightarrow"],"right_color":"lightblue","left_color":"orange","left_mu":60,"right_mu":64,"left_numbers":[61,49,66,62,66,56,61,71,53,68],"right_numbers":[65,69,72,47,67,63,55,63,58,74],"points_earned":616,"phase":"task","trial_type":"horizons-task","trial_index":87,"time_elapsed":955275,"internal_node_id":"0.0-83.0","task_version":"0.2"},{"response_times":[565,408,636,645,1271],"keys_pressed":["rightarrow","leftarrow","leftarrow","leftarrow","rightarrow"],"horizon":5,"forced_choices":["rightarrow","leftarrow","leftarrow","leftarrow"],"right_color":"lightblue","left_color":"orange","left_mu":60,"right_mu":80,"left_numbers":[55,59,50,62,64],"right_numbers":[89,82,84,92,80],"points_earned":340,"phase":"task","trial_type":"horizons-task","trial_index":88,"time_elapsed":960308,"internal_node_id":"0.0-84.0","task_version":"0.2"},{"response_times":[665,605,787,540,1577],"keys_pressed":["leftarrow","rightarrow","rightarrow","leftarrow","rightarrow"],"horizon":5,"forced_choices":["leftarrow","rightarrow","rightarrow","leftarrow"],"right_color":"orange","left_color":"lightblue","left_mu":60,"right_mu":52,"left_numbers":[44,69,65,50,66],"right_numbers":[55,58,61,41,53],"points_earned":266,"phase":"task","trial_type":"horizons-task","trial_index":89,"time_elapsed":965991,"internal_node_id":"0.0-85.0","task_version":"0.2"},{"response_times":[605,470,526,488,1549],"keys_pressed":["rightarrow","leftarrow","leftarrow","rightarrow","leftarrow"],"horizon":5,"forced_choices":["rightarrow","leftarrow","leftarrow","rightarrow"],"right_color":"orange","left_color":"lightblue","left_mu":60,"right_mu":40,"left_numbers":[48,61,63,36,58],"right_numbers":[46,25,34,30,40],"points_earned":258,"phase":"task","trial_type":"horizons-task","trial_index":90,"time_elapsed":971134,"internal_node_id":"0.0-86.0","task_version":"0.2"},{"response_times":[678,541,559,532,867],"keys_pressed":["leftarrow","rightarrow","leftarrow","rightarrow","rightarrow"],"horizon":5,"forced_choices":["leftarrow","rightarrow","leftarrow","rightarrow"],"right_color":"orange","left_color":"lightblue","left_mu":40,"right_mu":70,"left_numbers":[38,44,32,30,57],"right_numbers":[65,79,63,77,71],"points_earned":297,"phase":"task","trial_type":"horizons-task","trial_index":91,"time_elapsed":975823,"internal_node_id":"0.0-87.0","task_version":"0.2"},{"rt":20971,"responses":{"age":"22","gender-categorical":"Female","gender-free-response":"","ethnicity":"Not Hispanic or Latino","race":["White"],"language":"Yes","fluency":"Very well"},"survey":"demographics","trial_type":"survey-demo","trial_index":92,"time_elapsed":996892,"internal_node_id":"0.0-88.0","task_version":"0.2"},{"rt":16428,"responses":{"difficulty":"4","fun":"4","clarity":"5","strategy":"no","feedback":"no"},"survey":"debrief","trial_type":"survey-debrief","trial_index":93,"time_elapsed":1013347,"internal_node_id":"0.0-89.0","task_version":"0.2","interactions":"[{\"event\":\"focus\",\"trial\":0,\"time\":0}]"}]