[{"view_history":"[{\"page_index\":0,\"viewing_time\":1625.2150000073016}]","rt":1625.7500000065193,"trial_type":"instructions","trial_index":0,"time_elapsed":1642,"internal_node_id":"0.0-0.0","task_version":"0.2"},{"item_order":[3,0,2,9,15,8,14,7,10,11,4,12,13,6,5,1],"responses":{"Q04":"1","Q01":"1","Q03":"1","Q10":"1","Q16":"5","Q09":"1","Q15":"1","Q08":"1","Q11":"1","Q12":"3","Q05":"1","Q13":"2","Q14":"0","Q07":"4","Q06":"3","Q02":"1"},"radio_events":[6417.0000000158325,7391.850000014529,9538.285000016913,14763.915000017732,17581.23000001069,24233.130000007804,31381.835000007413,35797.695000015665,38070.124999969266,87636.2150000059,90896.49000001373,98643.48999998765,108219.71500001382,112401.53500001179,113427.6199999731,116112.0949999895],"key_events":[],"mouse_events":[45.57000001659617,3924.334999988787,5416.329999978188,6417.0000000158325,7391.850000014529,9538.285000016913,14763.915000017732,17581.23000001069,23467.48499997193,24233.130000007804,31381.835000007413,35797.695000015665,38070.124999969266,86764.16000002064,87636.2150000059,90057.09999997634,90896.49000001373,98643.48999998765,106946.82999997167,108219.71500001382,109531.48999996483,112401.53500001179,113427.6199999731,115335.00999998068,116112.0949999895,117650.8099999628],"rt":117653.92000001157,"survey":"nfc","trial_type":"survey-template","trial_index":1,"time_elapsed":119317,"internal_node_id":"0.0-1.0","task_version":"0.2"},{"item_order":[8,5,11,1,3,10,7,2,4,9,0,6,12],"responses":{"Q09":"2","Q06":"0","Q12":"0","Q02":"2","Q04":"2","Q11":"1","Q08":"1","Q03":"0","Q05":"0","Q10":"0","Q01":"0","Q07":"0","Q13":"4"},"radio_events":[84620.68499997258,88434.26999996882,96121.95000000065,124284.59499997552,131148.14499998465,134149.06500000507,136470.99999996135,167606.60499997903,169239.73999998998,170250.5050000036,171517.47999998042,173752.18499999028,175949.69499995932],"key_events":[],"mouse_events":[84620.68499997258,87067.3550000065,88434.26999996882,95259.50499996543,96121.95000000065,122083.17499997793,124284.59499997552,131148.14499998465,134149.06500000507,136470.99999996135,167606.60499997903,169239.73999998998,170250.5050000036,171517.47999998042,173752.18499999028,175949.69499995932,176620.28999999166],"rt":176622.30499996804,"survey":"ius12","trial_type":"survey-template","trial_index":2,"time_elapsed":295952,"internal_node_id":"0.0-2.0","task_version":"0.2"},{"item_order":[11,10,5,4,3,9,2,1,15,8,16,14,12,6,7,0,13],"responses":{"Q12":"0","Q11":"1","Q06":"1","Q05":"1","Q04":"0","Q10":"1","Q03":"1","Q02":"0","Q16":"0","Q09":"0","Q17":"0","Q15":"0","Q13":"0","Q07":"0","Q08":"1","Q01":"1","Q14":"0"},"radio_events":[16536.894999968354,18717.089999991003,21167.574999970384,22498.589999973774,24789.04499998316,27530.74999997625,29267.645000014454,30869.33499999577,32018.485000007786,48222.56500000367,49588.18000002066,51498.414999980014,52755.24500000756,53750.39000000106,56387.12500000838,71573.81999999052,73268.45999999205,77589.64999997988],"key_events":[],"mouse_events":[3088.6849999660626,6537.47999999905,8749.305000004824,15143.014999979641,16536.894999968354,18717.089999991003,21167.574999970384,21969.379999965895,22498.589999973774,24789.04499998316,25819.465000007767,27530.74999997625,29267.645000014454,30869.33499999577,32018.485000007786,48222.56500000367,49588.18000002066,51498.414999980014,52755.24500000756,53750.39000000106,55871.615000010934,56387.12500000838,71573.81999999052,73268.45999999205,74098.33000000799,76922.93000000063,77589.64999997988,78939.48499998078],"rt":78941.86000002082,"survey":"pswq","trial_type":"survey-template","trial_index":3,"time_elapsed":374899,"internal_node_id":"0.0-3.0","task_version":"0.2"},{"view_history":"[{\"page_index\":0,\"viewing_time\":2415.6000000075437},{\"page_index\":1,\"viewing_time\":2972.520000010263},{\"page_index\":2,\"viewing_time\":8593.995000002906},{\"page_index\":3,\"viewing_time\":3591.629999980796},{\"page_index\":4,\"viewing_time\":2029.934999998659},{\"page_index\":5,\"viewing_time\":2812.750000040978},{\"page_index\":6,\"viewing_time\":3655.449999962002},{\"page_index\":7,\"viewing_time\":18685.89999998221},{\"page_index\":8,\"viewing_time\":3857.480000006035},{\"page_index\":9,\"viewing_time\":2757.2849999996834}]","rt":51373.720000032336,"trial_type":"instructions","trial_index":4,"time_elapsed":426279,"internal_node_id":"0.0-4.0-0.0","task_version":"0.2"},{"response_times":[2059.7800000105053,238.5399999911897,576.4799999888055,1527.364999987185,704.0600000182167],"keys_pressed":["rightarrow","leftarrow","rightarrow","rightarrow","rightarrow"],"horizon":5,"forced_choices":["rightarrow","leftarrow","rightarrow","rightarrow"],"right_color":"lightblue","left_color":"orange","left_mu":40,"right_mu":20,"left_numbers":[49,40,48,58,25],"right_numbers":[16,10,11,13,21],"points_earned":101,"phase":"practice","trial_type":"horizons-task","trial_index":5,"time_elapsed":432909,"internal_node_id":"0.0-4.0-1.0","task_version":"0.2"},{"response_times":[3560.1150000002235,1402.4349999963306,2698.690000048373,1357.4000000371598,1487.8199999802746,4360.325000016019,959.4250000081956,855.9450000175275,288.40499999932945,1122.3299999837764],"keys_pressed":["leftarrow","leftarrow","rightarrow","rightarrow","leftarrow","rightarrow","rightarrow","rightarrow","leftarrow","rightarrow"],"horizon":10,"forced_choices":["leftarrow","leftarrow","rightarrow","rightarrow"],"right_color":"orange","left_color":"lightblue","left_mu":60,"right_mu":70,"left_numbers":[51,59,64,52,58,53,62,55,55,45],"right_numbers":[71,60,58,69,69,69,67,69,79,63],"points_earned":618,"phase":"practice","trial_type":"horizons-task","trial_index":6,"time_elapsed":452510,"internal_node_id":"0.0-4.0-2.0","task_version":"0.2"},{"view_history":"[{\"page_index\":0,\"viewing_time\":2322.4699999555014},{\"page_index\":1,\"viewing_time\":1676.7749999999069},{\"page_index\":2,\"viewing_time\":994.6399999898858},{\"page_index\":3,\"viewing_time\":1505.040000018198}]","rt":6499.269999971148,"trial_type":"instructions","trial_index":7,"time_elapsed":459010,"internal_node_id":"0.0-4.0-3.0","task_version":"0.2"},{"responses":["true","false","true"],"num_errors":0,"rt":7845.9400000283495,"trial_type":"horizons-comprehension","trial_index":8,"time_elapsed":466858,"internal_node_id":"0.0-4.0-4.0","task_version":"0.2"},{"trial_type":"call-function","trial_index":9,"time_elapsed":466861,"internal_node_id":"0.0-5.0","task_version":"0.2"},{"view_history":"[{\"page_index\":0,\"viewing_time\":1068.7599999946542},{\"page_index\":1,\"viewing_time\":1126.2100000167266}]","rt":2195.2450000098906,"trial_type":"instructions","trial_index":10,"time_elapsed":469057,"internal_node_id":"0.0-6.0","task_version":"0.2"},{"response_times":[1209.6350000356324,1200.1450000097975,1633.559999987483,1226.859999995213,1551.854999968782,807.6149999978952,1183.9700000127777,1367.9750000010245,431.86499999137595,312.3599999817088],"keys_pressed":["leftarrow","rightarrow","leftarrow","rightarrow","leftarrow","leftarrow","leftarrow","leftarrow","leftarrow","leftarrow"],"horizon":10,"forced_choices":["leftarrow","rightarrow","leftarrow","rightarrow"],"right_color":"lightblue","left_color":"orange","left_mu":60,"right_mu":40,"left_numbers":[58,53,59,65,71,51,55,59,57,70],"right_numbers":[51,41,43,45,36,36,35,45,27,33],"points_earned":566,"phase":"task","trial_type":"horizons-task","trial_index":11,"time_elapsed":481491,"internal_node_id":"0.0-7.0","task_version":"0.2"},{"response_times":[1432.6949999667704,1689.7100000060163,1055.6949999881908,2238.725000002887,2730.3549999487586],"keys_pressed":["rightarrow","rightarrow","leftarrow","leftarrow","rightarrow"],"horizon":5,"forced_choices":["rightarrow","rightarrow","leftarrow","leftarrow"],"right_color":"lightblue","left_color":"orange","left_mu":40,"right_mu":52,"left_numbers":[38,28,46,35,39],"right_numbers":[35,48,46,47,43],"points_earned":207,"phase":"task","trial_type":"horizons-task","trial_index":12,"time_elapsed":492141,"internal_node_id":"0.0-8.0","task_version":"0.2"},{"response_times":[962.3199999914505,716.5299999760464,962.6150000258349,1293.4700000332668,2208.2400000072084,464.5149999996647,1271.3349999976344,528.5649999859743,567.6349999848753,175.1149999909103],"keys_pressed":["rightarrow","leftarrow","rightarrow","rightarrow","rightarrow","leftarrow","rightarrow","rightarrow","rightarrow","rightarrow"],"horizon":10,"forced_choices":["rightarrow","leftarrow","rightarrow","rightarrow"],"right_color":"lightblue","left_color":"orange","left_mu":40,"right_mu":60,"left_numbers":[39,25,39,66,34,62,49,28,32,40],"right_numbers":[64,60,47,51,67,51,62,57,52,59],"points_earned":546,"phase":"task","trial_type":"horizons-task","trial_index":13,"time_elapsed":502794,"internal_node_id":"0.0-9.0","task_version":"0.2"},{"response_times":[993.9599999925122,3073.5100000165403,6487.3549999902025,694.7350000264123,648.3799999696203,856.644999992568,574.930000002496,184.02500002412125,193.6499999719672,182.45500000193715],"keys_pressed":["rightarrow","leftarrow","rightarrow","rightarrow","leftarrow","rightarrow","rightarrow","rightarrow","rightarrow","rightarrow"],"horizon":10,"forced_choices":["rightarrow","leftarrow","rightarrow","rightarrow"],"right_color":"orange","left_color":"lightblue","left_mu":60,"right_mu":80,"left_numbers":[55,46,64,59,61,63,63,66,59,52],"right_numbers":[91,77,80,74,68,79,66,76,92,81],"points_earned":746,"phase":"task","trial_type":"horizons-task","trial_index":14,"time_elapsed":518187,"internal_node_id":"0.0-10.0","task_version":"0.2"},{"response_times":[789.4949999754317,2867.339999997057,776.0699999635108,1951.9100000034086,1680.510000034701],"keys_pressed":["leftarrow","leftarrow","rightarrow","rightarrow","leftarrow"],"horizon":5,"forced_choices":["leftarrow","leftarrow","rightarrow","rightarrow"],"right_color":"lightblue","left_color":"orange","left_mu":40,"right_mu":32,"left_numbers":[32,47,47,41,32],"right_numbers":[22,17,21,44,34],"points_earned":176,"phase":"task","trial_type":"horizons-task","trial_index":15,"time_elapsed":527756,"internal_node_id":"0.0-11.0","task_version":"0.2"},{"response_times":[1188.9249999658205,677.3549999925308,1016.1800000350922,834.2999999877065,1222.7200000197627],"keys_pressed":["rightarrow","leftarrow","leftarrow","rightarrow","leftarrow"],"horizon":5,"forced_choices":["rightarrow","leftarrow","leftarrow","rightarrow"],"right_color":"lightblue","left_color":"orange","left_mu":60,"right_mu":68,"left_numbers":[77,67,66,59,43],"right_numbers":[75,74,83,58,72],"points_earned":309,"phase":"task","trial_type":"horizons-task","trial_index":16,"time_elapsed":534199,"internal_node_id":"0.0-12.0","task_version":"0.2"},{"response_times":[970.8550000214018,527.7950000017881,970.9150000126101,4092.869999993127,1128.3800000092015],"keys_pressed":["leftarrow","rightarrow","leftarrow","leftarrow","leftarrow"],"horizon":5,"forced_choices":["leftarrow","rightarrow","leftarrow","leftarrow"],"right_color":"lightblue","left_color":"orange","left_mu":40,"right_mu":20,"left_numbers":[41,52,42,45,45],"right_numbers":[8,12,23,16,24],"points_earned":185,"phase":"task","trial_type":"horizons-task","trial_index":17,"time_elapsed":543412,"internal_node_id":"0.0-13.0","task_version":"0.2"},{"response_times":[656.3750000204891,759.6600000397302,1264.08499997342,968.3599999989383,1859.389999997802],"keys_pressed":["leftarrow","rightarrow","rightarrow","rightarrow","rightarrow"],"horizon":5,"forced_choices":["leftarrow","rightarrow","rightarrow","rightarrow"],"right_color":"lightblue","left_color":"orange","left_mu":60,"right_mu":40,"left_numbers":[40,60,53,66,55],"right_numbers":[40,37,36,54,45],"points_earned":212,"phase":"task","trial_type":"horizons-task","trial_index":18,"time_elapsed":550425,"internal_node_id":"0.0-14.0","task_version":"0.2"},{"response_times":[709.9949999828823,357.6199999661185,671.7349999817088,583.6500000441447,567.7750000031665,2393.579999974463,214.54499999526888,287.86500002024695,160.32999998424202,167.8550000069663],"keys_pressed":["rightarrow","leftarrow","leftarrow","rightarrow","leftarrow","leftarrow","leftarrow","leftarrow","leftarrow","leftarrow"],"horizon":10,"forced_choices":["rightarrow","leftarrow","leftarrow","rightarrow"],"right_color":"orange","left_color":"lightblue","left_mu":40,"right_mu":28,"left_numbers":[39,39,55,34,48,44,45,51,32,38],"right_numbers":[32,31,17,23,28,14,35,28,27,33],"points_earned":407,"phase":"task","trial_type":"horizons-task","trial_index":19,"time_elapsed":558043,"internal_node_id":"0.0-15.0","task_version":"0.2"},{"response_times":[593.9650000073016,864.0250000171363,671.7400000197813,960.4750000289641,1923.880000016652],"keys_pressed":["leftarrow","leftarrow","rightarrow","leftarrow","leftarrow"],"horizon":5,"forced_choices":["leftarrow","leftarrow","rightarrow","leftarrow"],"right_color":"lightblue","left_color":"orange","left_mu":60,"right_mu":68,"left_numbers":[61,46,74,55,68],"right_numbers":[70,61,66,58,71],"points_earned":296,"phase":"task","trial_type":"horizons-task","trial_index":20,"time_elapsed":564560,"internal_node_id":"0.0-16.0","task_version":"0.2"},{"response_times":[804.4849999714643,536.3500000094064,743.8700000056997,913.4049999993294,2398.125000006985,655.7150000007823,544.2649999749847,200.13499999186024,178.19499998586252,165.63000000314787],"keys_pressed":["rightarrow","leftarrow","rightarrow","leftarrow","leftarrow","rightarrow","rightarrow","rightarrow","rightarrow","rightarrow"],"horizon":10,"forced_choices":["rightarrow","leftarrow","rightarrow","leftarrow"],"right_color":"orange","left_color":"lightblue","left_mu":60,"right_mu":56,"left_numbers":[58,54,65,67,54,63,64,59,66,67],"right_numbers":[66,55,64,54,54,61,54,51,68,44],"points_earned":583,"phase":"task","trial_type":"horizons-task","trial_index":21,"time_elapsed":573203,"internal_node_id":"0.0-17.0","task_version":"0.2"},{"response_times":[842.9800000158139,342.47999999206513,816.7649999959394,838.8049999484792,1336.3749999552965],"keys_pressed":["rightarrow","leftarrow","leftarrow","leftarrow","leftarrow"],"horizon":5,"forced_choices":["rightarrow","leftarrow","leftarrow","leftarrow"],"right_color":"orange","left_color":"lightblue","left_mu":40,"right_mu":28,"left_numbers":[33,46,36,47,36],"right_numbers":[11,18,36,17,19],"points_earned":176,"phase":"task","trial_type":"horizons-task","trial_index":22,"time_elapsed":578883,"internal_node_id":"0.0-18.0","task_version":"0.2"},{"response_times":[683.0349999945611,400.1299999654293,671.6949999681674,560.3349999873899,2817.6600000006147],"keys_pressed":["leftarrow","leftarrow","rightarrow","rightarrow","rightarrow"],"horizon":5,"forced_choices":["leftarrow","leftarrow","rightarrow","rightarrow"],"right_color":"orange","left_color":"lightblue","left_mu":60,"right_mu":72,"left_numbers":[63,72,62,59,57],"right_numbers":[63,73,65,73,64],"points_earned":337,"phase":"task","trial_type":"horizons-task","trial_index":23,"time_elapsed":585528,"internal_node_id":"0.0-19.0","task_version":"0.2"},{"response_times":[994.3050000001676,626.0350000229664,431.94499996025115,511.83500001206994,3040.7499999855645,561.8499999982305,669.144999992568,864.110000024084,327.6649999897927,171.73000000184402],"keys_pressed":["rightarrow","rightarrow","leftarrow","leftarrow","rightarrow","leftarrow","rightarrow","rightarrow","rightarrow","rightarrow"],"horizon":10,"forced_choices":["rightarrow","rightarrow","leftarrow","leftarrow"],"right_color":"lightblue","left_color":"orange","left_mu":40,"right_mu":52,"left_numbers":[41,28,47,40,32,43,56,47,39,38],"right_numbers":[56,50,46,44,42,50,60,53,59,49],"points_earned":499,"phase":"task","trial_type":"horizons-task","trial_index":24,"time_elapsed":595231,"internal_node_id":"0.0-20.0","task_version":"0.2"},{"response_times":[778.3449999988079,644.2999999853782,548.209999979008,487.33499995432794,1394.15500004543],"keys_pressed":["rightarrow","rightarrow","leftarrow","rightarrow","rightarrow"],"horizon":5,"forced_choices":["rightarrow","rightarrow","leftarrow","rightarrow"],"right_color":"orange","left_color":"lightblue","left_mu":60,"right_mu":56,"left_numbers":[62,45,49,66,63],"right_numbers":[57,85,52,56,54],"points_earned":301,"phase":"task","trial_type":"horizons-task","trial_index":25,"time_elapsed":600589,"internal_node_id":"0.0-21.0","task_version":"0.2"},{"response_times":[680.1499999710359,554.0349999791943,604.7749999561347,616.0950000048615,1242.8800000343472],"keys_pressed":["rightarrow","leftarrow","leftarrow","rightarrow","rightarrow"],"horizon":5,"forced_choices":["rightarrow","leftarrow","leftarrow","rightarrow"],"right_color":"orange","left_color":"lightblue","left_mu":60,"right_mu":90,"left_numbers":[68,58,60,66,63],"right_numbers":[95,97,89,90,89],"points_earned":392,"phase":"task","trial_type":"horizons-task","trial_index":26,"time_elapsed":605791,"internal_node_id":"0.0-22.0","task_version":"0.2"},{"response_times":[565.4349999967963,457.9900000244379,477.9800000251271,464.5449999952689,1631.6750000114553],"keys_pressed":["leftarrow","leftarrow","rightarrow","leftarrow","leftarrow"],"horizon":5,"forced_choices":["leftarrow","leftarrow","rightarrow","leftarrow"],"right_color":"orange","left_color":"lightblue","left_mu":60,"right_mu":52,"left_numbers":[68,65,74,61,51],"right_numbers":[63,55,58,51,47],"points_earned":303,"phase":"task","trial_type":"horizons-task","trial_index":27,"time_elapsed":610892,"internal_node_id":"0.0-23.0","task_version":"0.2"},{"response_times":[551.7950000357814,424.3349999887869,432.4200000264682,1606.339999998454,440.9449999802746],"keys_pressed":["leftarrow","rightarrow","rightarrow","leftarrow","leftarrow"],"horizon":5,"forced_choices":["leftarrow","rightarrow","rightarrow","leftarrow"],"right_color":"orange","left_color":"lightblue","left_mu":40,"right_mu":10,"left_numbers":[42,49,41,48,46],"right_numbers":[0,0,6,13,6],"points_earned":142,"phase":"task","trial_type":"horizons-task","trial_index":28,"time_elapsed":615860,"internal_node_id":"0.0-24.0","task_version":"0.2"},{"response_times":[626.5099999727681,470.7250000210479,560.5199999990873,473.59999996842816,506.519999995362,1387.715000018943,523.6750000040047,431.93500000052154,160.0650000036694,163.39000000152737],"keys_pressed":["rightarrow","rightarrow","leftarrow","rightarrow","leftarrow","rightarrow","leftarrow","rightarrow","rightarrow","rightarrow"],"horizon":10,"forced_choices":["rightarrow","rightarrow","leftarrow","rightarrow"],"right_color":"lightblue","left_color":"orange","left_mu":40,"right_mu":52,"left_numbers":[27,37,33,46,36,35,43,35,57,40],"right_numbers":[60,43,44,56,46,41,60,59,37,61],"points_earned":469,"phase":"task","trial_type":"horizons-task","trial_index":29,"time_elapsed":622671,"internal_node_id":"0.0-25.0","task_version":"0.2"},{"response_times":[585.1649999967776,724.0649999585003,456.28499996382743,535.7099999673665,384.12000000244007,983.7299999780953,866.074999968987,806.2200000276789,243.09000000357628,141.10000000800937],"keys_pressed":["leftarrow","leftarrow","leftarrow","rightarrow","rightarrow","leftarrow","rightarrow","leftarrow","leftarrow","leftarrow"],"horizon":10,"forced_choices":["leftarrow","leftarrow","leftarrow","rightarrow"],"right_color":"lightblue","left_color":"orange","left_mu":40,"right_mu":36,"left_numbers":[30,36,30,32,37,54,39,39,57,29],"right_numbers":[28,11,30,43,38,43,21,44,28,23],"points_earned":377,"phase":"task","trial_type":"horizons-task","trial_index":30,"time_elapsed":629901,"internal_node_id":"0.0-26.0","task_version":"0.2"},{"response_times":[1879.7999999951571,456.1000000103377,439.879999961704,431.8349999957718,1471.9049999839626,353.01000002073124,687.2250000014901,512.4199999845587,387.3650000314228,148.20999995572492],"keys_pressed":["leftarrow","rightarrow","rightarrow","leftarrow","rightarrow","leftarrow","leftarrow","rightarrow","rightarrow","rightarrow"],"horizon":10,"forced_choices":["leftarrow","rightarrow","rightarrow","leftarrow"],"right_color":"orange","left_color":"lightblue","left_mu":40,"right_mu":48,"left_numbers":[35,33,32,25,26,50,33,23,29,38],"right_numbers":[55,42,51,58,38,49,63,36,47,64],"points_earned":421,"phase":"task","trial_type":"horizons-task","trial_index":31,"time_elapsed":638171,"internal_node_id":"0.0-27.0","task_version":"0.2"},{"response_times":[616.2800000165589,721.9749999931082,568.2699999888428,1024.0350000094622,1752.6749999960884,1967.1299999463372,1088.4999999543652,712.8050000173971,469.9450000189245,184.15500002447516],"keys_pressed":["leftarrow","leftarrow","rightarrow","leftarrow","leftarrow","leftarrow","rightarrow","rightarrow","rightarrow","rightarrow"],"horizon":10,"forced_choices":["leftarrow","leftarrow","rightarrow","leftarrow"],"right_color":"lightblue","left_color":"orange","left_mu":60,"right_mu":68,"left_numbers":[48,51,60,47,63,56,62,70,73,65],"right_numbers":[61,59,66,71,78,72,71,72,63,75],"points_earned":612,"phase":"task","trial_type":"horizons-task","trial_index":32,"time_elapsed":648779,"internal_node_id":"0.0-28.0","task_version":"0.2"},{"response_times":[764.035000000149,748.3099999953993,482.48000000603497,457.0750000420958,1910.5349999736063,487.90000000735745,168.41499996371567,162.81000000890344,180.73999998159707,161.07999999076128],"keys_pressed":["rightarrow","leftarrow","leftarrow","leftarrow","rightarrow","rightarrow","rightarrow","rightarrow","rightarrow","rightarrow"],"horizon":10,"forced_choices":["rightarrow","leftarrow","leftarrow","leftarrow"],"right_color":"lightblue","left_color":"orange","left_mu":40,"right_mu":70,"left_numbers":[46,45,48,35,36,45,38,33,55,35],"right_numbers":[63,72,68,70,78,78,75,82,57,64],"points_earned":625,"phase":"task","trial_type":"horizons-task","trial_index":33,"time_elapsed":655836,"internal_node_id":"0.0-29.0","task_version":"0.2"},{"response_times":[1113.0949999787845,311.2599999876693,368.3500000042841,415.63000000314787,2369.7399999946356],"keys_pressed":["rightarrow","leftarrow","rightarrow","leftarrow","leftarrow"],"horizon":5,"forced_choices":["rightarrow","leftarrow","rightarrow","leftarrow"],"right_color":"lightblue","left_color":"orange","left_mu":40,"right_mu":36,"left_numbers":[47,55,45,35,47],"right_numbers":[30,39,30,37,47],"points_earned":197,"phase":"task","trial_type":"horizons-task","trial_index":34,"time_elapsed":661922,"internal_node_id":"0.0-30.0","task_version":"0.2"},{"response_times":[634.8749999888241,367.7299999981187,399.88500002073124,439.91999997524545,1208.0849999911152,495.9950000047684,343.84500002488494,560.0900000426918,160.63500003656372,143.06500001112],"keys_pressed":["leftarrow","rightarrow","leftarrow","leftarrow","leftarrow","leftarrow","rightarrow","leftarrow","leftarrow","leftarrow"],"horizon":10,"forced_choices":["leftarrow","rightarrow","leftarrow","leftarrow"],"right_color":"lightblue","left_color":"orange","left_mu":40,"right_mu":20,"left_numbers":[36,43,34,33,35,38,41,29,34,52],"right_numbers":[11,18,34,26,7,26,27,21,18,24],"points_earned":336,"phase":"task","trial_type":"horizons-task","trial_index":35,"time_elapsed":668179,"internal_node_id":"0.0-31.0","task_version":"0.2"},{"response_times":[3059.824999945704,357.8550000092946,808.3050000132062,1856.8949999753386,1343.0249999510124,568.474999978207,183.12000000150874,176.66499997721985,154.92999996058643,156.13000001758337],"keys_pressed":["rightarrow","leftarrow","rightarrow","leftarrow","rightarrow","rightarrow","rightarrow","rightarrow","rightarrow","rightarrow"],"horizon":10,"forced_choices":["rightarrow","leftarrow","rightarrow","leftarrow"],"right_color":"orange","left_color":"lightblue","left_mu":60,"right_mu":80,"left_numbers":[74,52,65,56,64,45,34,65,72,56],"right_numbers":[85,71,83,86,74,77,81,72,85,74],"points_earned":739,"phase":"task","trial_type":"horizons-task","trial_index":36,"time_elapsed":678347,"internal_node_id":"0.0-32.0","task_version":"0.2"},{"response_times":[689.4399999873713,560.2749999961816,463.7699999730103,728.3100000349805,1616.974999953527],"keys_pressed":["leftarrow","leftarrow","rightarrow","rightarrow","rightarrow"],"horizon":5,"forced_choices":["leftarrow","leftarrow","rightarrow","rightarrow"],"right_color":"lightblue","left_color":"orange","left_mu":40,"right_mu":70,"left_numbers":[38,53,26,46,36],"right_numbers":[74,77,69,66,66],"points_earned":292,"phase":"task","trial_type":"horizons-task","trial_index":37,"time_elapsed":683909,"internal_node_id":"0.0-33.0","task_version":"0.2"},{"response_times":[1224.8900000122376,527.3199999937788,460.35499998833984,399.0250000497326,1476.8950000288896,536.0599999548867,503.40499996673316,455.8899999829009,168.04500005673617,144.37499997438863],"keys_pressed":["leftarrow","leftarrow","rightarrow","rightarrow","leftarrow","rightarrow","rightarrow","rightarrow","rightarrow","rightarrow"],"horizon":10,"forced_choices":["leftarrow","leftarrow","rightarrow","rightarrow"],"right_color":"orange","left_color":"lightblue","left_mu":60,"right_mu":72,"left_numbers":[57,68,59,61,56,64,64,39,67,53],"right_numbers":[67,63,60,71,73,59,69,60,75,95],"points_earned":670,"phase":"task","trial_type":"horizons-task","trial_index":38,"time_elapsed":691308,"internal_node_id":"0.0-34.0","task_version":"0.2"},{"response_times":[1770.4549999907613,366.0599999711849,712.3550000251271,791.7599999927916,511.89999998314306,474.18000001925975,518.0699999909848,168.11499994946644,168.08500001206994,143.51500000339],"keys_pressed":["rightarrow","leftarrow","leftarrow","rightarrow","leftarrow","rightarrow","leftarrow","leftarrow","leftarrow","leftarrow"],"horizon":10,"forced_choices":["rightarrow","leftarrow","leftarrow","rightarrow"],"right_color":"orange","left_color":"lightblue","left_mu":60,"right_mu":30,"left_numbers":[58,64,59,62,55,79,57,52,57,58],"right_numbers":[22,32,26,33,38,45,22,27,40,26],"points_earned":502,"phase":"task","trial_type":"horizons-task","trial_index":39,"time_elapsed":698436,"internal_node_id":"0.0-35.0","task_version":"0.2"},{"response_times":[1360.6700000236742,680.8150000288151,846.3249999913387,640.1049999985844,1673.430000024382],"keys_pressed":["rightarrow","rightarrow","leftarrow","rightarrow","rightarrow"],"horizon":5,"forced_choices":["rightarrow","rightarrow","leftarrow","rightarrow"],"right_color":"orange","left_color":"lightblue","left_mu":40,"right_mu":48,"left_numbers":[38,32,49,40,46],"right_numbers":[44,63,37,51,48],"points_earned":255,"phase":"task","trial_type":"horizons-task","trial_index":40,"time_elapsed":705141,"internal_node_id":"0.0-36.0","task_version":"0.2"},{"response_times":[13105.329999991227,2621.290000039153,535.6299999984913,471.69499995652586,1160.1750000263564,432.24000005284324,175.92000000877306,168.12500002561137,159.5549999619834,153.63999997498468],"keys_pressed":["leftarrow","leftarrow","leftarrow","rightarrow","leftarrow","leftarrow","leftarrow","leftarrow","leftarrow","leftarrow"],"horizon":10,"forced_choices":["leftarrow","leftarrow","leftarrow","rightarrow"],"right_color":"orange","left_color":"lightblue","left_mu":40,"right_mu":10,"left_numbers":[50,58,40,42,46,42,57,35,34,24],"right_numbers":[8,9,22,19,6,10,17,13,8,3],"points_earned":405,"phase":"task","trial_type":"horizons-task","trial_index":41,"time_elapsed":725630,"internal_node_id":"0.0-37.0","task_version":"0.2"},{"response_times":[663.0700000096112,672.5650000153109,723.3250000281259,483.8799999561161,1163.524999981746],"keys_pressed":["leftarrow","leftarrow","leftarrow","rightarrow","rightarrow"],"horizon":5,"forced_choices":["leftarrow","leftarrow","leftarrow","rightarrow"],"right_color":"lightblue","left_color":"orange","left_mu":40,"right_mu":36,"left_numbers":[40,37,41,43,48],"right_numbers":[37,30,52,49,34],"points_earned":201,"phase":"task","trial_type":"horizons-task","trial_index":42,"time_elapsed":730840,"internal_node_id":"0.0-38.0","task_version":"0.2"},{"response_times":[838.4099999675527,431.6150000086054,547.4500000127591,1989.110000024084,3319.450000009965,471.7600000440143,1178.9350000326522,476.94000002229586,871.6950000380166,724.4249999639578],"keys_pressed":["rightarrow","leftarrow","rightarrow","leftarrow","leftarrow","rightarrow","leftarrow","rightarrow","leftarrow","leftarrow"],"horizon":10,"forced_choices":["rightarrow","leftarrow","rightarrow","leftarrow"],"right_color":"lightblue","left_color":"orange","left_mu":40,"right_mu":36,"left_numbers":[26,50,38,33,32,37,45,34,62,31],"right_numbers":[36,33,36,51,17,33,25,45,49,33],"points_earned":403,"phase":"task","trial_type":"horizons-task","trial_index":43,"time_elapsed":743193,"internal_node_id":"0.0-39.0","task_version":"0.2"},{"response_times":[683.3350000088103,391.31500001531094,375.5200000014156,696.799999976065,1686.9599999627098],"keys_pressed":["leftarrow","rightarrow","leftarrow","rightarrow","leftarrow"],"horizon":5,"forced_choices":["leftarrow","rightarrow","leftarrow","rightarrow"],"right_color":"lightblue","left_color":"orange","left_mu":40,"right_mu":44,"left_numbers":[46,43,36,37,45],"right_numbers":[33,29,44,48,47],"points_earned":204,"phase":"task","trial_type":"horizons-task","trial_index":44,"time_elapsed":748532,"internal_node_id":"0.0-40.0","task_version":"0.2"},{"response_times":[657.9600000404753,1257.3449999908917,558.1849999725819,976.7850000062026,2255.1199999870732],"keys_pressed":["leftarrow","leftarrow","rightarrow","leftarrow","rightarrow"],"horizon":5,"forced_choices":["leftarrow","leftarrow","rightarrow","leftarrow"],"right_color":"orange","left_color":"lightblue","left_mu":60,"right_mu":72,"left_numbers":[65,58,63,53,43],"right_numbers":[81,76,80,59,75],"points_earned":331,"phase":"task","trial_type":"horizons-task","trial_index":45,"time_elapsed":755740,"internal_node_id":"0.0-41.0","task_version":"0.2"},{"response_times":[553.4399999887682,456.37000002898276,687.8349999897182,591.6599999764003,1376.1800000211224,567.879999987781,522.194999968633,397.8950000018813,119.96499996166676,146.550000004936],"keys_pressed":["leftarrow","rightarrow","rightarrow","rightarrow","rightarrow","leftarrow","leftarrow","leftarrow","leftarrow","leftarrow"],"horizon":10,"forced_choices":["leftarrow","rightarrow","rightarrow","rightarrow"],"right_color":"lightblue","left_color":"orange","left_mu":60,"right_mu":40,"left_numbers":[61,52,65,59,69,64,58,67,70,56],"right_numbers":[36,35,44,48,53,30,40,40,33,57],"points_earned":556,"phase":"task","trial_type":"horizons-task","trial_index":46,"time_elapsed":762663,"internal_node_id":"0.0-42.0","task_version":"0.2"},{"response_times":[3013.9849999686703,432.1049999562092,583.7900000042282,847.9850000003353,1128.7500000325963,222.81999996630475,176.6199999838136,159.42999999970198,159.90500000771135,144.62999999523163],"keys_pressed":["leftarrow","rightarrow","rightarrow","rightarrow","rightarrow","rightarrow","rightarrow","rightarrow","rightarrow","rightarrow"],"horizon":10,"forced_choices":["leftarrow","rightarrow","rightarrow","rightarrow"],"right_color":"orange","left_color":"lightblue","left_mu":60,"right_mu":90,"left_numbers":[46,60,57,63,59,62,68,67,48,62],"right_numbers":[99,97,94,80,105,95,96,102,93,83],"points_earned":891,"phase":"task","trial_type":"horizons-task","trial_index":47,"time_elapsed":771036,"internal_node_id":"0.0-43.0","task_version":"0.2"},{"response_times":[611.3649999606423,365.9450000268407,474.49500003131106,526.0150000103749,1599.0849999943748],"keys_pressed":["leftarrow","rightarrow","leftarrow","leftarrow","rightarrow"],"horizon":5,"forced_choices":["leftarrow","rightarrow","leftarrow","leftarrow"],"right_color":"lightblue","left_color":"orange","left_mu":40,"right_mu":32,"left_numbers":[35,39,45,37,49],"right_numbers":[33,46,24,40,27],"points_earned":190,"phase":"task","trial_type":"horizons-task","trial_index":48,"time_elapsed":776116,"internal_node_id":"0.0-44.0","task_version":"0.2"},{"response_times":[770.6800000160001,376.9849999807775,487.0399999781512,479.51500001363456,1483.3400000352412,748.9649999770336,552.6900000404567,174.94499997701496,143.6049999902025,152.0549999549985],"keys_pressed":["rightarrow","leftarrow","leftarrow","leftarrow","rightarrow","leftarrow","leftarrow","leftarrow","leftarrow","leftarrow"],"horizon":10,"forced_choices":["rightarrow","leftarrow","leftarrow","leftarrow"],"right_color":"lightblue","left_color":"orange","left_mu":60,"right_mu":48,"left_numbers":[45,37,56,57,76,67,66,57,64,47],"right_numbers":[59,36,42,49,47,65,56,33,47,51],"points_earned":557,"phase":"task","trial_type":"horizons-task","trial_index":49,"time_elapsed":782996,"internal_node_id":"0.0-45.0","task_version":"0.2"},{"response_times":[810.8900000224821,513.1999999866821,452.63999997405335,496.259999985341,521.1050000507385,1543.199999956414,503.25499998871237,744.7950000059791,159.35500001069158,151.7650000168942],"keys_pressed":["rightarrow","rightarrow","leftarrow","rightarrow","leftarrow","rightarrow","leftarrow","rightarrow","rightarrow","rightarrow"],"horizon":10,"forced_choices":["rightarrow","rightarrow","leftarrow","rightarrow"],"right_color":"orange","left_color":"lightblue","left_mu":40,"right_mu":48,"left_numbers":[27,42,47,43,44,41,33,38,38,28],"right_numbers":[62,68,35,49,40,38,38,50,42,54],"points_earned":487,"phase":"task","trial_type":"horizons-task","trial_index":50,"time_elapsed":790396,"internal_node_id":"0.0-46.0","task_version":"0.2"},{"view_history":"[{\"page_index\":0,\"viewing_time\":9332.345000002533},{\"page_index\":1,\"viewing_time\":1097.524999990128}]","rt":10430.359999998473,"trial_type":"instructions","trial_index":51,"time_elapsed":800827,"internal_node_id":"0.0-47.0","task_version":"0.2"},{"response_times":[1406.0450000106357,444.309999991674,371.625000028871,1040.5700000119396,487.8000000026077,1039.5450000069104,642.24999997532,133.94499995047227,167.64499997952953,128.035000001546],"keys_pressed":["rightarrow","leftarrow","leftarrow","leftarrow","rightarrow","leftarrow","leftarrow","leftarrow","leftarrow","leftarrow"],"horizon":10,"forced_choices":["rightarrow","leftarrow","leftarrow","leftarrow"],"right_color":"orange","left_color":"lightblue","left_mu":40,"right_mu":28,"left_numbers":[39,37,40,25,31,47,43,45,45,34],"right_numbers":[17,31,33,25,20,16,22,18,32,26],"points_earned":353,"phase":"task","trial_type":"horizons-task","trial_index":52,"time_elapsed":808204,"internal_node_id":"0.0-48.0","task_version":"0.2"},{"response_times":[705.4750000243075,383.9550000266172,466.12500003539026,1286.0400000354275,591.6349999606609],"keys_pressed":["rightarrow","leftarrow","rightarrow","leftarrow","rightarrow"],"horizon":5,"forced_choices":["rightarrow","leftarrow","rightarrow","leftarrow"],"right_color":"orange","left_color":"lightblue","left_mu":60,"right_mu":56,"left_numbers":[61,57,61,53,63],"right_numbers":[57,53,69,61,33],"points_earned":269,"phase":"task","trial_type":"horizons-task","trial_index":53,"time_elapsed":813140,"internal_node_id":"0.0-49.0","task_version":"0.2"},{"response_times":[465.4650000156835,368.419999955222,431.32999999215826,386.0049999784678,638.0650000064634,583.489999989979,576.5600000158884,935.494999983348,144.3800000124611,151.50499995797873],"keys_pressed":["leftarrow","rightarrow","rightarrow","leftarrow","leftarrow","leftarrow","rightarrow","leftarrow","leftarrow","leftarrow"],"horizon":10,"forced_choices":["leftarrow","rightarrow","rightarrow","leftarrow"],"right_color":"orange","left_color":"lightblue","left_mu":40,"right_mu":10,"left_numbers":[43,43,35,40,43,50,44,34,39,50],"right_numbers":[8,12,0,5,6,0,4,0,15,0],"points_earned":315,"phase":"task","trial_type":"horizons-task","trial_index":54,"time_elapsed":819324,"internal_node_id":"0.0-50.0","task_version":"0.2"},{"response_times":[675.8250000420958,510.4299999657087,791.0550000378862,788.6249999864958,732.7749999822117],"keys_pressed":["rightarrow","leftarrow","leftarrow","rightarrow","leftarrow"],"horizon":5,"forced_choices":["rightarrow","leftarrow","leftarrow","rightarrow"],"right_color":"orange","left_color":"lightblue","left_mu":40,"right_mu":28,"left_numbers":[48,50,52,29,47],"right_numbers":[32,25,30,25,17],"points_earned":206,"phase":"task","trial_type":"horizons-task","trial_index":55,"time_elapsed":824325,"internal_node_id":"0.0-51.0","task_version":"0.2"},{"response_times":[535.4149999911897,735.7299999566749,523.2649999670684,733.0549999605864,543.8599999761209,736.2800000119023,504.30000002961606,175.37500004982576,167.7299999864772,160.18499998608604],"keys_pressed":["leftarrow","leftarrow","rightarrow","rightarrow","leftarrow","rightarrow","rightarrow","rightarrow","rightarrow","rightarrow"],"horizon":10,"forced_choices":["leftarrow","leftarrow","rightarrow","rightarrow"],"right_color":"lightblue","left_color":"orange","left_mu":40,"right_mu":70,"left_numbers":[29,40,41,30,42,35,22,20,41,37],"right_numbers":[57,65,79,69,78,79,59,85,71,59],"points_earned":612,"phase":"task","trial_type":"horizons-task","trial_index":56,"time_elapsed":830643,"internal_node_id":"0.0-52.0","task_version":"0.2"},{"response_times":[3411.5449999808334,493.9800000283867,719.6949999779463,496.48499995237216,695.5249999882653,1031.5849999897182,608.7700000498444,167.6549999974668,167.76500002015382,127.93499999679625],"keys_pressed":["rightarrow","rightarrow","rightarrow","leftarrow","leftarrow","rightarrow","rightarrow","rightarrow","rightarrow","rightarrow"],"horizon":10,"forced_choices":["rightarrow","rightarrow","rightarrow","leftarrow"],"right_color":"orange","left_color":"lightblue","left_mu":60,"right_mu":64,"left_numbers":[52,53,46,66,54,70,61,63,60,78],"right_numbers":[71,72,64,59,69,72,63,71,56,58],"points_earned":647,"phase":"task","trial_type":"horizons-task","trial_index":57,"time_elapsed":840068,"internal_node_id":"0.0-53.0","task_version":"0.2"},{"response_times":[851.9300000043586,517.104999977164,542.7500000223517,508.2900000270456,964.1950000077486],"keys_pressed":["rightarrow","rightarrow","leftarrow","leftarrow","rightarrow"],"horizon":5,"forced_choices":["rightarrow","rightarrow","leftarrow","leftarrow"],"right_color":"orange","left_color":"lightblue","left_mu":60,"right_mu":64,"left_numbers":[62,53,53,47,62],"right_numbers":[78,49,60,66,55],"points_earned":282,"phase":"task","trial_type":"horizons-task","trial_index":58,"time_elapsed":844957,"internal_node_id":"0.0-54.0","task_version":"0.2"},{"response_times":[570.7600000314415,468.98000000510365,1384.680000017397,519.6250000153668,521.5200000093319,3143.255000002682,407.34999999403954,159.85499997623265,154.65499996207654,149.24499997869134],"keys_pressed":["leftarrow","rightarrow","leftarrow","leftarrow","rightarrow","leftarrow","leftarrow","leftarrow","leftarrow","leftarrow"],"horizon":10,"forced_choices":["leftarrow","rightarrow","leftarrow","leftarrow"],"right_color":"lightblue","left_color":"orange","left_mu":40,"right_mu":32,"left_numbers":[48,42,49,35,40,50,46,38,44,52],"right_numbers":[30,35,29,41,31,45,32,43,21,34],"points_earned":428,"phase":"task","trial_type":"horizons-task","trial_index":59,"time_elapsed":853939,"internal_node_id":"0.0-55.0","task_version":"0.2"},{"response_times":[705.504999961704,456.5099999890663,481.5250000101514,1829.9949999782257,1379.419999953825],"keys_pressed":["rightarrow","leftarrow","leftarrow","leftarrow","rightarrow"],"horizon":5,"forced_choices":["rightarrow","leftarrow","leftarrow","leftarrow"],"right_color":"lightblue","left_color":"orange","left_mu":40,"right_mu":70,"left_numbers":[39,19,58,40,46],"right_numbers":[79,67,63,60,65],"points_earned":261,"phase":"task","trial_type":"horizons-task","trial_index":60,"time_elapsed":860295,"internal_node_id":"0.0-56.0","task_version":"0.2"},{"response_times":[911.1350000021048,519.3900000303984,431.93999998038635,687.9799999878742,1460.5549999978393,523.5150000080466,544.1050000372343,177.3300000349991,164.14000000804663,146.08999999472871],"keys_pressed":["rightarrow","rightarrow","leftarrow","leftarrow","rightarrow","leftarrow","leftarrow","leftarrow","leftarrow","leftarrow"],"horizon":10,"forced_choices":["rightarrow","rightarrow","leftarrow","leftarrow"],"right_color":"orange","left_color":"lightblue","left_mu":60,"right_mu":52,"left_numbers":[57,69,60,53,59,51,64,59,60,58],"right_numbers":[53,39,62,41,45,48,58,51,61,70],"points_earned":542,"phase":"task","trial_type":"horizons-task","trial_index":61,"time_elapsed":867365,"internal_node_id":"0.0-57.0","task_version":"0.2"},{"response_times":[689.0600000042468,527.6949999970384,936.7849999689497,689.5499999518506,478.0350000364706],"keys_pressed":["rightarrow","rightarrow","rightarrow","leftarrow","rightarrow"],"horizon":5,"forced_choices":["rightarrow","rightarrow","rightarrow","leftarrow"],"right_color":"orange","left_color":"lightblue","left_mu":60,"right_mu":64,"left_numbers":[63,61,67,51,62],"right_numbers":[59,71,58,63,68],"points_earned":307,"phase":"task","trial_type":"horizons-task","trial_index":62,"time_elapsed":872188,"internal_node_id":"0.0-58.0","task_version":"0.2"},{"response_times":[648.0899999733083,439.69500000821427,744.234999991022,2208.3150000544265,1492.5500000244938,1442.7450000075623,824.2350000073202,591.6100000031292,384.8249999573454,172.28500003693625],"keys_pressed":["leftarrow","rightarrow","leftarrow","rightarrow","rightarrow","leftarrow","rightarrow","rightarrow","rightarrow","rightarrow"],"horizon":10,"forced_choices":["leftarrow","rightarrow","leftarrow","rightarrow"],"right_color":"lightblue","left_color":"orange","left_mu":40,"right_mu":44,"left_numbers":[40,40,36,39,57,20,39,47,48,39],"right_numbers":[48,49,44,43,35,46,52,37,35,55],"points_earned":402,"phase":"task","trial_type":"horizons-task","trial_index":63,"time_elapsed":882641,"internal_node_id":"0.0-59.0","task_version":"0.2"},{"response_times":[572.3899999866262,591.4299999712966,1552.335000014864,440.0749999913387,1161.5699999965727],"keys_pressed":["leftarrow","leftarrow","leftarrow","rightarrow","leftarrow"],"horizon":5,"forced_choices":["leftarrow","leftarrow","leftarrow","rightarrow"],"right_color":"orange","left_color":"lightblue","left_mu":40,"right_mu":10,"left_numbers":[35,40,32,40,20],"right_numbers":[5,0,9,10,16],"points_earned":137,"phase":"task","trial_type":"horizons-task","trial_index":64,"time_elapsed":888461,"internal_node_id":"0.0-60.0","task_version":"0.2"},{"response_times":[5977.40499995416,470.09499999694526,456.5749999601394,455.6700000539422,487.7449999912642],"keys_pressed":["rightarrow","leftarrow","leftarrow","rightarrow","leftarrow"],"horizon":5,"forced_choices":["rightarrow","leftarrow","leftarrow","rightarrow"],"right_color":"orange","left_color":"lightblue","left_mu":60,"right_mu":30,"left_numbers":[64,59,56,51,58],"right_numbers":[25,28,22,16,34],"points_earned":214,"phase":"task","trial_type":"horizons-task","trial_index":65,"time_elapsed":897812,"internal_node_id":"0.0-61.0","task_version":"0.2"},{"response_times":[618.6200000229292,446.9849999877624,516.2600000039674,813.8549999566749,1245.4499999876134],"keys_pressed":["rightarrow","rightarrow","leftarrow","rightarrow","rightarrow"],"horizon":5,"forced_choices":["rightarrow","rightarrow","leftarrow","rightarrow"],"right_color":"lightblue","left_color":"orange","left_mu":40,"right_mu":52,"left_numbers":[35,28,44,34,39],"right_numbers":[51,59,46,48,61],"points_earned":263,"phase":"task","trial_type":"horizons-task","trial_index":66,"time_elapsed":902956,"internal_node_id":"0.0-62.0","task_version":"0.2"},{"response_times":[499.4699999806471,534.58999999566,487.31499997666106,826.0150000569411,1505.1699999603443,1109.3800000380725,463.0050000268966,161.7299999925308,161.4749999716878,156.69500001240522],"keys_pressed":["leftarrow","leftarrow","rightarrow","leftarrow","rightarrow","leftarrow","leftarrow","leftarrow","leftarrow","leftarrow"],"horizon":10,"forced_choices":["leftarrow","leftarrow","rightarrow","leftarrow"],"right_color":"orange","left_color":"lightblue","left_mu":60,"right_mu":52,"left_numbers":[63,55,47,72,76,65,51,52,72,49],"right_numbers":[44,57,56,49,60,50,44,39,46,50],"points_earned":595,"phase":"task","trial_type":"horizons-task","trial_index":67,"time_elapsed":910364,"internal_node_id":"0.0-63.0","task_version":"0.2"},{"response_times":[560.8399999910034,520.0649999896996,512.28500000434,495.714999968186,832.044999988284],"keys_pressed":["leftarrow","rightarrow","rightarrow","leftarrow","leftarrow"],"horizon":5,"forced_choices":["leftarrow","rightarrow","rightarrow","leftarrow"],"right_color":"lightblue","left_color":"orange","left_mu":60,"right_mu":48,"left_numbers":[66,58,56,60,73],"right_numbers":[56,45,43,55,55],"points_earned":287,"phase":"task","trial_type":"horizons-task","trial_index":68,"time_elapsed":914788,"internal_node_id":"0.0-64.0","task_version":"0.2"},{"response_times":[573.0750000220723,585.5100000044331,677.8250000206754,816.1099999560975,2212.684999976773,771.9400000059977,543.680000002496,807.4900000356138,756.2100000213832,503.19499999750406],"keys_pressed":["rightarrow","rightarrow","leftarrow","leftarrow","leftarrow","rightarrow","leftarrow","leftarrow","rightarrow","leftarrow"],"horizon":10,"forced_choices":["rightarrow","rightarrow","leftarrow","leftarrow"],"right_color":"orange","left_color":"lightblue","left_mu":60,"right_mu":64,"left_numbers":[53,45,67,61,63,51,80,46,55,81],"right_numbers":[64,66,74,52,59,66,65,56,56,68],"points_earned":650,"phase":"task","trial_type":"horizons-task","trial_index":69,"time_elapsed":924542,"internal_node_id":"0.0-65.0","task_version":"0.2"},{"response_times":[550.4699999582954,456.5099999890663,463.44999998109415,679.9300000420772,1265.4900000197813,422.83499997574836,447.69499998074025,424.1050000418909,569.8449999908917,479.58500002278015],"keys_pressed":["leftarrow","rightarrow","rightarrow","leftarrow","leftarrow","rightarrow","leftarrow","leftarrow","rightarrow","leftarrow"],"horizon":10,"forced_choices":["leftarrow","rightarrow","rightarrow","leftarrow"],"right_color":"lightblue","left_color":"orange","left_mu":60,"right_mu":48,"left_numbers":[49,57,85,52,57,63,57,56,48,62],"right_numbers":[55,46,52,47,48,51,46,59,41,43],"points_earned":523,"phase":"task","trial_type":"horizons-task","trial_index":70,"time_elapsed":931806,"internal_node_id":"0.0-66.0","task_version":"0.2"},{"response_times":[587.9150000400841,880.0850000116043,383.70500004384667,599.8300000210293,1528.6600000108592,1255.234999989625,425.28999998467043,471.445000031963,399.49999999953434,584.3100000056438],"keys_pressed":["rightarrow","rightarrow","leftarrow","rightarrow","leftarrow","leftarrow","rightarrow","rightarrow","leftarrow","rightarrow"],"horizon":10,"forced_choices":["rightarrow","rightarrow","leftarrow","rightarrow"],"right_color":"orange","left_color":"lightblue","left_mu":60,"right_mu":56,"left_numbers":[58,66,57,57,64,53,52,55,53,56],"right_numbers":[51,76,60,52,60,39,57,56,54,60],"points_earned":579,"phase":"task","trial_type":"horizons-task","trial_index":71,"time_elapsed":940428,"internal_node_id":"0.0-67.0","task_version":"0.2"},{"response_times":[945.3000000212342,554.3250000337139,884.6749999793246,952.3599999956787,1711.5650000050664],"keys_pressed":["leftarrow","rightarrow","rightarrow","rightarrow","leftarrow"],"horizon":5,"forced_choices":["leftarrow","rightarrow","rightarrow","rightarrow"],"right_color":"orange","left_color":"lightblue","left_mu":60,"right_mu":30,"left_numbers":[59,58,45,71,59],"right_numbers":[41,50,31,22,31],"points_earned":221,"phase":"task","trial_type":"horizons-task","trial_index":72,"time_elapsed":946980,"internal_node_id":"0.0-68.0","task_version":"0.2"},{"response_times":[560.9400000539608,464.28000001469627,434.1300000087358,469.7549999691546,552.1500000031665],"keys_pressed":["rightarrow","leftarrow","rightarrow","leftarrow","rightarrow"],"horizon":5,"forced_choices":["rightarrow","leftarrow","rightarrow","leftarrow"],"right_color":"orange","left_color":"lightblue","left_mu":60,"right_mu":80,"left_numbers":[62,59,56,67,64],"right_numbers":[81,73,83,76,75],"points_earned":365,"phase":"task","trial_type":"horizons-task","trial_index":73,"time_elapsed":950964,"internal_node_id":"0.0-69.0","task_version":"0.2"},{"response_times":[611.975000007078,453.68999999482185,487.8350000362843,711.7299999808893,644.4350000238046,1163.5600000154227,770.6550000002608,701.474999950733,143.915000022389,152.4100000387989],"keys_pressed":["leftarrow","leftarrow","rightarrow","rightarrow","leftarrow","rightarrow","rightarrow","leftarrow","leftarrow","leftarrow"],"horizon":10,"forced_choices":["leftarrow","leftarrow","rightarrow","rightarrow"],"right_color":"lightblue","left_color":"orange","left_mu":40,"right_mu":32,"left_numbers":[48,38,30,49,34,35,34,47,42,47],"right_numbers":[38,35,13,31,13,37,29,40,24,24],"points_earned":366,"phase":"task","trial_type":"horizons-task","trial_index":74,"time_elapsed":958308,"internal_node_id":"0.0-70.0","task_version":"0.2"},{"response_times":[537.5299999723211,998.2099999906495,595.2249999972992,765.1499999919906,457.8849999816157,1143.0849999887869,336.11000003293157,150.48000001115724,159.97999999672174,159.85999995609745],"keys_pressed":["leftarrow","rightarrow","rightarrow","rightarrow","leftarrow","leftarrow","leftarrow","leftarrow","leftarrow","leftarrow"],"horizon":10,"forced_choices":["leftarrow","rightarrow","rightarrow","rightarrow"],"right_color":"orange","left_color":"lightblue","left_mu":60,"right_mu":30,"left_numbers":[59,66,53,55,42,54,56,51,60,41],"right_numbers":[18,32,32,44,28,21,32,18,18,33],"points_earned":471,"phase":"task","trial_type":"horizons-task","trial_index":75,"time_elapsed":965115,"internal_node_id":"0.0-71.0","task_version":"0.2"},{"response_times":[537.9749999847263,439.7449999814853,1281.154999975115,679.3450000113808,991.5049999835901],"keys_pressed":["leftarrow","rightarrow","rightarrow","rightarrow","rightarrow"],"horizon":5,"forced_choices":["leftarrow","rightarrow","rightarrow","rightarrow"],"right_color":"orange","left_color":"lightblue","left_mu":60,"right_mu":90,"left_numbers":[54,56,64,55,47],"right_numbers":[97,87,91,75,89],"points_earned":396,"phase":"task","trial_type":"horizons-task","trial_index":76,"time_elapsed":970549,"internal_node_id":"0.0-72.0","task_version":"0.2"},{"response_times":[601.555000001099,522.0449999906123,416.49000003235415,629.0999999619089,1143.87499995064],"keys_pressed":["rightarrow","rightarrow","rightarrow","leftarrow","rightarrow"],"horizon":5,"forced_choices":["rightarrow","rightarrow","rightarrow","leftarrow"],"right_color":"lightblue","left_color":"orange","left_mu":40,"right_mu":44,"left_numbers":[50,45,36,45,41],"right_numbers":[31,39,45,41,49],"points_earned":209,"phase":"task","trial_type":"horizons-task","trial_index":77,"time_elapsed":975375,"internal_node_id":"0.0-73.0","task_version":"0.2"},{"response_times":[558.0750000081025,377.4800000246614,453.7899999995716,631.8549999850802,1024.7700000181794],"keys_pressed":["rightarrow","leftarrow","rightarrow","rightarrow","rightarrow"],"horizon":5,"forced_choices":["rightarrow","leftarrow","rightarrow","rightarrow"],"right_color":"lightblue","left_color":"orange","left_mu":40,"right_mu":60,"left_numbers":[44,39,38,38,28],"right_numbers":[65,60,55,80,51],"points_earned":290,"phase":"task","trial_type":"horizons-task","trial_index":78,"time_elapsed":979925,"internal_node_id":"0.0-74.0","task_version":"0.2"},{"response_times":[1536.1849999753758,567.8700000280514,483.01000002538785,429.60000003222376,455.15499997418374],"keys_pressed":["leftarrow","rightarrow","leftarrow","rightarrow","leftarrow"],"horizon":5,"forced_choices":["leftarrow","rightarrow","leftarrow","rightarrow"],"right_color":"lightblue","left_color":"orange","left_mu":60,"right_mu":40,"left_numbers":[64,52,71,65,73],"right_numbers":[24,34,42,55,51],"points_earned":297,"phase":"task","trial_type":"horizons-task","trial_index":79,"time_elapsed":984899,"internal_node_id":"0.0-75.0","task_version":"0.2"},{"response_times":[570.2950000413693,795.8350000553764,414.18999998131767,887.624999973923,1105.5599999963306],"keys_pressed":["leftarrow","rightarrow","leftarrow","rightarrow","rightarrow"],"horizon":5,"forced_choices":["leftarrow","rightarrow","leftarrow","rightarrow"],"right_color":"lightblue","left_color":"orange","left_mu":40,"right_mu":60,"left_numbers":[45,39,35,50,32],"right_numbers":[57,59,53,62,74],"points_earned":275,"phase":"task","trial_type":"horizons-task","trial_index":80,"time_elapsed":990182,"internal_node_id":"0.0-76.0","task_version":"0.2"},{"response_times":[624.9749999842606,495.60000002384186,508.99500004015863,415.77500000130385,2445.9500000230037,475.3550000023097,479.38999999314547,191.87999999849126,151.5650000073947,119.82999998144805],"keys_pressed":["leftarrow","rightarrow","leftarrow","rightarrow","rightarrow","leftarrow","leftarrow","leftarrow","leftarrow","leftarrow"],"horizon":10,"forced_choices":["leftarrow","rightarrow","leftarrow","rightarrow"],"right_color":"lightblue","left_color":"orange","left_mu":40,"right_mu":20,"left_numbers":[39,50,41,40,26,32,46,50,34,29],"right_numbers":[13,20,9,32,23,25,8,20,19,23],"points_earned":346,"phase":"task","trial_type":"horizons-task","trial_index":81,"time_elapsed":997596,"internal_node_id":"0.0-77.0","task_version":"0.2"},{"response_times":[698.1999999843538,383.4299999871291,448.42499995138496,513.5400000144728,557.9750000033528,481.37499997392297,198.92500003334135,169.1749999881722,162.5849999836646,148.5300000058487],"keys_pressed":["leftarrow","rightarrow","leftarrow","rightarrow","rightarrow","rightarrow","rightarrow","rightarrow","rightarrow","rightarrow"],"horizon":10,"forced_choices":["leftarrow","rightarrow","leftarrow","rightarrow"],"right_color":"lightblue","left_color":"orange","left_mu":40,"right_mu":60,"left_numbers":[41,34,37,47,53,42,57,58,63,36],"right_numbers":[52,47,64,58,55,68,58,52,49,71],"points_earned":536,"phase":"task","trial_type":"horizons-task","trial_index":82,"time_elapsed":1002860,"internal_node_id":"0.0-78.0","task_version":"0.2"},{"response_times":[593.4499999857508,408.40000001480803,744.3699999712408,1184.6849999856204,894.6299999952316,575.8650000207126,528.2549999537878,415.70000001229346,160.7050000457093,143.3850000030361],"keys_pressed":["rightarrow","leftarrow","leftarrow","rightarrow","leftarrow","rightarrow","rightarrow","rightarrow","rightarrow","rightarrow"],"horizon":10,"forced_choices":["rightarrow","leftarrow","leftarrow","rightarrow"],"right_color":"lightblue","left_color":"orange","left_mu":60,"right_mu":68,"left_numbers":[64,46,46,58,50,45,61,41,63,51],"right_numbers":[83,60,65,62,73,73,65,52,86,68],"points_earned":631,"phase":"task","trial_type":"horizons-task","trial_index":83,"time_elapsed":1010014,"internal_node_id":"0.0-79.0","task_version":"0.2"},{"response_times":[864.1850000130944,855.005000019446,448.00500001292676,815.5649999971502,1800.344999996014,447.48999999137595,601.810000021942,558.7550000054762,159.8249999806285,159.38999998616055],"keys_pressed":["leftarrow","leftarrow","rightarrow","leftarrow","rightarrow","rightarrow","leftarrow","rightarrow","rightarrow","rightarrow"],"horizon":10,"forced_choices":["leftarrow","leftarrow","rightarrow","leftarrow"],"right_color":"orange","left_color":"lightblue","left_mu":60,"right_mu":72,"left_numbers":[52,50,51,58,67,59,47,89,55,61],"right_numbers":[73,70,72,72,79,49,77,87,64,68],"points_earned":626,"phase":"task","trial_type":"horizons-task","trial_index":84,"time_elapsed":1018228,"internal_node_id":"0.0-80.0","task_version":"0.2"},{"response_times":[561.8949999916367,304.3700000271201,379.16500004939735,743.7499999650754,1469.745000009425],"keys_pressed":["leftarrow","rightarrow","rightarrow","leftarrow","rightarrow"],"horizon":5,"forced_choices":["leftarrow","rightarrow","rightarrow","leftarrow"],"right_color":"orange","left_color":"lightblue","left_mu":40,"right_mu":48,"left_numbers":[32,38,52,41,42],"right_numbers":[51,44,49,46,59],"points_earned":225,"phase":"task","trial_type":"horizons-task","trial_index":85,"time_elapsed":1023190,"internal_node_id":"0.0-81.0","task_version":"0.2"},{"response_times":[2211.6499999538064,447.48999999137595,831.8199999630451,521.6650000074878,902.5949999922886,471.53000003891066,168.81000000284985,167.74499998427927,175.3049999824725,192.6450000028126],"keys_pressed":["rightarrow","leftarrow","leftarrow","rightarrow","rightarrow","rightarrow","rightarrow","rightarrow","rightarrow","rightarrow"],"horizon":10,"forced_choices":["rightarrow","leftarrow","leftarrow","rightarrow"],"right_color":"orange","left_color":"lightblue","left_mu":60,"right_mu":90,"left_numbers":[56,67,54,54,60,66,48,57,89,56],"right_numbers":[84,84,83,81,99,90,87,89,90,91],"points_earned":832,"phase":"task","trial_type":"horizons-task","trial_index":86,"time_elapsed":1030789,"internal_node_id":"0.0-82.0","task_version":"0.2"},{"response_times":[664.7200000006706,702.8799999970943,530.5499999667518,397.4900000030175,1399.8449999489821,456.13999996567145,495.52500003483146,436.649999988731,532.1700000204146,481.38000001199543],"keys_pressed":["rightarrow","rightarrow","rightarrow","leftarrow","leftarrow","rightarrow","rightarrow","leftarrow","rightarrow","rightarrow"],"horizon":10,"forced_choices":["rightarrow","rightarrow","rightarrow","leftarrow"],"right_color":"lightblue","left_color":"orange","left_mu":40,"right_mu":44,"left_numbers":[41,48,42,41,28,34,30,41,41,38],"right_numbers":[47,36,45,49,49,35,43,44,50,50],"points_earned":416,"phase":"task","trial_type":"horizons-task","trial_index":87,"time_elapsed":1038389,"internal_node_id":"0.0-83.0","task_version":"0.2"},{"response_times":[919.9050000170246,440.43499999679625,400.6049999734387,772.1149999997579,395.1700000325218],"keys_pressed":["rightarrow","leftarrow","leftarrow","leftarrow","rightarrow"],"horizon":5,"forced_choices":["rightarrow","leftarrow","leftarrow","leftarrow"],"right_color":"lightblue","left_color":"orange","left_mu":60,"right_mu":48,"left_numbers":[62,64,48,72,68],"right_numbers":[44,64,45,37,59],"points_earned":287,"phase":"task","trial_type":"horizons-task","trial_index":88,"time_elapsed":1042828,"internal_node_id":"0.0-84.0","task_version":"0.2"},{"response_times":[510.39000001037493,346.7999999993481,503.65000002784654,1007.8999999677762,168.729999975767],"keys_pressed":["rightarrow","leftarrow","rightarrow","rightarrow","rightarrow"],"horizon":5,"forced_choices":["rightarrow","leftarrow","rightarrow","rightarrow"],"right_color":"orange","left_color":"lightblue","left_mu":60,"right_mu":80,"left_numbers":[53,54,64,57,57],"right_numbers":[71,84,88,89,75],"points_earned":377,"phase":"task","trial_type":"horizons-task","trial_index":89,"time_elapsed":1046870,"internal_node_id":"0.0-85.0","task_version":"0.2"},{"response_times":[574.4800000102259,460.9649999765679,587.4000000185333,943.7899999902584,1167.7700000000186],"keys_pressed":["leftarrow","rightarrow","leftarrow","rightarrow","leftarrow"],"horizon":5,"forced_choices":["leftarrow","rightarrow","leftarrow","rightarrow"],"right_color":"lightblue","left_color":"orange","left_mu":40,"right_mu":20,"left_numbers":[32,41,42,45,50],"right_numbers":[20,27,26,25,25],"points_earned":176,"phase":"task","trial_type":"horizons-task","trial_index":90,"time_elapsed":1052107,"internal_node_id":"0.0-86.0","task_version":"0.2"},{"response_times":[417.82500001136214,385.4949999949895,470.44000000460073,376.2599999899976,456.13000000594184],"keys_pressed":["rightarrow","rightarrow","leftarrow","leftarrow","rightarrow"],"horizon":5,"forced_choices":["rightarrow","rightarrow","leftarrow","leftarrow"],"right_color":"orange","left_color":"lightblue","left_mu":60,"right_mu":52,"left_numbers":[71,68,53,48,54],"right_numbers":[58,52,51,55,55],"points_earned":266,"phase":"task","trial_type":"horizons-task","trial_index":91,"time_elapsed":1055718,"internal_node_id":"0.0-87.0","task_version":"0.2"},{"rt":13498.1099999859,"responses":{"age":"45","gender-categorical":"Male","gender-free-response":"","ethnicity":"Not Hispanic or Latino","race":["White"],"language":"Yes","fluency":"Very well"},"survey":"demographics","trial_type":"survey-demo","trial_index":92,"time_elapsed":1069224,"internal_node_id":"0.0-88.0","task_version":"0.2"},{"rt":7795.97500001546,"responses":{"difficulty":"4","fun":"4","clarity":"5","strategy":"","feedback":""},"survey":"debrief","trial_type":"survey-debrief","trial_index":93,"time_elapsed":1077024,"internal_node_id":"0.0-89.0","task_version":"0.2","interactions":"[{\"event\":\"blur\",\"trial\":2,\"time\":144561},{\"event\":\"focus\",\"trial\":2,\"time\":200945}]"}]