[{"view_history":"[{\"page_index\":0,\"viewing_time\":6756}]","rt":6757,"trial_type":"instructions","trial_index":0,"time_elapsed":6766,"internal_node_id":"0.0-0.0","task_version":"0.2"},{"item_order":[7,14,8,10,5,1,2,11,4,9,3,16,0,15,12,6,13],"responses":{"Q08":"3","Q15":"1","Q09":"1","Q11":"2","Q06":"3","Q02":"2","Q03":"3","Q12":"1","Q05":"1","Q10":"3","Q04":"2","Q17":"0","Q01":"3","Q16":"3","Q13":"2","Q07":"0","Q14":"1"},"radio_events":[16797,20437,32431,39064,44569,49834,57635,62435,68355,73107,76348,83933,90485,97239,105575,112000,116273,121341],"key_events":[],"mouse_events":[1,16797,20437,30903,31943,32431,39064,44024,44569,48440,49834,56835,57635,61938,62435,68355,73107,76348,83933,89933,90485,97239,104280,105575,111560,112000,115729,116273,121341,122549],"rt":122549,"survey":"pswq","trial_type":"survey-template","trial_index":1,"time_elapsed":129357,"internal_node_id":"0.0-1.0","task_version":"0.2"},{"item_order":[10,12,0,9,11,8,2,1,6,4,7,5,3],"responses":{"Q11":"2","Q13":"3","Q01":"1","Q10":"1","Q12":"2","Q09":"2","Q03":"1","Q02":"1","Q07":"1","Q05":"2","Q08":"2","Q06":"1","Q04":"2"},"radio_events":[14835,19804,27020,31885,35469,40654,41422,47622,53352,56416,58351,60920,63448,65945],"key_events":[],"mouse_events":[14267,14835,19291,19804,25628,26476,27020,31885,35469,39094,40654,41422,46350,47622,53352,55695,56416,58351,60920,63448,65203,65945,66747],"rt":66747,"survey":"ius12","trial_type":"survey-template","trial_index":2,"time_elapsed":196110,"internal_node_id":"0.0-2.0","task_version":"0.2"},{"item_order":[15,13,14,3,7,12,2,4,9,8,11,5,1,6,0,10],"responses":{"Q16":"3","Q14":"3","Q15":"3","Q04":"3","Q08":"3","Q13":"4","Q03":"3","Q05":"3","Q10":"3","Q09":"3","Q12":"3","Q06":"3","Q02":"2","Q07":"4","Q01":"2","Q11":"3"},"radio_events":[7851,8443,16931,23789,29021,32517,41742,48239,64017,65024,71554,74523,82587,83595,94532,102717,107830,114606],"key_events":[],"mouse_events":[7851,8443,16931,23789,26261,29021,32517,41742,47711,48239,49951,64017,65024,70769,71554,74523,75835,80715,81243,81659,82091,82587,83595,94532,102717,107830,114606,115505],"rt":115505,"survey":"nfc","trial_type":"survey-template","trial_index":3,"time_elapsed":311619,"internal_node_id":"0.0-3.0","task_version":"0.2"},{"view_history":"[{\"page_index\":0,\"viewing_time\":8131},{\"page_index\":1,\"viewing_time\":27348},{\"page_index\":2,\"viewing_time\":26298},{\"page_index\":3,\"viewing_time\":22483},{\"page_index\":4,\"viewing_time\":14777},{\"page_index\":5,\"viewing_time\":11274},{\"page_index\":6,\"viewing_time\":19089},{\"page_index\":7,\"viewing_time\":23364},{\"page_index\":8,\"viewing_time\":32380},{\"page_index\":9,\"viewing_time\":26395}]","rt":211539,"trial_type":"instructions","trial_index":4,"time_elapsed":523159,"internal_node_id":"0.0-4.0-0.0","task_version":"0.2"},{"response_times":[12571,5856,3792,3623,13810],"keys_pressed":["rightarrow","leftarrow","rightarrow","rightarrow","rightarrow"],"horizon":5,"forced_choices":["rightarrow","leftarrow","rightarrow","rightarrow"],"right_color":"lightblue","left_color":"orange","left_mu":40,"right_mu":20,"left_numbers":[40,47,43,30,53],"right_numbers":[26,6,13,18,23],"points_earned":127,"phase":"practice","trial_type":"horizons-task","trial_index":5,"time_elapsed":564344,"internal_node_id":"0.0-4.0-1.0","task_version":"0.2"},{"response_times":[4033,1217,1320,1328,3065,1863,1601,1015,1513,1040],"keys_pressed":["leftarrow","leftarrow","rightarrow","rightarrow","leftarrow","leftarrow","rightarrow","leftarrow","rightarrow","rightarrow"],"horizon":10,"forced_choices":["leftarrow","leftarrow","rightarrow","rightarrow"],"right_color":"orange","left_color":"lightblue","left_mu":60,"right_mu":70,"left_numbers":[57,60,54,64,71,52,67,53,48,60],"right_numbers":[75,73,67,62,50,70,59,64,90,54],"points_earned":625,"phase":"practice","trial_type":"horizons-task","trial_index":6,"time_elapsed":583841,"internal_node_id":"0.0-4.0-2.0","task_version":"0.2"},{"view_history":"[{\"page_index\":0,\"viewing_time\":4516},{\"page_index\":1,\"viewing_time\":10785},{\"page_index\":2,\"viewing_time\":12257},{\"page_index\":3,\"viewing_time\":8304}]","rt":35863,"trial_type":"instructions","trial_index":7,"time_elapsed":619706,"internal_node_id":"0.0-4.0-3.0","task_version":"0.2"},{"responses":["true","false","true"],"num_errors":0,"rt":25812,"trial_type":"horizons-comprehension","trial_index":8,"time_elapsed":645521,"internal_node_id":"0.0-4.0-4.0","task_version":"0.2"},{"trial_type":"call-function","trial_index":9,"time_elapsed":645523,"internal_node_id":"0.0-5.0","task_version":"0.2"},{"view_history":"[{\"page_index\":0,\"viewing_time\":4018},{\"page_index\":1,\"viewing_time\":7393}]","rt":11411,"trial_type":"instructions","trial_index":10,"time_elapsed":656933,"internal_node_id":"0.0-6.0","task_version":"0.2"},{"response_times":[3378,1376,2872,1521,1720,2096,1424,1103,1145,832],"keys_pressed":["leftarrow","rightarrow","leftarrow","rightarrow","rightarrow","rightarrow","rightarrow","leftarrow","leftarrow","rightarrow"],"horizon":10,"forced_choices":["leftarrow","rightarrow","leftarrow","rightarrow"],"right_color":"orange","left_color":"lightblue","left_mu":40,"right_mu":44,"left_numbers":[36,29,43,44,41,34,41,47,32,45],"right_numbers":[35,58,41,43,50,36,40,48,43,44],"points_earned":429,"phase":"task","trial_type":"horizons-task","trial_index":11,"time_elapsed":675909,"internal_node_id":"0.0-7.0","task_version":"0.2"},{"response_times":[1880,1728,3120,1184,1280],"keys_pressed":["rightarrow","leftarrow","rightarrow","leftarrow","leftarrow"],"horizon":5,"forced_choices":["rightarrow","leftarrow","rightarrow","leftarrow"],"right_color":"orange","left_color":"lightblue","left_mu":60,"right_mu":48,"left_numbers":[77,59,46,63,69],"right_numbers":[61,54,42,46,49],"points_earned":294,"phase":"task","trial_type":"horizons-task","trial_index":12,"time_elapsed":686606,"internal_node_id":"0.0-8.0","task_version":"0.2"},{"response_times":[1090,1608,1112,1360,1320,1664,1088,840,888,880],"keys_pressed":["rightarrow","leftarrow","leftarrow","rightarrow","rightarrow","leftarrow","rightarrow","leftarrow","leftarrow","leftarrow"],"horizon":10,"forced_choices":["rightarrow","leftarrow","leftarrow","rightarrow"],"right_color":"orange","left_color":"lightblue","left_mu":40,"right_mu":70,"left_numbers":[55,40,37,50,43,46,35,45,32,34],"right_numbers":[64,70,57,85,69,66,62,70,75,68],"points_earned":514,"phase":"task","trial_type":"horizons-task","trial_index":13,"time_elapsed":699959,"internal_node_id":"0.0-9.0","task_version":"0.2"},{"response_times":[974,991,856,1409,520],"keys_pressed":["rightarrow","leftarrow","leftarrow","rightarrow","rightarrow"],"horizon":5,"forced_choices":["rightarrow","leftarrow","leftarrow","rightarrow"],"right_color":"lightblue","left_color":"orange","left_mu":60,"right_mu":72,"left_numbers":[44,63,47,65,63],"right_numbers":[73,74,71,62,74],"points_earned":319,"phase":"task","trial_type":"horizons-task","trial_index":14,"time_elapsed":706216,"internal_node_id":"0.0-10.0","task_version":"0.2"},{"response_times":[1177,1736,1872,2272,2929],"keys_pressed":["rightarrow","leftarrow","leftarrow","leftarrow","leftarrow"],"horizon":5,"forced_choices":["rightarrow","leftarrow","leftarrow","leftarrow"],"right_color":"orange","left_color":"lightblue","left_mu":40,"right_mu":44,"left_numbers":[28,39,52,37,30],"right_numbers":[47,51,44,43,55],"points_earned":205,"phase":"task","trial_type":"horizons-task","trial_index":15,"time_elapsed":717705,"internal_node_id":"0.0-11.0","task_version":"0.2"},{"response_times":[897,1744,2936,3527,1449,2801,1656,1720,1335,1071],"keys_pressed":["rightarrow","leftarrow","leftarrow","rightarrow","rightarrow","leftarrow","rightarrow","leftarrow","leftarrow","rightarrow"],"horizon":10,"forced_choices":["rightarrow","leftarrow","leftarrow","rightarrow"],"right_color":"lightblue","left_color":"orange","left_mu":60,"right_mu":64,"left_numbers":[61,76,54,56,40,51,52,54,59,63],"right_numbers":[59,61,57,51,60,60,58,75,61,62],"points_earned":584,"phase":"task","trial_type":"horizons-task","trial_index":16,"time_elapsed":738348,"internal_node_id":"0.0-12.0","task_version":"0.2"},{"response_times":[1745,624,1305,832,1920,2592,873,1400,760,2552],"keys_pressed":["leftarrow","leftarrow","rightarrow","leftarrow","rightarrow","rightarrow","leftarrow","rightarrow","leftarrow","rightarrow"],"horizon":10,"forced_choices":["leftarrow","leftarrow","rightarrow","leftarrow"],"right_color":"lightblue","left_color":"orange","left_mu":40,"right_mu":48,"left_numbers":[47,49,32,38,33,21,25,39,41,31],"right_numbers":[52,47,44,43,42,48,51,61,52,43],"points_earned":438,"phase":"task","trial_type":"horizons-task","trial_index":17,"time_elapsed":754453,"internal_node_id":"0.0-13.0","task_version":"0.2"},{"response_times":[1598,424,952,687,2153,1096,3985,392,904,1439],"keys_pressed":["rightarrow","rightarrow","leftarrow","rightarrow","leftarrow","leftarrow","rightarrow","leftarrow","rightarrow","leftarrow"],"horizon":10,"forced_choices":["rightarrow","rightarrow","leftarrow","rightarrow"],"right_color":"orange","left_color":"lightblue","left_mu":60,"right_mu":56,"left_numbers":[60,59,60,58,67,63,52,71,51,46],"right_numbers":[42,58,58,49,48,45,60,63,52,69],"points_earned":568,"phase":"task","trial_type":"horizons-task","trial_index":18,"time_elapsed":769592,"internal_node_id":"0.0-14.0","task_version":"0.2"},{"response_times":[1408,1592,1297,2521,1815],"keys_pressed":["leftarrow","rightarrow","leftarrow","leftarrow","rightarrow"],"horizon":5,"forced_choices":["leftarrow","rightarrow","leftarrow","leftarrow"],"right_color":"orange","left_color":"lightblue","left_mu":60,"right_mu":40,"left_numbers":[82,59,52,63,52],"right_numbers":[42,26,52,52,36],"points_earned":259,"phase":"task","trial_type":"horizons-task","trial_index":19,"time_elapsed":779729,"internal_node_id":"0.0-15.0","task_version":"0.2"},{"response_times":[1351,873,1487,1577,952],"keys_pressed":["rightarrow","leftarrow","leftarrow","leftarrow","rightarrow"],"horizon":5,"forced_choices":["rightarrow","leftarrow","leftarrow","leftarrow"],"right_color":"lightblue","left_color":"orange","left_mu":40,"right_mu":36,"left_numbers":[21,43,26,43,44],"right_numbers":[40,47,33,35,29],"points_earned":181,"phase":"task","trial_type":"horizons-task","trial_index":20,"time_elapsed":787472,"internal_node_id":"0.0-16.0","task_version":"0.2"},{"response_times":[1370,1136,705,471,1161,1064,672,816,544,496],"keys_pressed":["leftarrow","rightarrow","rightarrow","rightarrow","leftarrow","leftarrow","rightarrow","leftarrow","rightarrow","leftarrow"],"horizon":10,"forced_choices":["leftarrow","rightarrow","rightarrow","rightarrow"],"right_color":"lightblue","left_color":"orange","left_mu":60,"right_mu":80,"left_numbers":[65,61,61,63,53,61,48,61,56,49],"right_numbers":[81,78,68,75,62,70,80,80,83,89],"points_earned":673,"phase":"task","trial_type":"horizons-task","trial_index":21,"time_elapsed":797409,"internal_node_id":"0.0-17.0","task_version":"0.2"},{"response_times":[1034,1047,681,681,1264,560,1065,279,809,231],"keys_pressed":["rightarrow","leftarrow","rightarrow","leftarrow","leftarrow","rightarrow","rightarrow","leftarrow","rightarrow","leftarrow"],"horizon":10,"forced_choices":["rightarrow","leftarrow","rightarrow","leftarrow"],"right_color":"lightblue","left_color":"orange","left_mu":60,"right_mu":80,"left_numbers":[51,56,60,58,77,65,68,76,67,52],"right_numbers":[83,85,79,90,89,71,77,85,81,73],"points_earned":710,"phase":"task","trial_type":"horizons-task","trial_index":22,"time_elapsed":806564,"internal_node_id":"0.0-18.0","task_version":"0.2"},{"response_times":[1161,560,496,504,2576],"keys_pressed":["leftarrow","rightarrow","leftarrow","rightarrow","rightarrow"],"horizon":5,"forced_choices":["leftarrow","rightarrow","leftarrow","rightarrow"],"right_color":"orange","left_color":"lightblue","left_mu":40,"right_mu":44,"left_numbers":[38,35,45,54,40],"right_numbers":[46,50,49,29,29],"points_earned":191,"phase":"task","trial_type":"horizons-task","trial_index":23,"time_elapsed":813364,"internal_node_id":"0.0-19.0","task_version":"0.2"},{"response_times":[1350,1825,1095,280,776],"keys_pressed":["leftarrow","leftarrow","rightarrow","rightarrow","rightarrow"],"horizon":5,"forced_choices":["leftarrow","leftarrow","rightarrow","rightarrow"],"right_color":"orange","left_color":"lightblue","left_mu":40,"right_mu":32,"left_numbers":[37,35,44,26,33],"right_numbers":[24,44,50,29,26],"points_earned":177,"phase":"task","trial_type":"horizons-task","trial_index":24,"time_elapsed":820196,"internal_node_id":"0.0-20.0","task_version":"0.2"},{"response_times":[1353,1113,880,3024,2737,1128,912,992,672,968],"keys_pressed":["rightarrow","rightarrow","leftarrow","leftarrow","rightarrow","leftarrow","rightarrow","leftarrow","rightarrow","leftarrow"],"horizon":10,"forced_choices":["rightarrow","rightarrow","leftarrow","leftarrow"],"right_color":"lightblue","left_color":"orange","left_mu":40,"right_mu":10,"left_numbers":[42,47,40,49,33,29,46,38,57,41],"right_numbers":[15,17,0,19,32,7,10,22,0,12],"points_earned":271,"phase":"task","trial_type":"horizons-task","trial_index":25,"time_elapsed":835478,"internal_node_id":"0.0-21.0","task_version":"0.2"},{"response_times":[1233,1369,743,1425,2823,241,3112,400,1032,432],"keys_pressed":["rightarrow","leftarrow","rightarrow","rightarrow","leftarrow","leftarrow","rightarrow","leftarrow","rightarrow","leftarrow"],"horizon":10,"forced_choices":["rightarrow","leftarrow","rightarrow","rightarrow"],"right_color":"lightblue","left_color":"orange","left_mu":60,"right_mu":52,"left_numbers":[61,63,71,69,64,70,73,62,68,67],"right_numbers":[50,42,46,44,58,60,45,63,45,54],"points_earned":556,"phase":"task","trial_type":"horizons-task","trial_index":26,"time_elapsed":849792,"internal_node_id":"0.0-22.0","task_version":"0.2"},{"response_times":[1586,616,905,983,945],"keys_pressed":["rightarrow","leftarrow","leftarrow","rightarrow","leftarrow"],"horizon":5,"forced_choices":["rightarrow","leftarrow","leftarrow","rightarrow"],"right_color":"lightblue","left_color":"orange","left_mu":60,"right_mu":64,"left_numbers":[52,59,65,50,50],"right_numbers":[61,57,59,63,54],"points_earned":298,"phase":"task","trial_type":"horizons-task","trial_index":27,"time_elapsed":856329,"internal_node_id":"0.0-23.0","task_version":"0.2"},{"response_times":[1649,719,368,376,368],"keys_pressed":["rightarrow","leftarrow","rightarrow","rightarrow","rightarrow"],"horizon":5,"forced_choices":["rightarrow","leftarrow","rightarrow","rightarrow"],"right_color":"lightblue","left_color":"orange","left_mu":60,"right_mu":52,"left_numbers":[54,52,60,68,68],"right_numbers":[51,66,49,36,50],"points_earned":238,"phase":"task","trial_type":"horizons-task","trial_index":28,"time_elapsed":861313,"internal_node_id":"0.0-24.0","task_version":"0.2"},{"response_times":[993,976,336,376,64,560,167,353,232,542],"keys_pressed":["leftarrow","rightarrow","leftarrow","leftarrow","rightarrow","rightarrow","leftarrow","rightarrow","rightarrow","rightarrow"],"horizon":10,"forced_choices":["leftarrow","rightarrow","leftarrow","leftarrow"],"right_color":"orange","left_color":"lightblue","left_mu":60,"right_mu":40,"left_numbers":[68,62,53,56,70,45,57,61,61,63],"right_numbers":[41,27,24,35,44,30,37,25,42,38],"points_earned":440,"phase":"task","trial_type":"horizons-task","trial_index":29,"time_elapsed":867417,"internal_node_id":"0.0-25.0","task_version":"0.2"},{"response_times":[518,145,528,289,119,216,176,551,697,152],"keys_pressed":["rightarrow","leftarrow","leftarrow","leftarrow","rightarrow","rightarrow","leftarrow","rightarrow","leftarrow","rightarrow"],"horizon":10,"forced_choices":["rightarrow","leftarrow","leftarrow","leftarrow"],"right_color":"orange","left_color":"lightblue","left_mu":60,"right_mu":48,"left_numbers":[51,77,64,60,56,61,65,55,69,51],"right_numbers":[43,66,45,45,54,47,48,60,37,46],"points_earned":585,"phase":"task","trial_type":"horizons-task","trial_index":30,"time_elapsed":872314,"internal_node_id":"0.0-26.0","task_version":"0.2"},{"response_times":[1793,633,631,520,120],"keys_pressed":["leftarrow","rightarrow","leftarrow","rightarrow","leftarrow"],"horizon":5,"forced_choices":["leftarrow","rightarrow","leftarrow","rightarrow"],"right_color":"lightblue","left_color":"orange","left_mu":40,"right_mu":48,"left_numbers":[38,47,38,47,28],"right_numbers":[43,48,50,66,56],"points_earned":218,"phase":"task","trial_type":"horizons-task","trial_index":31,"time_elapsed":877516,"internal_node_id":"0.0-27.0","task_version":"0.2"},{"response_times":[569,152,200,336,80,111,80,104,104,104],"keys_pressed":["leftarrow","rightarrow","rightarrow","rightarrow","leftarrow","rightarrow","leftarrow","rightarrow","leftarrow","rightarrow"],"horizon":10,"forced_choices":["leftarrow","rightarrow","rightarrow","rightarrow"],"right_color":"lightblue","left_color":"orange","left_mu":40,"right_mu":28,"left_numbers":[47,33,53,42,50,53,48,25,29,35],"right_numbers":[21,27,22,45,28,26,30,22,37,25],"points_earned":341,"phase":"task","trial_type":"horizons-task","trial_index":32,"time_elapsed":880859,"internal_node_id":"0.0-28.0","task_version":"0.2"},{"response_times":[684,167,103,160,72],"keys_pressed":["rightarrow","rightarrow","leftarrow","leftarrow","rightarrow"],"horizon":5,"forced_choices":["rightarrow","rightarrow","leftarrow","leftarrow"],"right_color":"lightblue","left_color":"orange","left_mu":60,"right_mu":52,"left_numbers":[40,58,66,59,51],"right_numbers":[44,53,45,59,59],"points_earned":281,"phase":"task","trial_type":"horizons-task","trial_index":33,"time_elapsed":883547,"internal_node_id":"0.0-29.0","task_version":"0.2"},{"response_times":[592,263,81,176,104,79,88,72,88,88],"keys_pressed":["rightarrow","rightarrow","leftarrow","leftarrow","rightarrow","leftarrow","rightarrow","leftarrow","rightarrow","leftarrow"],"horizon":10,"forced_choices":["rightarrow","rightarrow","leftarrow","leftarrow"],"right_color":"orange","left_color":"lightblue","left_mu":40,"right_mu":60,"left_numbers":[53,51,26,40,40,47,35,45,50,38],"right_numbers":[58,62,53,65,66,62,71,65,54,70],"points_earned":507,"phase":"task","trial_type":"horizons-task","trial_index":34,"time_elapsed":886683,"internal_node_id":"0.0-30.0","task_version":"0.2"},{"response_times":[675,111,80,111,57],"keys_pressed":["leftarrow","rightarrow","leftarrow","rightarrow","leftarrow"],"horizon":5,"forced_choices":["leftarrow","rightarrow","leftarrow","rightarrow"],"right_color":"lightblue","left_color":"orange","left_mu":40,"right_mu":20,"left_numbers":[47,42,56,49,36],"right_numbers":[12,26,31,26,19],"points_earned":191,"phase":"task","trial_type":"horizons-task","trial_index":35,"time_elapsed":889220,"internal_node_id":"0.0-31.0","task_version":"0.2"},{"response_times":[442,136,208,55,105,72,87,64,96,169],"keys_pressed":["leftarrow","rightarrow","rightarrow","leftarrow","rightarrow","leftarrow","rightarrow","leftarrow","rightarrow","rightarrow"],"horizon":10,"forced_choices":["leftarrow","rightarrow","rightarrow","leftarrow"],"right_color":"lightblue","left_color":"orange","left_mu":60,"right_mu":30,"left_numbers":[55,62,59,55,54,58,56,60,69,54],"right_numbers":[44,30,26,33,24,19,40,30,25,23],"points_earned":396,"phase":"task","trial_type":"horizons-task","trial_index":36,"time_elapsed":892156,"internal_node_id":"0.0-32.0","task_version":"0.2"},{"response_times":[370,311,80,113,87,71,103,56,81,960],"keys_pressed":["leftarrow","rightarrow","leftarrow","rightarrow","leftarrow","rightarrow","leftarrow","rightarrow","leftarrow","leftarrow"],"horizon":10,"forced_choices":["leftarrow","rightarrow","leftarrow","rightarrow"],"right_color":"lightblue","left_color":"orange","left_mu":40,"right_mu":20,"left_numbers":[44,39,38,40,29,50,39,49,54,50],"right_numbers":[21,29,14,25,38,16,28,13,23,17],"points_earned":337,"phase":"task","trial_type":"horizons-task","trial_index":37,"time_elapsed":895893,"internal_node_id":"0.0-33.0","task_version":"0.2"},{"response_times":[606,200,112,63,111,57,488,152,88,809],"keys_pressed":["leftarrow","leftarrow","rightarrow","leftarrow","rightarrow","leftarrow","leftarrow","rightarrow","leftarrow","rightarrow"],"horizon":10,"forced_choices":["leftarrow","leftarrow","rightarrow","leftarrow"],"right_color":"orange","left_color":"lightblue","left_mu":40,"right_mu":60,"left_numbers":[44,36,27,46,37,39,40,28,38,44],"right_numbers":[59,63,52,50,75,60,62,49,60,66],"points_earned":485,"phase":"task","trial_type":"horizons-task","trial_index":38,"time_elapsed":900086,"internal_node_id":"0.0-34.0","task_version":"0.2"},{"response_times":[715,272,78,81,1960],"keys_pressed":["leftarrow","leftarrow","rightarrow","leftarrow","rightarrow"],"horizon":5,"forced_choices":["leftarrow","leftarrow","rightarrow","leftarrow"],"right_color":"lightblue","left_color":"orange","left_mu":40,"right_mu":48,"left_numbers":[38,37,37,45,49],"right_numbers":[42,53,61,55,60],"points_earned":241,"phase":"task","trial_type":"horizons-task","trial_index":39,"time_elapsed":904694,"internal_node_id":"0.0-35.0","task_version":"0.2"},{"response_times":[1026,271,88,2744,2417],"keys_pressed":["leftarrow","leftarrow","rightarrow","leftarrow","leftarrow"],"horizon":5,"forced_choices":["leftarrow","leftarrow","rightarrow","leftarrow"],"right_color":"orange","left_color":"lightblue","left_mu":40,"right_mu":60,"left_numbers":[41,31,38,38,28],"right_numbers":[62,66,77,67,51],"points_earned":215,"phase":"task","trial_type":"horizons-task","trial_index":40,"time_elapsed":912744,"internal_node_id":"0.0-36.0","task_version":"0.2"},{"response_times":[1178,929,295,207,81],"keys_pressed":["leftarrow","rightarrow","rightarrow","rightarrow","leftarrow"],"horizon":5,"forced_choices":["leftarrow","rightarrow","rightarrow","rightarrow"],"right_color":"lightblue","left_color":"orange","left_mu":60,"right_mu":72,"left_numbers":[47,53,63,54,60],"right_numbers":[77,69,73,65,71],"points_earned":314,"phase":"task","trial_type":"horizons-task","trial_index":41,"time_elapsed":916934,"internal_node_id":"0.0-37.0","task_version":"0.2"},{"response_times":[449,135,183,72,2185],"keys_pressed":["leftarrow","rightarrow","rightarrow","leftarrow","rightarrow"],"horizon":5,"forced_choices":["leftarrow","rightarrow","rightarrow","leftarrow"],"right_color":"lightblue","left_color":"orange","left_mu":60,"right_mu":30,"left_numbers":[66,55,57,76,68],"right_numbers":[28,42,33,33,31],"points_earned":248,"phase":"task","trial_type":"horizons-task","trial_index":42,"time_elapsed":921463,"internal_node_id":"0.0-38.0","task_version":"0.2"},{"response_times":[418,33,144,104,87,81,104,95,87,72],"keys_pressed":["rightarrow","leftarrow","rightarrow","leftarrow","rightarrow","leftarrow","rightarrow","leftarrow","rightarrow","leftarrow"],"horizon":10,"forced_choices":["rightarrow","leftarrow","rightarrow","leftarrow"],"right_color":"lightblue","left_color":"orange","left_mu":40,"right_mu":28,"left_numbers":[37,36,38,31,56,43,54,38,47,37],"right_numbers":[33,28,38,32,36,23,27,31,33,13],"points_earned":352,"phase":"task","trial_type":"horizons-task","trial_index":43,"time_elapsed":924192,"internal_node_id":"0.0-39.0","task_version":"0.2"},{"response_times":[586,80,127,120,55],"keys_pressed":["leftarrow","rightarrow","rightarrow","leftarrow","rightarrow"],"horizon":5,"forced_choices":["leftarrow","rightarrow","rightarrow","leftarrow"],"right_color":"orange","left_color":"lightblue","left_mu":40,"right_mu":52,"left_numbers":[33,51,27,37,57],"right_numbers":[59,63,48,44,60],"points_earned":241,"phase":"task","trial_type":"horizons-task","trial_index":44,"time_elapsed":926663,"internal_node_id":"0.0-40.0","task_version":"0.2"},{"response_times":[451,184,73,87,73,80,80,96,40,760],"keys_pressed":["rightarrow","rightarrow","leftarrow","rightarrow","leftarrow","rightarrow","leftarrow","rightarrow","leftarrow","leftarrow"],"horizon":10,"forced_choices":["rightarrow","rightarrow","leftarrow","rightarrow"],"right_color":"orange","left_color":"lightblue","left_mu":40,"right_mu":32,"left_numbers":[32,47,44,45,34,39,45,38,36,29],"right_numbers":[28,30,30,32,36,39,37,15,40,22],"points_earned":332,"phase":"task","trial_type":"horizons-task","trial_index":45,"time_elapsed":930088,"internal_node_id":"0.0-41.0","task_version":"0.2"},{"response_times":[498,184,143,106,759],"keys_pressed":["leftarrow","leftarrow","leftarrow","rightarrow","rightarrow"],"horizon":5,"forced_choices":["leftarrow","leftarrow","leftarrow","rightarrow"],"right_color":"lightblue","left_color":"orange","left_mu":40,"right_mu":10,"left_numbers":[42,41,40,56,44],"right_numbers":[2,10,7,9,19],"points_earned":151,"phase":"task","trial_type":"horizons-task","trial_index":46,"time_elapsed":933282,"internal_node_id":"0.0-42.0","task_version":"0.2"},{"response_times":[474,48,128,168,72],"keys_pressed":["rightarrow","leftarrow","rightarrow","rightarrow","leftarrow"],"horizon":5,"forced_choices":["rightarrow","leftarrow","rightarrow","rightarrow"],"right_color":"lightblue","left_color":"orange","left_mu":60,"right_mu":64,"left_numbers":[69,58,63,66,54],"right_numbers":[49,64,66,55,57],"points_earned":282,"phase":"task","trial_type":"horizons-task","trial_index":47,"time_elapsed":935672,"internal_node_id":"0.0-43.0","task_version":"0.2"},{"response_times":[560,215,105,1344,136],"keys_pressed":["leftarrow","leftarrow","rightarrow","rightarrow","leftarrow"],"horizon":5,"forced_choices":["leftarrow","leftarrow","rightarrow","rightarrow"],"right_color":"orange","left_color":"lightblue","left_mu":60,"right_mu":56,"left_numbers":[65,58,57,63,54],"right_numbers":[51,53,37,55,57],"points_earned":269,"phase":"task","trial_type":"horizons-task","trial_index":48,"time_elapsed":939538,"internal_node_id":"0.0-44.0","task_version":"0.2"},{"response_times":[763,135,175,114,200,104,120,56,128,88],"keys_pressed":["leftarrow","rightarrow","leftarrow","rightarrow","rightarrow","leftarrow","rightarrow","leftarrow","rightarrow","leftarrow"],"horizon":10,"forced_choices":["leftarrow","rightarrow","leftarrow","rightarrow"],"right_color":"lightblue","left_color":"orange","left_mu":40,"right_mu":48,"left_numbers":[34,47,50,44,29,42,24,41,32,35],"right_numbers":[58,48,67,45,41,54,54,39,46,64],"points_earned":436,"phase":"task","trial_type":"horizons-task","trial_index":49,"time_elapsed":942923,"internal_node_id":"0.0-45.0","task_version":"0.2"},{"response_times":[594,207,297,151,881],"keys_pressed":["leftarrow","leftarrow","rightarrow","rightarrow","leftarrow"],"horizon":5,"forced_choices":["leftarrow","leftarrow","rightarrow","rightarrow"],"right_color":"lightblue","left_color":"orange","left_mu":40,"right_mu":36,"left_numbers":[43,38,30,42,44],"right_numbers":[43,45,46,47,49],"points_earned":218,"phase":"task","trial_type":"horizons-task","trial_index":50,"time_elapsed":946554,"internal_node_id":"0.0-46.0","task_version":"0.2"},{"view_history":"[{\"page_index\":0,\"viewing_time\":27},{\"page_index\":1,\"viewing_time\":175}]","rt":202,"trial_type":"instructions","trial_index":51,"time_elapsed":946758,"internal_node_id":"0.0-47.0","task_version":"0.2"},{"response_times":[72,104,928,176,128],"keys_pressed":["leftarrow","rightarrow","leftarrow","leftarrow","rightarrow"],"horizon":5,"forced_choices":["leftarrow","rightarrow","leftarrow","leftarrow"],"right_color":"lightblue","left_color":"orange","left_mu":40,"right_mu":20,"left_numbers":[37,26,37,43,52],"right_numbers":[34,15,15,11,37],"points_earned":169,"phase":"task","trial_type":"horizons-task","trial_index":52,"time_elapsed":949674,"internal_node_id":"0.0-48.0","task_version":"0.2"},{"response_times":[796,127,233,207,40,96,121,136,167,79],"keys_pressed":["leftarrow","rightarrow","rightarrow","rightarrow","leftarrow","rightarrow","leftarrow","rightarrow","rightarrow","leftarrow"],"horizon":10,"forced_choices":["leftarrow","rightarrow","rightarrow","rightarrow"],"right_color":"lightblue","left_color":"orange","left_mu":60,"right_mu":72,"left_numbers":[61,47,57,58,50,60,70,47,50,51],"right_numbers":[66,91,73,54,73,79,60,79,64,87],"points_earned":672,"phase":"task","trial_type":"horizons-task","trial_index":53,"time_elapsed":953179,"internal_node_id":"0.0-49.0","task_version":"0.2"},{"response_times":[771,247,168,49,128,48,120,39,193,456],"keys_pressed":["rightarrow","rightarrow","rightarrow","leftarrow","rightarrow","leftarrow","rightarrow","leftarrow","leftarrow","rightarrow"],"horizon":10,"forced_choices":["rightarrow","rightarrow","rightarrow","leftarrow"],"right_color":"orange","left_color":"lightblue","left_mu":60,"right_mu":68,"left_numbers":[54,67,68,75,52,64,50,43,56,64],"right_numbers":[75,53,72,65,70,60,62,46,86,71],"points_earned":641,"phase":"task","trial_type":"horizons-task","trial_index":54,"time_elapsed":956898,"internal_node_id":"0.0-50.0","task_version":"0.2"},{"response_times":[547,240,56,112,81],"keys_pressed":["rightarrow","rightarrow","leftarrow","rightarrow","leftarrow"],"horizon":5,"forced_choices":["rightarrow","rightarrow","leftarrow","rightarrow"],"right_color":"orange","left_color":"lightblue","left_mu":40,"right_mu":32,"left_numbers":[40,44,34,44,37],"right_numbers":[22,38,33,27,15],"points_earned":158,"phase":"task","trial_type":"horizons-task","trial_index":55,"time_elapsed":959437,"internal_node_id":"0.0-51.0","task_version":"0.2"},{"response_times":[602,215,112,168,72,112,57,127,40,880],"keys_pressed":["leftarrow","leftarrow","rightarrow","rightarrow","leftarrow","rightarrow","leftarrow","rightarrow","leftarrow","rightarrow"],"horizon":10,"forced_choices":["leftarrow","leftarrow","rightarrow","rightarrow"],"right_color":"orange","left_color":"lightblue","left_mu":60,"right_mu":56,"left_numbers":[44,57,65,50,47,55,58,52,70,74],"right_numbers":[62,66,72,54,45,54,52,43,63,47],"points_earned":546,"phase":"task","trial_type":"horizons-task","trial_index":56,"time_elapsed":963324,"internal_node_id":"0.0-52.0","task_version":"0.2"},{"response_times":[1615,664,249,103,128],"keys_pressed":["rightarrow","leftarrow","rightarrow","leftarrow","rightarrow"],"horizon":5,"forced_choices":["rightarrow","leftarrow","rightarrow","leftarrow"],"right_color":"lightblue","left_color":"orange","left_mu":60,"right_mu":80,"left_numbers":[64,58,82,69,67],"right_numbers":[89,83,71,89,82],"points_earned":369,"phase":"task","trial_type":"horizons-task","trial_index":57,"time_elapsed":967590,"internal_node_id":"0.0-53.0","task_version":"0.2"},{"response_times":[481,169,79,192,64,72,80,80,513,95],"keys_pressed":["rightarrow","rightarrow","leftarrow","leftarrow","rightarrow","leftarrow","rightarrow","leftarrow","rightarrow","leftarrow"],"horizon":10,"forced_choices":["rightarrow","rightarrow","leftarrow","leftarrow"],"right_color":"lightblue","left_color":"orange","left_mu":60,"right_mu":52,"left_numbers":[55,51,57,75,63,65,61,54,49,56],"right_numbers":[60,49,41,51,46,45,48,44,55,56],"points_earned":565,"phase":"task","trial_type":"horizons-task","trial_index":58,"time_elapsed":970917,"internal_node_id":"0.0-54.0","task_version":"0.2"},{"response_times":[682,287,345,63,80],"keys_pressed":["leftarrow","rightarrow","rightarrow","leftarrow","rightarrow"],"horizon":5,"forced_choices":["leftarrow","rightarrow","rightarrow","leftarrow"],"right_color":"orange","left_color":"lightblue","left_mu":60,"right_mu":90,"left_numbers":[61,65,46,59,67],"right_numbers":[80,94,99,89,113],"points_earned":426,"phase":"task","trial_type":"horizons-task","trial_index":59,"time_elapsed":973877,"internal_node_id":"0.0-55.0","task_version":"0.2"},{"response_times":[706,97,190,105,47,105,56,537,55,120],"keys_pressed":["rightarrow","leftarrow","leftarrow","rightarrow","leftarrow","rightarrow","leftarrow","rightarrow","leftarrow","rightarrow"],"horizon":10,"forced_choices":["rightarrow","leftarrow","leftarrow","rightarrow"],"right_color":"orange","left_color":"lightblue","left_mu":60,"right_mu":40,"left_numbers":[54,62,73,57,73,50,53,71,62,73],"right_numbers":[57,44,40,27,39,44,52,34,42,51],"points_earned":536,"phase":"task","trial_type":"horizons-task","trial_index":60,"time_elapsed":977397,"internal_node_id":"0.0-56.0","task_version":"0.2"},{"response_times":[668,119,88,81,87],"keys_pressed":["rightarrow","rightarrow","leftarrow","rightarrow","leftarrow"],"horizon":5,"forced_choices":["rightarrow","rightarrow","leftarrow","rightarrow"],"right_color":"orange","left_color":"lightblue","left_mu":60,"right_mu":56,"left_numbers":[63,58,47,56,52],"right_numbers":[70,57,65,57,60],"points_earned":283,"phase":"task","trial_type":"horizons-task","trial_index":61,"time_elapsed":979943,"internal_node_id":"0.0-57.0","task_version":"0.2"},{"response_times":[279,168,104,160,136,112,63,72,81,87],"keys_pressed":["leftarrow","rightarrow","leftarrow","leftarrow","leftarrow","rightarrow","leftarrow","rightarrow","leftarrow","rightarrow"],"horizon":10,"forced_choices":["leftarrow","rightarrow","leftarrow","leftarrow"],"right_color":"lightblue","left_color":"orange","left_mu":40,"right_mu":20,"left_numbers":[40,47,34,28,46,33,52,41,42,59],"right_numbers":[25,12,23,17,21,18,35,25,27,24],"points_earned":321,"phase":"task","trial_type":"horizons-task","trial_index":62,"time_elapsed":982710,"internal_node_id":"0.0-58.0","task_version":"0.2"},{"response_times":[3795,264,175,208,95,56,96,80,73,783],"keys_pressed":["rightarrow","rightarrow","rightarrow","leftarrow","rightarrow","leftarrow","rightarrow","leftarrow","rightarrow","leftarrow"],"horizon":10,"forced_choices":["rightarrow","rightarrow","rightarrow","leftarrow"],"right_color":"orange","left_color":"lightblue","left_mu":40,"right_mu":52,"left_numbers":[38,34,26,38,35,29,45,42,38,43],"right_numbers":[54,53,59,48,49,63,53,45,56,45],"points_earned":476,"phase":"task","trial_type":"horizons-task","trial_index":63,"time_elapsed":989839,"internal_node_id":"0.0-59.0","task_version":"0.2"},{"response_times":[298,175,168,72,104],"keys_pressed":["rightarrow","rightarrow","rightarrow","leftarrow","rightarrow"],"horizon":5,"forced_choices":["rightarrow","rightarrow","rightarrow","leftarrow"],"right_color":"orange","left_color":"lightblue","left_mu":40,"right_mu":52,"left_numbers":[35,46,51,37,39],"right_numbers":[61,47,45,54,52],"points_earned":242,"phase":"task","trial_type":"horizons-task","trial_index":64,"time_elapsed":992159,"internal_node_id":"0.0-60.0","task_version":"0.2"},{"response_times":[418,96,168,176,97,73,78,97,86,56],"keys_pressed":["rightarrow","leftarrow","leftarrow","leftarrow","rightarrow","leftarrow","rightarrow","leftarrow","rightarrow","leftarrow"],"horizon":10,"forced_choices":["rightarrow","leftarrow","leftarrow","leftarrow"],"right_color":"orange","left_color":"lightblue","left_mu":40,"right_mu":44,"left_numbers":[41,32,38,31,43,46,50,54,32,43],"right_numbers":[33,49,51,50,50,39,41,48,50,49],"points_earned":418,"phase":"task","trial_type":"horizons-task","trial_index":65,"time_elapsed":995007,"internal_node_id":"0.0-61.0","task_version":"0.2"},{"response_times":[898,104,200,168,161,110,57,272,98,783],"keys_pressed":["rightarrow","leftarrow","leftarrow","leftarrow","leftarrow","rightarrow","leftarrow","rightarrow","leftarrow","rightarrow"],"horizon":10,"forced_choices":["rightarrow","leftarrow","leftarrow","leftarrow"],"right_color":"lightblue","left_color":"orange","left_mu":40,"right_mu":36,"left_numbers":[52,40,18,56,29,33,40,45,49,40],"right_numbers":[50,40,48,32,35,35,30,14,32,39],"points_earned":370,"phase":"task","trial_type":"horizons-task","trial_index":66,"time_elapsed":999361,"internal_node_id":"0.0-62.0","task_version":"0.2"},{"response_times":[497,193,56,120,56,104,136,319,233,831],"keys_pressed":["rightarrow","rightarrow","leftarrow","rightarrow","leftarrow","leftarrow","rightarrow","leftarrow","leftarrow","leftarrow"],"horizon":10,"forced_choices":["rightarrow","rightarrow","leftarrow","rightarrow"],"right_color":"orange","left_color":"lightblue","left_mu":40,"right_mu":70,"left_numbers":[32,38,38,45,38,39,61,48,59,34],"right_numbers":[56,54,71,73,71,60,80,87,71,68],"points_earned":519,"phase":"task","trial_type":"horizons-task","trial_index":67,"time_elapsed":1003409,"internal_node_id":"0.0-63.0","task_version":"0.2"},{"response_times":[386,136,160,81,71,72,96,40,72,104],"keys_pressed":["leftarrow","rightarrow","rightarrow","leftarrow","rightarrow","leftarrow","rightarrow","leftarrow","rightarrow","leftarrow"],"horizon":10,"forced_choices":["leftarrow","rightarrow","rightarrow","leftarrow"],"right_color":"orange","left_color":"lightblue","left_mu":40,"right_mu":52,"left_numbers":[44,56,40,45,49,42,40,45,53,27],"right_numbers":[58,38,53,58,55,49,50,49,64,46],"points_earned":463,"phase":"task","trial_type":"horizons-task","trial_index":68,"time_elapsed":1006130,"internal_node_id":"0.0-64.0","task_version":"0.2"},{"response_times":[1283,175,168,89,160,216,48,144,80,1158],"keys_pressed":["leftarrow","leftarrow","leftarrow","rightarrow","rightarrow","rightarrow","leftarrow","rightarrow","leftarrow","leftarrow"],"horizon":10,"forced_choices":["leftarrow","leftarrow","leftarrow","rightarrow"],"right_color":"lightblue","left_color":"orange","left_mu":60,"right_mu":30,"left_numbers":[62,62,61,56,67,54,54,74,59,60],"right_numbers":[39,21,31,38,29,23,27,16,25,33],"points_earned":464,"phase":"task","trial_type":"horizons-task","trial_index":69,"time_elapsed":1011154,"internal_node_id":"0.0-65.0","task_version":"0.2"},{"response_times":[683,208,104,184,54,103,49,104,64,89],"keys_pressed":["leftarrow","leftarrow","rightarrow","rightarrow","leftarrow","rightarrow","leftarrow","rightarrow","leftarrow","rightarrow"],"horizon":10,"forced_choices":["leftarrow","leftarrow","rightarrow","rightarrow"],"right_color":"lightblue","left_color":"orange","left_mu":40,"right_mu":36,"left_numbers":[43,34,42,36,28,52,42,33,35,35],"right_numbers":[34,42,23,44,37,37,39,29,27,48],"points_earned":363,"phase":"task","trial_type":"horizons-task","trial_index":70,"time_elapsed":1014298,"internal_node_id":"0.0-66.0","task_version":"0.2"},{"response_times":[376,209,144,120,71,120,121,72,95,785],"keys_pressed":["leftarrow","leftarrow","leftarrow","rightarrow","leftarrow","rightarrow","rightarrow","leftarrow","rightarrow","leftarrow"],"horizon":10,"forced_choices":["leftarrow","leftarrow","leftarrow","rightarrow"],"right_color":"lightblue","left_color":"orange","left_mu":40,"right_mu":10,"left_numbers":[34,32,46,55,26,43,47,19,35,43],"right_numbers":[9,17,0,0,20,16,15,7,13,8],"points_earned":244,"phase":"task","trial_type":"horizons-task","trial_index":71,"time_elapsed":1017914,"internal_node_id":"0.0-67.0","task_version":"0.2"},{"response_times":[498,79,120,57,96,88,79,65,104,38],"keys_pressed":["rightarrow","leftarrow","rightarrow","leftarrow","rightarrow","leftarrow","rightarrow","leftarrow","rightarrow","leftarrow"],"horizon":10,"forced_choices":["rightarrow","leftarrow","rightarrow","leftarrow"],"right_color":"orange","left_color":"lightblue","left_mu":60,"right_mu":48,"left_numbers":[57,58,66,53,62,74,53,69,64,78],"right_numbers":[56,46,36,49,52,61,64,56,48,43],"points_earned":588,"phase":"task","trial_type":"horizons-task","trial_index":72,"time_elapsed":1020642,"internal_node_id":"0.0-68.0","task_version":"0.2"},{"response_times":[867,47,184,143,97],"keys_pressed":["rightarrow","leftarrow","leftarrow","leftarrow","rightarrow"],"horizon":5,"forced_choices":["rightarrow","leftarrow","leftarrow","leftarrow"],"right_color":"orange","left_color":"lightblue","left_mu":60,"right_mu":48,"left_numbers":[49,66,66,77,55],"right_numbers":[35,56,49,39,24],"points_earned":268,"phase":"task","trial_type":"horizons-task","trial_index":73,"time_elapsed":1023484,"internal_node_id":"0.0-69.0","task_version":"0.2"},{"response_times":[848,32,89,512,416],"keys_pressed":["rightarrow","leftarrow","rightarrow","leftarrow","rightarrow"],"horizon":5,"forced_choices":["rightarrow","leftarrow","rightarrow","leftarrow"],"right_color":"lightblue","left_color":"orange","left_mu":40,"right_mu":28,"left_numbers":[55,54,43,29,37],"right_numbers":[16,30,28,26,12],"points_earned":139,"phase":"task","trial_type":"horizons-task","trial_index":74,"time_elapsed":1026884,"internal_node_id":"0.0-70.0","task_version":"0.2"},{"response_times":[442,32,192,376,120],"keys_pressed":["rightarrow","leftarrow","leftarrow","rightarrow","leftarrow"],"horizon":5,"forced_choices":["rightarrow","leftarrow","leftarrow","rightarrow"],"right_color":"orange","left_color":"lightblue","left_mu":40,"right_mu":70,"left_numbers":[30,45,36,28,43],"right_numbers":[67,60,70,62,77],"points_earned":253,"phase":"task","trial_type":"horizons-task","trial_index":75,"time_elapsed":1029549,"internal_node_id":"0.0-71.0","task_version":"0.2"},{"response_times":[308,136,192,153,63],"keys_pressed":["leftarrow","rightarrow","rightarrow","rightarrow","leftarrow"],"horizon":5,"forced_choices":["leftarrow","rightarrow","rightarrow","rightarrow"],"right_color":"lightblue","left_color":"orange","left_mu":60,"right_mu":80,"left_numbers":[40,54,59,66,58],"right_numbers":[75,81,80,72,87],"points_earned":331,"phase":"task","trial_type":"horizons-task","trial_index":76,"time_elapsed":1031908,"internal_node_id":"0.0-72.0","task_version":"0.2"},{"response_times":[754,200,247,80,145,72,272,136,160,616],"keys_pressed":["leftarrow","rightarrow","rightarrow","leftarrow","rightarrow","leftarrow","rightarrow","leftarrow","rightarrow","rightarrow"],"horizon":10,"forced_choices":["leftarrow","rightarrow","rightarrow","leftarrow"],"right_color":"orange","left_color":"lightblue","left_mu":60,"right_mu":90,"left_numbers":[50,66,52,46,45,59,55,63,58,57],"right_numbers":[87,85,101,88,95,86,79,87,78,78],"points_earned":734,"phase":"task","trial_type":"horizons-task","trial_index":77,"time_elapsed":1036093,"internal_node_id":"0.0-73.0","task_version":"0.2"},{"response_times":[834,120,71,128,48],"keys_pressed":["leftarrow","rightarrow","leftarrow","rightarrow","leftarrow"],"horizon":5,"forced_choices":["leftarrow","rightarrow","leftarrow","rightarrow"],"right_color":"orange","left_color":"lightblue","left_mu":60,"right_mu":68,"left_numbers":[65,61,64,59,62],"right_numbers":[68,75,59,77,64],"points_earned":343,"phase":"task","trial_type":"horizons-task","trial_index":78,"time_elapsed":1038796,"internal_node_id":"0.0-74.0","task_version":"0.2"},{"response_times":[587,152,31,160,896],"keys_pressed":["rightarrow","rightarrow","leftarrow","leftarrow","leftarrow"],"horizon":5,"forced_choices":["rightarrow","rightarrow","leftarrow","leftarrow"],"right_color":"orange","left_color":"lightblue","left_mu":40,"right_mu":60,"left_numbers":[34,43,38,27,49],"right_numbers":[56,59,58,63,57],"points_earned":229,"phase":"task","trial_type":"horizons-task","trial_index":79,"time_elapsed":1042124,"internal_node_id":"0.0-75.0","task_version":"0.2"},{"response_times":[523,304,102,161,152,87,80,81,119,41],"keys_pressed":["rightarrow","leftarrow","rightarrow","rightarrow","rightarrow","leftarrow","rightarrow","leftarrow","rightarrow","leftarrow"],"horizon":10,"forced_choices":["rightarrow","leftarrow","rightarrow","rightarrow"],"right_color":"lightblue","left_color":"orange","left_mu":60,"right_mu":64,"left_numbers":[60,44,75,64,55,61,59,61,53,76],"right_numbers":[65,58,53,45,61,58,91,58,71,68],"points_earned":628,"phase":"task","trial_type":"horizons-task","trial_index":80,"time_elapsed":1045277,"internal_node_id":"0.0-76.0","task_version":"0.2"},{"response_times":[582,136,168,519,880],"keys_pressed":["leftarrow","rightarrow","rightarrow","rightarrow","leftarrow"],"horizon":5,"forced_choices":["leftarrow","rightarrow","rightarrow","rightarrow"],"right_color":"lightblue","left_color":"orange","left_mu":40,"right_mu":28,"left_numbers":[30,46,25,41,30],"right_numbers":[24,40,37,25,22],"points_earned":162,"phase":"task","trial_type":"horizons-task","trial_index":81,"time_elapsed":1049069,"internal_node_id":"0.0-77.0","task_version":"0.2"},{"response_times":[444,143,177,55,88],"keys_pressed":["rightarrow","rightarrow","rightarrow","leftarrow","rightarrow"],"horizon":5,"forced_choices":["rightarrow","rightarrow","rightarrow","leftarrow"],"right_color":"orange","left_color":"lightblue","left_mu":60,"right_mu":68,"left_numbers":[65,52,65,44,62],"right_numbers":[69,69,76,66,68],"points_earned":326,"phase":"task","trial_type":"horizons-task","trial_index":82,"time_elapsed":1051479,"internal_node_id":"0.0-78.0","task_version":"0.2"},{"response_times":[506,160,225,54,105],"keys_pressed":["leftarrow","leftarrow","rightarrow","leftarrow","rightarrow"],"horizon":5,"forced_choices":["leftarrow","leftarrow","rightarrow","leftarrow"],"right_color":"orange","left_color":"lightblue","left_mu":60,"right_mu":90,"left_numbers":[60,63,62,56,58],"right_numbers":[97,82,89,91,93],"points_earned":361,"phase":"task","trial_type":"horizons-task","trial_index":83,"time_elapsed":1054030,"internal_node_id":"0.0-79.0","task_version":"0.2"},{"response_times":[658,64,191,73,88],"keys_pressed":["rightarrow","leftarrow","leftarrow","rightarrow","leftarrow"],"horizon":5,"forced_choices":["rightarrow","leftarrow","leftarrow","rightarrow"],"right_color":"orange","left_color":"lightblue","left_mu":60,"right_mu":40,"left_numbers":[58,68,52,51,66],"right_numbers":[31,40,30,57,29],"points_earned":274,"phase":"task","trial_type":"horizons-task","trial_index":84,"time_elapsed":1056606,"internal_node_id":"0.0-80.0","task_version":"0.2"},{"response_times":[451,289,71,88,112,40,104,57,87,72],"keys_pressed":["leftarrow","leftarrow","rightarrow","leftarrow","rightarrow","leftarrow","rightarrow","leftarrow","rightarrow","leftarrow"],"horizon":10,"forced_choices":["leftarrow","leftarrow","rightarrow","leftarrow"],"right_color":"orange","left_color":"lightblue","left_mu":60,"right_mu":90,"left_numbers":[66,66,49,51,43,54,49,62,60,58],"right_numbers":[98,98,103,86,96,73,82,88,102,83],"points_earned":740,"phase":"task","trial_type":"horizons-task","trial_index":85,"time_elapsed":1059478,"internal_node_id":"0.0-81.0","task_version":"0.2"},{"response_times":[1912,128,240,95,95,121,63,113,64,95],"keys_pressed":["rightarrow","leftarrow","leftarrow","rightarrow","leftarrow","rightarrow","leftarrow","rightarrow","leftarrow","rightarrow"],"horizon":10,"forced_choices":["rightarrow","leftarrow","leftarrow","rightarrow"],"right_color":"lightblue","left_color":"orange","left_mu":60,"right_mu":72,"left_numbers":[48,67,51,64,55,67,69,62,50,41],"right_numbers":[79,84,65,78,74,73,58,86,83,67],"points_earned":675,"phase":"task","trial_type":"horizons-task","trial_index":86,"time_elapsed":1063912,"internal_node_id":"0.0-82.0","task_version":"0.2"},{"response_times":[1002,360,64,1368,560],"keys_pressed":["rightarrow","rightarrow","leftarrow","leftarrow","leftarrow"],"horizon":5,"forced_choices":["rightarrow","rightarrow","leftarrow","leftarrow"],"right_color":"lightblue","left_color":"orange","left_mu":40,"right_mu":10,"left_numbers":[37,41,40,34,45],"right_numbers":[8,6,0,20,4],"points_earned":133,"phase":"task","trial_type":"horizons-task","trial_index":87,"time_elapsed":1068768,"internal_node_id":"0.0-83.0","task_version":"0.2"},{"response_times":[571,343,258,119,104,143,529,88,960,160],"keys_pressed":["leftarrow","leftarrow","rightarrow","rightarrow","leftarrow","leftarrow","rightarrow","leftarrow","rightarrow","leftarrow"],"horizon":10,"forced_choices":["leftarrow","leftarrow","rightarrow","rightarrow"],"right_color":"orange","left_color":"lightblue","left_mu":40,"right_mu":32,"left_numbers":[33,47,23,43,41,44,34,49,24,14],"right_numbers":[44,29,30,33,39,15,27,18,36,18],"points_earned":354,"phase":"task","trial_type":"horizons-task","trial_index":88,"time_elapsed":1073545,"internal_node_id":"0.0-84.0","task_version":"0.2"},{"response_times":[594,217,55,105,86],"keys_pressed":["rightarrow","rightarrow","leftarrow","rightarrow","leftarrow"],"horizon":5,"forced_choices":["rightarrow","rightarrow","leftarrow","rightarrow"],"right_color":"orange","left_color":"lightblue","left_mu":40,"right_mu":70,"left_numbers":[35,33,39,46,49],"right_numbers":[75,72,78,61,72],"points_earned":296,"phase":"task","trial_type":"horizons-task","trial_index":89,"time_elapsed":1076104,"internal_node_id":"0.0-85.0","task_version":"0.2"},{"response_times":[539,232,159,112,969],"keys_pressed":["leftarrow","leftarrow","leftarrow","rightarrow","leftarrow"],"horizon":5,"forced_choices":["leftarrow","leftarrow","leftarrow","rightarrow"],"right_color":"lightblue","left_color":"orange","left_mu":60,"right_mu":30,"left_numbers":[43,54,67,64,58],"right_numbers":[33,30,23,12,37],"points_earned":234,"phase":"task","trial_type":"horizons-task","trial_index":90,"time_elapsed":1079618,"internal_node_id":"0.0-86.0","task_version":"0.2"},{"response_times":[601,89,72,120,48,112,39,144,129,64],"keys_pressed":["leftarrow","rightarrow","leftarrow","rightarrow","leftarrow","rightarrow","leftarrow","leftarrow","rightarrow","leftarrow"],"horizon":10,"forced_choices":["leftarrow","rightarrow","leftarrow","rightarrow"],"right_color":"orange","left_color":"lightblue","left_mu":60,"right_mu":68,"left_numbers":[57,55,56,53,69,62,67,71,64,50],"right_numbers":[81,66,71,81,72,70,67,65,74,65],"points_earned":661,"phase":"task","trial_type":"horizons-task","trial_index":91,"time_elapsed":1082538,"internal_node_id":"0.0-87.0","task_version":"0.2"},{"rt":24652,"responses":{"age":"50","gender-categorical":"Male","gender-free-response":"","ethnicity":"Not Hispanic or Latino","race":["White"],"language":"Yes","fluency":"Well"},"survey":"demographics","trial_type":"survey-demo","trial_index":92,"time_elapsed":1107199,"internal_node_id":"0.0-88.0","task_version":"0.2"},{"rt":34061,"responses":{"difficulty":"5","fun":"5","clarity":"5","strategy":"no","feedback":"enjoyable"},"survey":"debrief","trial_type":"survey-debrief","trial_index":93,"time_elapsed":1141263,"internal_node_id":"0.0-89.0","task_version":"0.2","interactions":"[{\"event\":\"blur\",\"trial\":0,\"time\":750},{\"event\":\"focus\",\"trial\":0,\"time\":2085},{\"event\":\"blur\",\"trial\":4,\"time\":338070},{\"event\":\"focus\",\"trial\":4,\"time\":340771},{\"event\":\"blur\",\"trial\":4,\"time\":341081},{\"event\":\"focus\",\"trial\":4,\"time\":343471},{\"event\":\"blur\",\"trial\":4,\"time\":343474},{\"event\":\"focus\",\"trial\":4,\"time\":343495},{\"event\":\"blur\",\"trial\":4,\"time\":343497},{\"event\":\"focus\",\"trial\":4,\"time\":345671}]"}]