[{"view_history":"[{\"page_index\":0,\"viewing_time\":4443}]","rt":4444,"trial_type":"instructions","trial_index":0,"time_elapsed":4452,"internal_node_id":"0.0-0.0","task_version":"0.2"},{"item_order":[3,14,12,11,9,0,5,13,15,10,8,4,7,2,1,6],"responses":{"Q04":"3","Q15":"4","Q13":"5","Q12":"5","Q10":"3","Q01":"4","Q06":"4","Q14":"2","Q16":"5","Q11":"4","Q09":"2","Q05":"4","Q08":"4","Q03":"5","Q02":"2","Q07":"5"},"radio_events":[12530,18262,35098,40952,45786,50565,55994,60120,73728,115229,132448,137506,142454,146766,155229,159115,161459],"key_events":[],"mouse_events":[0,11150,12530,18262,35098,40952,45786,50565,55994,60120,73728,111069,115229,131099,132448,136930,137506,142454,146766,154190,155229,158371,159115,161459,162372],"rt":162373,"survey":"nfc","trial_type":"survey-template","trial_index":1,"time_elapsed":166840,"internal_node_id":"0.0-1.0","task_version":"0.2"},{"item_order":[5,2,6,8,4,3,1,12,11,10,7,0,9],"responses":{"Q06":"3","Q03":"4","Q07":"3","Q09":"3","Q05":"4","Q04":"4","Q02":"4","Q13":"4","Q12":"3","Q11":"4","Q08":"4","Q01":"3","Q10":"4"},"radio_events":[7445,10913,17357,18173,22081,25107,27193,30527,36933,37741,39865,42075,44192],"key_events":[],"mouse_events":[7445,10066,10913,14077,16264,17357,18173,22081,25107,27193,30527,34341,36933,37741,39865,42075,44192,44841],"rt":44841,"survey":"ius12","trial_type":"survey-template","trial_index":2,"time_elapsed":211697,"internal_node_id":"0.0-2.0","task_version":"0.2"},{"item_order":[2,1,3,8,0,11,5,16,12,13,15,4,10,7,14,9,6],"responses":{"Q03":"3","Q02":"2","Q04":"2","Q09":"3","Q01":"4","Q12":"2","Q06":"3","Q17":"0","Q13":"2","Q14":"2","Q16":"3","Q05":"2","Q11":"3","Q08":"3","Q15":"1","Q10":"4","Q07":"1"},"radio_events":[42982,45534,47441,51282,59923,63252,70488,72437,75354,81367,83613,87323,93989,95058,98548,100690,103644,105638],"key_events":[],"mouse_events":[42508,42982,45534,47441,50770,51282,59086,59923,63252,65867,70488,72437,75354,81367,83613,86680,87323,93989,95058,98068,98548,100690,103644,105638,106737],"rt":106737,"survey":"pswq","trial_type":"survey-template","trial_index":3,"time_elapsed":318442,"internal_node_id":"0.0-3.0","task_version":"0.2"},{"view_history":"[{\"page_index\":0,\"viewing_time\":8302},{\"page_index\":1,\"viewing_time\":7982},{\"page_index\":2,\"viewing_time\":12770},{\"page_index\":3,\"viewing_time\":75966},{\"page_index\":4,\"viewing_time\":8750},{\"page_index\":5,\"viewing_time\":9761},{\"page_index\":6,\"viewing_time\":30466},{\"page_index\":7,\"viewing_time\":20360},{\"page_index\":8,\"viewing_time\":14372},{\"page_index\":9,\"viewing_time\":34036}]","rt":222765,"trial_type":"instructions","trial_index":4,"time_elapsed":541210,"internal_node_id":"0.0-4.0-0.0","task_version":"0.2"},{"response_times":[3641,2286,925,1037,6510],"keys_pressed":["rightarrow","leftarrow","rightarrow","rightarrow","rightarrow"],"horizon":5,"forced_choices":["rightarrow","leftarrow","rightarrow","rightarrow"],"right_color":"lightblue","left_color":"orange","left_mu":40,"right_mu":20,"left_numbers":[46,44,38,47,39],"right_numbers":[21,11,14,10,15],"points_earned":104,"phase":"practice","trial_type":"horizons-task","trial_index":5,"time_elapsed":557126,"internal_node_id":"0.0-4.0-1.0","task_version":"0.2"},{"response_times":[1549,2272,907,911,4114,1714,1558,902,1068,996],"keys_pressed":["leftarrow","leftarrow","rightarrow","rightarrow","leftarrow","leftarrow","leftarrow","leftarrow","leftarrow","leftarrow"],"horizon":10,"forced_choices":["leftarrow","leftarrow","rightarrow","rightarrow"],"right_color":"orange","left_color":"lightblue","left_mu":60,"right_mu":70,"left_numbers":[77,59,58,65,69,58,53,55,67,72],"right_numbers":[67,75,51,68,64,77,70,66,65,66],"points_earned":629,"phase":"practice","trial_type":"horizons-task","trial_index":6,"time_elapsed":574628,"internal_node_id":"0.0-4.0-2.0","task_version":"0.2"},{"view_history":"[{\"page_index\":0,\"viewing_time\":2053},{\"page_index\":1,\"viewing_time\":5240},{\"page_index\":2,\"viewing_time\":4798},{\"page_index\":3,\"viewing_time\":3873}]","rt":15964,"trial_type":"instructions","trial_index":7,"time_elapsed":590596,"internal_node_id":"0.0-4.0-3.0","task_version":"0.2"},{"responses":["true","false","true"],"num_errors":0,"rt":14815,"trial_type":"horizons-comprehension","trial_index":8,"time_elapsed":605419,"internal_node_id":"0.0-4.0-4.0","task_version":"0.2"},{"trial_type":"call-function","trial_index":9,"time_elapsed":605425,"internal_node_id":"0.0-5.0","task_version":"0.2"},{"view_history":"[{\"page_index\":0,\"viewing_time\":2534},{\"page_index\":1,\"viewing_time\":7858}]","rt":10393,"trial_type":"instructions","trial_index":10,"time_elapsed":615821,"internal_node_id":"0.0-6.0","task_version":"0.2"},{"response_times":[1579,1170,2145,1274,1512,1837,983,1115,616,654],"keys_pressed":["rightarrow","rightarrow","leftarrow","leftarrow","leftarrow","leftarrow","leftarrow","leftarrow","leftarrow","leftarrow"],"horizon":10,"forced_choices":["rightarrow","rightarrow","leftarrow","leftarrow"],"right_color":"orange","left_color":"lightblue","left_mu":40,"right_mu":20,"left_numbers":[55,41,39,35,52,44,65,48,16,35],"right_numbers":[8,9,4,6,24,13,20,13,15,18],"points_earned":351,"phase":"task","trial_type":"horizons-task","trial_index":11,"time_elapsed":630227,"internal_node_id":"0.0-7.0","task_version":"0.2"},{"response_times":[1378,986,861,744,1733,1093,811,685,1065,411],"keys_pressed":["leftarrow","leftarrow","rightarrow","rightarrow","rightarrow","rightarrow","rightarrow","rightarrow","rightarrow","rightarrow"],"horizon":10,"forced_choices":["leftarrow","leftarrow","rightarrow","rightarrow"],"right_color":"lightblue","left_color":"orange","left_mu":60,"right_mu":68,"left_numbers":[57,55,63,50,55,81,38,72,55,65],"right_numbers":[61,68,81,55,64,65,68,74,74,72],"points_earned":665,"phase":"task","trial_type":"horizons-task","trial_index":12,"time_elapsed":641509,"internal_node_id":"0.0-8.0","task_version":"0.2"},{"response_times":[923,726,750,563,1727],"keys_pressed":["leftarrow","leftarrow","rightarrow","rightarrow","leftarrow"],"horizon":5,"forced_choices":["leftarrow","leftarrow","rightarrow","rightarrow"],"right_color":"orange","left_color":"lightblue","left_mu":60,"right_mu":40,"left_numbers":[64,69,53,60,56],"right_numbers":[44,50,39,44,33],"points_earned":272,"phase":"task","trial_type":"horizons-task","trial_index":13,"time_elapsed":647707,"internal_node_id":"0.0-9.0","task_version":"0.2"},{"response_times":[878,735,898,541,1766,859,490,596,1018,548],"keys_pressed":["rightarrow","rightarrow","leftarrow","rightarrow","rightarrow","rightarrow","rightarrow","rightarrow","rightarrow","rightarrow"],"horizon":10,"forced_choices":["rightarrow","rightarrow","leftarrow","rightarrow"],"right_color":"lightblue","left_color":"orange","left_mu":60,"right_mu":56,"left_numbers":[72,55,57,57,58,64,67,62,72,72],"right_numbers":[53,57,61,55,55,60,51,50,62,59],"points_earned":559,"phase":"task","trial_type":"horizons-task","trial_index":14,"time_elapsed":657549,"internal_node_id":"0.0-10.0","task_version":"0.2"},{"response_times":[957,451,937,570,2217],"keys_pressed":["leftarrow","rightarrow","leftarrow","rightarrow","leftarrow"],"horizon":5,"forced_choices":["leftarrow","rightarrow","leftarrow","rightarrow"],"right_color":"lightblue","left_color":"orange","left_mu":40,"right_mu":44,"left_numbers":[42,29,39,48,37],"right_numbers":[36,38,44,36,47],"points_earned":192,"phase":"task","trial_type":"horizons-task","trial_index":15,"time_elapsed":664190,"internal_node_id":"0.0-11.0","task_version":"0.2"},{"response_times":[699,401,673,678,1685,669,421,485,331,412],"keys_pressed":["leftarrow","rightarrow","rightarrow","leftarrow","leftarrow","leftarrow","leftarrow","leftarrow","leftarrow","leftarrow"],"horizon":10,"forced_choices":["leftarrow","rightarrow","rightarrow","leftarrow"],"right_color":"orange","left_color":"lightblue","left_mu":60,"right_mu":48,"left_numbers":[58,55,53,65,40,56,60,55,51,59],"right_numbers":[50,47,38,47,45,46,50,40,43,56],"points_earned":529,"phase":"task","trial_type":"horizons-task","trial_index":16,"time_elapsed":672155,"internal_node_id":"0.0-12.0","task_version":"0.2"},{"response_times":[705,530,636,630,2343,657,403,368,852,757],"keys_pressed":["leftarrow","leftarrow","leftarrow","rightarrow","leftarrow","leftarrow","leftarrow","leftarrow","leftarrow","leftarrow"],"horizon":10,"forced_choices":["leftarrow","leftarrow","leftarrow","rightarrow"],"right_color":"lightblue","left_color":"orange","left_mu":40,"right_mu":60,"left_numbers":[42,43,50,47,37,38,34,38,33,43],"right_numbers":[42,57,62,63,61,53,69,78,51,48],"points_earned":421,"phase":"task","trial_type":"horizons-task","trial_index":17,"time_elapsed":681544,"internal_node_id":"0.0-13.0","task_version":"0.2"},{"response_times":[1638,833,1167,803,1986],"keys_pressed":["rightarrow","leftarrow","leftarrow","rightarrow","rightarrow"],"horizon":5,"forced_choices":["rightarrow","leftarrow","leftarrow","rightarrow"],"right_color":"orange","left_color":"lightblue","left_mu":40,"right_mu":52,"left_numbers":[37,56,33,39,39],"right_numbers":[58,53,50,68,45],"points_earned":260,"phase":"task","trial_type":"horizons-task","trial_index":18,"time_elapsed":689474,"internal_node_id":"0.0-14.0","task_version":"0.2"},{"response_times":[938,451,679,502,5024,538,736,5187,2444,631],"keys_pressed":["leftarrow","rightarrow","leftarrow","rightarrow","rightarrow","rightarrow","rightarrow","leftarrow","rightarrow","leftarrow"],"horizon":10,"forced_choices":["leftarrow","rightarrow","leftarrow","rightarrow"],"right_color":"orange","left_color":"lightblue","left_mu":60,"right_mu":64,"left_numbers":[72,68,56,68,63,46,46,58,63,45],"right_numbers":[60,74,51,68,53,55,55,73,67,51],"points_earned":603,"phase":"task","trial_type":"horizons-task","trial_index":19,"time_elapsed":708113,"internal_node_id":"0.0-15.0","task_version":"0.2"},{"response_times":[1499,1234,888,2160,2832],"keys_pressed":["rightarrow","rightarrow","leftarrow","rightarrow","rightarrow"],"horizon":5,"forced_choices":["rightarrow","rightarrow","leftarrow","rightarrow"],"right_color":"lightblue","left_color":"orange","left_mu":60,"right_mu":56,"left_numbers":[57,63,53,54,66],"right_numbers":[52,56,66,50,54],"points_earned":265,"phase":"task","trial_type":"horizons-task","trial_index":20,"time_elapsed":718235,"internal_node_id":"0.0-16.0","task_version":"0.2"},{"response_times":[809,522,461,2290,2219],"keys_pressed":["rightarrow","rightarrow","leftarrow","leftarrow","rightarrow"],"horizon":5,"forced_choices":["rightarrow","rightarrow","leftarrow","leftarrow"],"right_color":"lightblue","left_color":"orange","left_mu":60,"right_mu":80,"left_numbers":[68,66,59,60,56],"right_numbers":[72,64,81,86,82],"points_earned":337,"phase":"task","trial_type":"horizons-task","trial_index":21,"time_elapsed":726047,"internal_node_id":"0.0-17.0","task_version":"0.2"},{"response_times":[837,370,448,1577,1225],"keys_pressed":["leftarrow","rightarrow","rightarrow","rightarrow","rightarrow"],"horizon":5,"forced_choices":["leftarrow","rightarrow","rightarrow","rightarrow"],"right_color":"lightblue","left_color":"orange","left_mu":60,"right_mu":72,"left_numbers":[52,61,55,64,59],"right_numbers":[79,72,69,83,65],"points_earned":341,"phase":"task","trial_type":"horizons-task","trial_index":22,"time_elapsed":732014,"internal_node_id":"0.0-18.0","task_version":"0.2"},{"response_times":[728,479,446,714,1932],"keys_pressed":["leftarrow","rightarrow","rightarrow","leftarrow","leftarrow"],"horizon":5,"forced_choices":["leftarrow","rightarrow","rightarrow","leftarrow"],"right_color":"orange","left_color":"lightblue","left_mu":60,"right_mu":48,"left_numbers":[53,68,54,52,67],"right_numbers":[47,53,49,64,40],"points_earned":274,"phase":"task","trial_type":"horizons-task","trial_index":23,"time_elapsed":737822,"internal_node_id":"0.0-19.0","task_version":"0.2"},{"response_times":[641,708,368,489,1756],"keys_pressed":["rightarrow","leftarrow","rightarrow","leftarrow","rightarrow"],"horizon":5,"forced_choices":["rightarrow","leftarrow","rightarrow","leftarrow"],"right_color":"lightblue","left_color":"orange","left_mu":60,"right_mu":72,"left_numbers":[76,68,68,70,66],"right_numbers":[72,78,70,85,91],"points_earned":371,"phase":"task","trial_type":"horizons-task","trial_index":24,"time_elapsed":743292,"internal_node_id":"0.0-20.0","task_version":"0.2"},{"response_times":[587,1001,760,753,2022,1772,1212,832,1104,479],"keys_pressed":["rightarrow","leftarrow","leftarrow","rightarrow","leftarrow","leftarrow","leftarrow","leftarrow","rightarrow","leftarrow"],"horizon":10,"forced_choices":["rightarrow","leftarrow","leftarrow","rightarrow"],"right_color":"lightblue","left_color":"orange","left_mu":60,"right_mu":30,"left_numbers":[62,70,64,56,59,60,53,50,74,65],"right_numbers":[26,32,33,18,27,28,22,33,13,27],"points_earned":478,"phase":"task","trial_type":"horizons-task","trial_index":25,"time_elapsed":755321,"internal_node_id":"0.0-21.0","task_version":"0.2"},{"response_times":[562,383,399,510,1160,460,437,329,343,348],"keys_pressed":["rightarrow","leftarrow","rightarrow","leftarrow","rightarrow","rightarrow","rightarrow","rightarrow","rightarrow","rightarrow"],"horizon":10,"forced_choices":["rightarrow","leftarrow","rightarrow","leftarrow"],"right_color":"lightblue","left_color":"orange","left_mu":60,"right_mu":72,"left_numbers":[66,52,50,51,75,74,66,67,58,60],"right_numbers":[75,71,80,74,70,75,66,80,68,70],"points_earned":687,"phase":"task","trial_type":"horizons-task","trial_index":26,"time_elapsed":761761,"internal_node_id":"0.0-22.0","task_version":"0.2"},{"response_times":[572,374,1194,1191,1792],"keys_pressed":["rightarrow","leftarrow","leftarrow","leftarrow","leftarrow"],"horizon":5,"forced_choices":["rightarrow","leftarrow","leftarrow","leftarrow"],"right_color":"orange","left_color":"lightblue","left_mu":40,"right_mu":20,"left_numbers":[56,44,45,29,49],"right_numbers":[17,27,13,10,26],"points_earned":184,"phase":"task","trial_type":"horizons-task","trial_index":27,"time_elapsed":768394,"internal_node_id":"0.0-23.0","task_version":"0.2"},{"response_times":[1280,802,1229,526,1413,896,543,424,487,491],"keys_pressed":["rightarrow","leftarrow","leftarrow","rightarrow","leftarrow","leftarrow","leftarrow","leftarrow","leftarrow","leftarrow"],"horizon":10,"forced_choices":["rightarrow","leftarrow","leftarrow","rightarrow"],"right_color":"lightblue","left_color":"orange","left_mu":60,"right_mu":52,"left_numbers":[57,52,70,54,63,64,69,50,45,74],"right_numbers":[48,52,49,51,57,60,56,42,44,41],"points_earned":586,"phase":"task","trial_type":"horizons-task","trial_index":28,"time_elapsed":777996,"internal_node_id":"0.0-24.0","task_version":"0.2"},{"response_times":[8566,541,633,618,1627,695,645,696,429,469],"keys_pressed":["leftarrow","leftarrow","rightarrow","leftarrow","leftarrow","leftarrow","leftarrow","leftarrow","leftarrow","leftarrow"],"horizon":10,"forced_choices":["leftarrow","leftarrow","rightarrow","leftarrow"],"right_color":"lightblue","left_color":"orange","left_mu":60,"right_mu":30,"left_numbers":[66,65,60,68,70,59,65,56,65,57],"right_numbers":[26,36,28,18,26,25,37,32,41,37],"points_earned":599,"phase":"task","trial_type":"horizons-task","trial_index":29,"time_elapsed":794424,"internal_node_id":"0.0-25.0","task_version":"0.2"},{"response_times":[780,396,434,1399,1360,466,895,400,425,386],"keys_pressed":["rightarrow","leftarrow","leftarrow","leftarrow","rightarrow","leftarrow","rightarrow","leftarrow","leftarrow","leftarrow"],"horizon":10,"forced_choices":["rightarrow","leftarrow","leftarrow","leftarrow"],"right_color":"orange","left_color":"lightblue","left_mu":40,"right_mu":20,"left_numbers":[31,49,37,32,23,29,32,45,49,43],"right_numbers":[25,22,23,26,21,14,21,21,24,23],"points_earned":351,"phase":"task","trial_type":"horizons-task","trial_index":30,"time_elapsed":802876,"internal_node_id":"0.0-26.0","task_version":"0.2"},{"response_times":[778,411,1001,647,540],"keys_pressed":["rightarrow","leftarrow","leftarrow","leftarrow","leftarrow"],"horizon":5,"forced_choices":["rightarrow","leftarrow","leftarrow","leftarrow"],"right_color":"orange","left_color":"lightblue","left_mu":40,"right_mu":10,"left_numbers":[44,25,25,37,36],"right_numbers":[2,19,16,7,11],"points_earned":125,"phase":"task","trial_type":"horizons-task","trial_index":31,"time_elapsed":807761,"internal_node_id":"0.0-27.0","task_version":"0.2"},{"response_times":[637,748,537,684,709,391,245,225,249,204],"keys_pressed":["rightarrow","rightarrow","leftarrow","leftarrow","leftarrow","leftarrow","leftarrow","leftarrow","leftarrow","leftarrow"],"horizon":10,"forced_choices":["rightarrow","rightarrow","leftarrow","leftarrow"],"right_color":"orange","left_color":"lightblue","left_mu":40,"right_mu":10,"left_numbers":[31,51,39,34,45,54,46,34,41,34],"right_numbers":[3,14,9,22,2,24,1,8,14,0],"points_earned":344,"phase":"task","trial_type":"horizons-task","trial_index":32,"time_elapsed":813899,"internal_node_id":"0.0-28.0","task_version":"0.2"},{"response_times":[514,316,232,291,277,561,448,1696,364,301],"keys_pressed":["leftarrow","rightarrow","leftarrow","rightarrow","leftarrow","leftarrow","leftarrow","rightarrow","rightarrow","rightarrow"],"horizon":10,"forced_choices":["leftarrow","rightarrow","leftarrow","rightarrow"],"right_color":"orange","left_color":"lightblue","left_mu":40,"right_mu":70,"left_numbers":[45,50,49,42,41,41,39,35,42,48],"right_numbers":[59,64,72,77,62,68,68,75,70,72],"points_earned":573,"phase":"task","trial_type":"horizons-task","trial_index":33,"time_elapsed":820409,"internal_node_id":"0.0-29.0","task_version":"0.2"},{"response_times":[592,356,405,1061,1218,445,253,653,374,580],"keys_pressed":["leftarrow","rightarrow","leftarrow","leftarrow","leftarrow","leftarrow","leftarrow","rightarrow","leftarrow","leftarrow"],"horizon":10,"forced_choices":["leftarrow","rightarrow","leftarrow","leftarrow"],"right_color":"orange","left_color":"lightblue","left_mu":40,"right_mu":28,"left_numbers":[42,38,37,35,36,28,32,29,51,41],"right_numbers":[32,26,28,32,30,21,25,38,25,21],"points_earned":366,"phase":"task","trial_type":"horizons-task","trial_index":34,"time_elapsed":827855,"internal_node_id":"0.0-30.0","task_version":"0.2"},{"response_times":[559,534,1009,542,866],"keys_pressed":["rightarrow","leftarrow","leftarrow","leftarrow","leftarrow"],"horizon":5,"forced_choices":["rightarrow","leftarrow","leftarrow","leftarrow"],"right_color":"lightblue","left_color":"orange","left_mu":40,"right_mu":32,"left_numbers":[46,41,48,51,51],"right_numbers":[34,19,15,24,44],"points_earned":225,"phase":"task","trial_type":"horizons-task","trial_index":35,"time_elapsed":832873,"internal_node_id":"0.0-31.0","task_version":"0.2"},{"response_times":[607,311,559,550,303,2501,465,339,296,350],"keys_pressed":["rightarrow","leftarrow","leftarrow","rightarrow","leftarrow","rightarrow","rightarrow","rightarrow","rightarrow","rightarrow"],"horizon":10,"forced_choices":["rightarrow","leftarrow","leftarrow","rightarrow"],"right_color":"orange","left_color":"lightblue","left_mu":40,"right_mu":52,"left_numbers":[39,29,39,52,35,34,32,27,35,46],"right_numbers":[43,48,54,56,40,55,50,62,49,42],"points_earned":460,"phase":"task","trial_type":"horizons-task","trial_index":36,"time_elapsed":840658,"internal_node_id":"0.0-32.0","task_version":"0.2"},{"response_times":[619,508,676,680,603],"keys_pressed":["leftarrow","leftarrow","rightarrow","leftarrow","leftarrow"],"horizon":5,"forced_choices":["leftarrow","leftarrow","rightarrow","leftarrow"],"right_color":"orange","left_color":"lightblue","left_mu":60,"right_mu":40,"left_numbers":[60,54,64,52,65],"right_numbers":[38,33,53,30,36],"points_earned":284,"phase":"task","trial_type":"horizons-task","trial_index":37,"time_elapsed":845253,"internal_node_id":"0.0-33.0","task_version":"0.2"},{"response_times":[570,588,782,745,2214,2298,496,345,289,318],"keys_pressed":["leftarrow","leftarrow","rightarrow","leftarrow","rightarrow","rightarrow","rightarrow","rightarrow","rightarrow","rightarrow"],"horizon":10,"forced_choices":["leftarrow","leftarrow","rightarrow","leftarrow"],"right_color":"lightblue","left_color":"orange","left_mu":60,"right_mu":90,"left_numbers":[57,74,64,86,61,62,75,52,44,57],"right_numbers":[80,104,82,112,78,93,89,89,96,83],"points_earned":827,"phase":"task","trial_type":"horizons-task","trial_index":38,"time_elapsed":855407,"internal_node_id":"0.0-34.0","task_version":"0.2"},{"response_times":[521,460,784,965,564],"keys_pressed":["rightarrow","rightarrow","rightarrow","leftarrow","rightarrow"],"horizon":5,"forced_choices":["rightarrow","rightarrow","rightarrow","leftarrow"],"right_color":"orange","left_color":"lightblue","left_mu":60,"right_mu":64,"left_numbers":[66,65,56,50,63],"right_numbers":[62,78,68,47,52],"points_earned":310,"phase":"task","trial_type":"horizons-task","trial_index":39,"time_elapsed":860211,"internal_node_id":"0.0-35.0","task_version":"0.2"},{"response_times":[563,269,590,526,1003,567,331,492,373,382],"keys_pressed":["leftarrow","rightarrow","rightarrow","leftarrow","rightarrow","rightarrow","rightarrow","rightarrow","leftarrow","rightarrow"],"horizon":10,"forced_choices":["leftarrow","rightarrow","rightarrow","leftarrow"],"right_color":"orange","left_color":"lightblue","left_mu":40,"right_mu":36,"left_numbers":[17,41,41,29,42,33,47,43,25,38],"right_numbers":[42,44,32,24,42,22,34,34,40,45],"points_earned":324,"phase":"task","trial_type":"horizons-task","trial_index":40,"time_elapsed":866809,"internal_node_id":"0.0-36.0","task_version":"0.2"},{"response_times":[581,523,765,538,718],"keys_pressed":["leftarrow","rightarrow","leftarrow","rightarrow","rightarrow"],"horizon":5,"forced_choices":["leftarrow","rightarrow","leftarrow","rightarrow"],"right_color":"orange","left_color":"lightblue","left_mu":40,"right_mu":70,"left_numbers":[55,36,53,36,41],"right_numbers":[63,65,66,72,73],"points_earned":318,"phase":"task","trial_type":"horizons-task","trial_index":41,"time_elapsed":871442,"internal_node_id":"0.0-37.0","task_version":"0.2"},{"response_times":[514,334,323,671,758],"keys_pressed":["leftarrow","rightarrow","leftarrow","leftarrow","rightarrow"],"horizon":5,"forced_choices":["leftarrow","rightarrow","leftarrow","leftarrow"],"right_color":"orange","left_color":"lightblue","left_mu":40,"right_mu":48,"left_numbers":[32,32,35,34,39],"right_numbers":[48,56,66,55,46],"points_earned":203,"phase":"task","trial_type":"horizons-task","trial_index":42,"time_elapsed":875551,"internal_node_id":"0.0-38.0","task_version":"0.2"},{"response_times":[503,423,375,992,735],"keys_pressed":["leftarrow","leftarrow","leftarrow","rightarrow","rightarrow"],"horizon":5,"forced_choices":["leftarrow","leftarrow","leftarrow","rightarrow"],"right_color":"lightblue","left_color":"orange","left_mu":40,"right_mu":60,"left_numbers":[45,43,41,41,45],"right_numbers":[75,53,64,55,58],"points_earned":242,"phase":"task","trial_type":"horizons-task","trial_index":43,"time_elapsed":880088,"internal_node_id":"0.0-39.0","task_version":"0.2"},{"response_times":[769,380,439,610,1562,461,252,279,291,279],"keys_pressed":["rightarrow","leftarrow","leftarrow","rightarrow","rightarrow","rightarrow","rightarrow","rightarrow","rightarrow","rightarrow"],"horizon":10,"forced_choices":["rightarrow","leftarrow","leftarrow","rightarrow"],"right_color":"orange","left_color":"lightblue","left_mu":40,"right_mu":48,"left_numbers":[43,43,49,46,64,46,34,34,30,36],"right_numbers":[49,33,49,53,46,53,42,56,52,44],"points_earned":487,"phase":"task","trial_type":"horizons-task","trial_index":44,"time_elapsed":886918,"internal_node_id":"0.0-40.0","task_version":"0.2"},{"response_times":[749,414,710,564,1767],"keys_pressed":["leftarrow","rightarrow","leftarrow","rightarrow","rightarrow"],"horizon":5,"forced_choices":["leftarrow","rightarrow","leftarrow","rightarrow"],"right_color":"lightblue","left_color":"orange","left_mu":40,"right_mu":60,"left_numbers":[48,40,32,38,38],"right_numbers":[50,55,55,46,56],"points_earned":237,"phase":"task","trial_type":"horizons-task","trial_index":45,"time_elapsed":892629,"internal_node_id":"0.0-41.0","task_version":"0.2"},{"response_times":[545,398,428,367,1370,422,215,220,223,305],"keys_pressed":["leftarrow","leftarrow","rightarrow","leftarrow","leftarrow","leftarrow","leftarrow","leftarrow","leftarrow","leftarrow"],"horizon":10,"forced_choices":["leftarrow","leftarrow","rightarrow","leftarrow"],"right_color":"orange","left_color":"lightblue","left_mu":60,"right_mu":40,"left_numbers":[73,59,58,72,78,56,57,59,71,54],"right_numbers":[45,49,37,48,46,44,42,40,28,39],"points_earned":616,"phase":"task","trial_type":"horizons-task","trial_index":46,"time_elapsed":898632,"internal_node_id":"0.0-42.0","task_version":"0.2"},{"response_times":[560,463,359,482,658,375,1937,495,415,363],"keys_pressed":["leftarrow","leftarrow","leftarrow","rightarrow","leftarrow","leftarrow","rightarrow","leftarrow","leftarrow","rightarrow"],"horizon":10,"forced_choices":["leftarrow","leftarrow","leftarrow","rightarrow"],"right_color":"lightblue","left_color":"orange","left_mu":40,"right_mu":44,"left_numbers":[45,51,48,35,36,38,45,38,33,50],"right_numbers":[50,41,35,37,47,49,50,37,42,44],"points_earned":420,"phase":"task","trial_type":"horizons-task","trial_index":47,"time_elapsed":906249,"internal_node_id":"0.0-43.0","task_version":"0.2"},{"response_times":[570,360,545,710,988],"keys_pressed":["leftarrow","leftarrow","rightarrow","leftarrow","leftarrow"],"horizon":5,"forced_choices":["leftarrow","leftarrow","rightarrow","leftarrow"],"right_color":"lightblue","left_color":"orange","left_mu":60,"right_mu":30,"left_numbers":[57,63,66,49,49],"right_numbers":[28,44,33,22,21],"points_earned":251,"phase":"task","trial_type":"horizons-task","trial_index":48,"time_elapsed":910933,"internal_node_id":"0.0-44.0","task_version":"0.2"},{"response_times":[700,555,435,397,1653,588,623,420,526,603],"keys_pressed":["rightarrow","rightarrow","leftarrow","rightarrow","rightarrow","leftarrow","leftarrow","leftarrow","rightarrow","rightarrow"],"horizon":10,"forced_choices":["rightarrow","rightarrow","leftarrow","rightarrow"],"right_color":"orange","left_color":"lightblue","left_mu":40,"right_mu":52,"left_numbers":[39,41,42,40,44,51,51,28,24,40],"right_numbers":[55,45,63,54,40,56,60,48,44,54],"points_earned":464,"phase":"task","trial_type":"horizons-task","trial_index":49,"time_elapsed":918941,"internal_node_id":"0.0-45.0","task_version":"0.2"},{"response_times":[465,380,554,733,1070,497,338,252,331,280],"keys_pressed":["rightarrow","leftarrow","rightarrow","rightarrow","rightarrow","rightarrow","rightarrow","rightarrow","rightarrow","rightarrow"],"horizon":10,"forced_choices":["rightarrow","leftarrow","rightarrow","rightarrow"],"right_color":"orange","left_color":"lightblue","left_mu":40,"right_mu":70,"left_numbers":[41,54,32,52,41,46,44,50,39,44],"right_numbers":[66,65,75,74,74,58,62,62,79,77],"points_earned":681,"phase":"task","trial_type":"horizons-task","trial_index":50,"time_elapsed":925353,"internal_node_id":"0.0-46.0","task_version":"0.2"},{"view_history":"[{\"page_index\":0,\"viewing_time\":47039},{\"page_index\":1,\"viewing_time\":2482}]","rt":49523,"trial_type":"instructions","trial_index":51,"time_elapsed":974878,"internal_node_id":"0.0-47.0","task_version":"0.2"},{"response_times":[1064,443,563,505,1819,665,505,351,337,514],"keys_pressed":["leftarrow","rightarrow","rightarrow","rightarrow","leftarrow","leftarrow","leftarrow","leftarrow","leftarrow","rightarrow"],"horizon":10,"forced_choices":["leftarrow","rightarrow","rightarrow","rightarrow"],"right_color":"orange","left_color":"lightblue","left_mu":40,"right_mu":36,"left_numbers":[37,32,45,34,54,45,50,39,36,22],"right_numbers":[32,39,29,32,37,31,30,44,30,22],"points_earned":383,"phase":"task","trial_type":"horizons-task","trial_index":52,"time_elapsed":983159,"internal_node_id":"0.0-48.0","task_version":"0.2"},{"response_times":[564,415,671,492,1013,1549,370,387,307,341],"keys_pressed":["rightarrow","leftarrow","leftarrow","leftarrow","leftarrow","rightarrow","leftarrow","leftarrow","leftarrow","leftarrow"],"horizon":10,"forced_choices":["rightarrow","leftarrow","leftarrow","leftarrow"],"right_color":"lightblue","left_color":"orange","left_mu":40,"right_mu":32,"left_numbers":[32,59,46,42,28,46,44,44,48,33],"right_numbers":[30,40,34,23,33,23,24,30,34,20],"points_earned":397,"phase":"task","trial_type":"horizons-task","trial_index":53,"time_elapsed":990780,"internal_node_id":"0.0-49.0","task_version":"0.2"},{"response_times":[709,451,784,682,441],"keys_pressed":["rightarrow","rightarrow","leftarrow","leftarrow","leftarrow"],"horizon":5,"forced_choices":["rightarrow","rightarrow","leftarrow","leftarrow"],"right_color":"orange","left_color":"lightblue","left_mu":40,"right_mu":10,"left_numbers":[41,39,40,32,31],"right_numbers":[18,5,16,3,0],"points_earned":126,"phase":"task","trial_type":"horizons-task","trial_index":54,"time_elapsed":995357,"internal_node_id":"0.0-50.0","task_version":"0.2"},{"response_times":[568,710,416,450,604,300,265,210,225,216],"keys_pressed":["rightarrow","leftarrow","leftarrow","leftarrow","leftarrow","leftarrow","leftarrow","leftarrow","leftarrow","leftarrow"],"horizon":10,"forced_choices":["rightarrow","leftarrow","leftarrow","leftarrow"],"right_color":"orange","left_color":"lightblue","left_mu":40,"right_mu":10,"left_numbers":[47,58,27,40,37,29,41,53,29,41],"right_numbers":[11,11,2,0,7,18,5,3,12,11],"points_earned":366,"phase":"task","trial_type":"horizons-task","trial_index":55,"time_elapsed":1000831,"internal_node_id":"0.0-51.0","task_version":"0.2"},{"response_times":[434,687,909,1021,923,401,226,204,291,268],"keys_pressed":["leftarrow","rightarrow","rightarrow","rightarrow","leftarrow","leftarrow","leftarrow","leftarrow","leftarrow","leftarrow"],"horizon":10,"forced_choices":["leftarrow","rightarrow","rightarrow","rightarrow"],"right_color":"lightblue","left_color":"orange","left_mu":60,"right_mu":52,"left_numbers":[79,71,57,60,61,66,64,60,46,46],"right_numbers":[37,55,58,51,46,43,60,36,61,47],"points_earned":586,"phase":"task","trial_type":"horizons-task","trial_index":56,"time_elapsed":1007704,"internal_node_id":"0.0-52.0","task_version":"0.2"},{"response_times":[3363,402,340,551,949],"keys_pressed":["rightarrow","leftarrow","rightarrow","rightarrow","rightarrow"],"horizon":5,"forced_choices":["rightarrow","leftarrow","rightarrow","rightarrow"],"right_color":"lightblue","left_color":"orange","left_mu":60,"right_mu":80,"left_numbers":[63,58,73,37,69],"right_numbers":[76,82,81,58,87],"points_earned":360,"phase":"task","trial_type":"horizons-task","trial_index":57,"time_elapsed":1014824,"internal_node_id":"0.0-53.0","task_version":"0.2"},{"response_times":[555,477,576,437,324,1399,605,455,685,338],"keys_pressed":["rightarrow","rightarrow","rightarrow","leftarrow","rightarrow","rightarrow","leftarrow","rightarrow","rightarrow","leftarrow"],"horizon":10,"forced_choices":["rightarrow","rightarrow","rightarrow","leftarrow"],"right_color":"orange","left_color":"lightblue","left_mu":60,"right_mu":64,"left_numbers":[55,61,60,61,62,63,64,56,52,68],"right_numbers":[68,63,67,56,60,61,68,74,56,65],"points_earned":642,"phase":"task","trial_type":"horizons-task","trial_index":58,"time_elapsed":1022185,"internal_node_id":"0.0-54.0","task_version":"0.2"},{"response_times":[612,437,427,768,1791],"keys_pressed":["rightarrow","leftarrow","rightarrow","leftarrow","rightarrow"],"horizon":5,"forced_choices":["rightarrow","leftarrow","rightarrow","leftarrow"],"right_color":"lightblue","left_color":"orange","left_mu":60,"right_mu":56,"left_numbers":[40,49,65,63,43],"right_numbers":[59,33,54,55,53],"points_earned":278,"phase":"task","trial_type":"horizons-task","trial_index":59,"time_elapsed":1027730,"internal_node_id":"0.0-55.0","task_version":"0.2"},{"response_times":[964,381,559,470,1061,456,330,242,279,329],"keys_pressed":["leftarrow","leftarrow","rightarrow","rightarrow","rightarrow","rightarrow","rightarrow","rightarrow","rightarrow","rightarrow"],"horizon":10,"forced_choices":["leftarrow","leftarrow","rightarrow","rightarrow"],"right_color":"lightblue","left_color":"orange","left_mu":60,"right_mu":90,"left_numbers":[55,53,68,53,66,46,62,56,51,58],"right_numbers":[101,83,78,81,76,87,93,82,102,93],"points_earned":800,"phase":"task","trial_type":"horizons-task","trial_index":60,"time_elapsed":1034309,"internal_node_id":"0.0-56.0","task_version":"0.2"},{"response_times":[611,424,400,432,1392],"keys_pressed":["leftarrow","leftarrow","leftarrow","rightarrow","leftarrow"],"horizon":5,"forced_choices":["leftarrow","leftarrow","leftarrow","rightarrow"],"right_color":"lightblue","left_color":"orange","left_mu":40,"right_mu":44,"left_numbers":[28,49,48,44,53],"right_numbers":[44,31,28,33,52],"points_earned":211,"phase":"task","trial_type":"horizons-task","trial_index":61,"time_elapsed":1039078,"internal_node_id":"0.0-57.0","task_version":"0.2"},{"response_times":[597,495,394,357,1524,550,646,383,386,276],"keys_pressed":["rightarrow","rightarrow","leftarrow","rightarrow","leftarrow","leftarrow","rightarrow","leftarrow","leftarrow","leftarrow"],"horizon":10,"forced_choices":["rightarrow","rightarrow","leftarrow","rightarrow"],"right_color":"orange","left_color":"lightblue","left_mu":60,"right_mu":48,"left_numbers":[72,63,63,63,67,58,55,52,69,50],"right_numbers":[55,61,49,55,43,48,41,29,36,52],"points_earned":571,"phase":"task","trial_type":"horizons-task","trial_index":62,"time_elapsed":1046193,"internal_node_id":"0.0-58.0","task_version":"0.2"},{"response_times":[421,480,419,589,1677],"keys_pressed":["rightarrow","rightarrow","leftarrow","leftarrow","leftarrow"],"horizon":5,"forced_choices":["rightarrow","rightarrow","leftarrow","leftarrow"],"right_color":"orange","left_color":"lightblue","left_mu":40,"right_mu":20,"left_numbers":[48,48,36,28,45],"right_numbers":[15,20,25,12,27],"points_earned":144,"phase":"task","trial_type":"horizons-task","trial_index":63,"time_elapsed":1051286,"internal_node_id":"0.0-59.0","task_version":"0.2"},{"response_times":[541,392,576,586,957],"keys_pressed":["rightarrow","leftarrow","leftarrow","rightarrow","leftarrow"],"horizon":5,"forced_choices":["rightarrow","leftarrow","leftarrow","rightarrow"],"right_color":"lightblue","left_color":"orange","left_mu":60,"right_mu":30,"left_numbers":[53,57,64,61,77],"right_numbers":[35,36,16,21,39],"points_earned":254,"phase":"task","trial_type":"horizons-task","trial_index":64,"time_elapsed":1055843,"internal_node_id":"0.0-60.0","task_version":"0.2"},{"response_times":[394,485,331,698,2309,371,204,221,215,379],"keys_pressed":["rightarrow","leftarrow","rightarrow","rightarrow","rightarrow","rightarrow","rightarrow","rightarrow","rightarrow","rightarrow"],"horizon":10,"forced_choices":["rightarrow","leftarrow","rightarrow","rightarrow"],"right_color":"lightblue","left_color":"orange","left_mu":60,"right_mu":80,"left_numbers":[68,54,51,62,57,73,76,44,65,55],"right_numbers":[52,88,72,78,75,79,89,67,74,76],"points_earned":716,"phase":"task","trial_type":"horizons-task","trial_index":65,"time_elapsed":1062961,"internal_node_id":"0.0-61.0","task_version":"0.2"},{"response_times":[3600,392,523,858,1006,460,540,287,268,488],"keys_pressed":["leftarrow","leftarrow","rightarrow","rightarrow","leftarrow","leftarrow","leftarrow","leftarrow","leftarrow","leftarrow"],"horizon":10,"forced_choices":["leftarrow","leftarrow","rightarrow","rightarrow"],"right_color":"orange","left_color":"lightblue","left_mu":60,"right_mu":40,"left_numbers":[59,54,61,60,57,64,60,53,49,52],"right_numbers":[35,33,53,47,42,42,35,45,34,42],"points_earned":548,"phase":"task","trial_type":"horizons-task","trial_index":66,"time_elapsed":1072893,"internal_node_id":"0.0-62.0","task_version":"0.2"},{"response_times":[651,419,523,443,765],"keys_pressed":["rightarrow","leftarrow","leftarrow","rightarrow","leftarrow"],"horizon":5,"forced_choices":["rightarrow","leftarrow","leftarrow","rightarrow"],"right_color":"orange","left_color":"lightblue","left_mu":40,"right_mu":48,"left_numbers":[43,51,48,42,47],"right_numbers":[47,52,55,46,42],"points_earned":239,"phase":"task","trial_type":"horizons-task","trial_index":67,"time_elapsed":1077203,"internal_node_id":"0.0-63.0","task_version":"0.2"},{"response_times":[787,382,506,833,701,672,381,336,232,278],"keys_pressed":["leftarrow","rightarrow","rightarrow","leftarrow","leftarrow","rightarrow","leftarrow","leftarrow","leftarrow","leftarrow"],"horizon":10,"forced_choices":["leftarrow","rightarrow","rightarrow","leftarrow"],"right_color":"orange","left_color":"lightblue","left_mu":40,"right_mu":28,"left_numbers":[28,35,30,56,37,55,46,46,46,36],"right_numbers":[20,35,30,30,24,17,33,37,17,25],"points_earned":377,"phase":"task","trial_type":"horizons-task","trial_index":68,"time_elapsed":1083820,"internal_node_id":"0.0-64.0","task_version":"0.2"},{"response_times":[633,392,410,952,393],"keys_pressed":["leftarrow","leftarrow","rightarrow","rightarrow","rightarrow"],"horizon":5,"forced_choices":["leftarrow","leftarrow","rightarrow","rightarrow"],"right_color":"lightblue","left_color":"orange","left_mu":60,"right_mu":68,"left_numbers":[65,60,51,61,61],"right_numbers":[53,57,82,64,60],"points_earned":331,"phase":"task","trial_type":"horizons-task","trial_index":69,"time_elapsed":1088112,"internal_node_id":"0.0-65.0","task_version":"0.2"},{"response_times":[724,370,474,661,962],"keys_pressed":["rightarrow","rightarrow","rightarrow","leftarrow","rightarrow"],"horizon":5,"forced_choices":["rightarrow","rightarrow","rightarrow","leftarrow"],"right_color":"lightblue","left_color":"orange","left_mu":60,"right_mu":68,"left_numbers":[65,47,63,60,80],"right_numbers":[71,64,64,71,81],"points_earned":340,"phase":"task","trial_type":"horizons-task","trial_index":70,"time_elapsed":1092812,"internal_node_id":"0.0-66.0","task_version":"0.2"},{"response_times":[446,570,356,535,573],"keys_pressed":["rightarrow","leftarrow","rightarrow","rightarrow","rightarrow"],"horizon":5,"forced_choices":["rightarrow","leftarrow","rightarrow","rightarrow"],"right_color":"orange","left_color":"lightblue","left_mu":40,"right_mu":70,"left_numbers":[54,37,24,38,38],"right_numbers":[81,75,86,76,73],"points_earned":353,"phase":"task","trial_type":"horizons-task","trial_index":71,"time_elapsed":1096799,"internal_node_id":"0.0-67.0","task_version":"0.2"},{"response_times":[376,392,479,532,410,1095,239,166,214,523],"keys_pressed":["rightarrow","rightarrow","leftarrow","leftarrow","rightarrow","rightarrow","rightarrow","rightarrow","rightarrow","rightarrow"],"horizon":10,"forced_choices":["rightarrow","rightarrow","leftarrow","leftarrow"],"right_color":"lightblue","left_color":"orange","left_mu":60,"right_mu":80,"left_numbers":[57,57,62,64,70,70,57,61,50,52],"right_numbers":[81,80,65,74,76,79,68,83,73,85],"points_earned":751,"phase":"task","trial_type":"horizons-task","trial_index":72,"time_elapsed":1102734,"internal_node_id":"0.0-68.0","task_version":"0.2"},{"response_times":[538,428,477,1144,661],"keys_pressed":["leftarrow","rightarrow","rightarrow","leftarrow","leftarrow"],"horizon":5,"forced_choices":["leftarrow","rightarrow","rightarrow","leftarrow"],"right_color":"orange","left_color":"lightblue","left_mu":40,"right_mu":36,"left_numbers":[41,44,56,36,38],"right_numbers":[20,39,17,59,37],"points_earned":171,"phase":"task","trial_type":"horizons-task","trial_index":73,"time_elapsed":1107491,"internal_node_id":"0.0-69.0","task_version":"0.2"},{"response_times":[764,370,462,711,989],"keys_pressed":["leftarrow","rightarrow","rightarrow","rightarrow","leftarrow"],"horizon":5,"forced_choices":["leftarrow","rightarrow","rightarrow","rightarrow"],"right_color":"lightblue","left_color":"orange","left_mu":60,"right_mu":52,"left_numbers":[61,71,64,63,58],"right_numbers":[55,46,49,49,44],"points_earned":263,"phase":"task","trial_type":"horizons-task","trial_index":74,"time_elapsed":1112297,"internal_node_id":"0.0-70.0","task_version":"0.2"},{"response_times":[689,339,479,478,1145,318,230,247,265,443],"keys_pressed":["leftarrow","rightarrow","leftarrow","rightarrow","rightarrow","rightarrow","rightarrow","rightarrow","rightarrow","rightarrow"],"horizon":10,"forced_choices":["leftarrow","rightarrow","leftarrow","rightarrow"],"right_color":"lightblue","left_color":"orange","left_mu":40,"right_mu":60,"left_numbers":[30,32,34,47,25,42,41,38,37,36],"right_numbers":[55,64,54,53,58,46,38,83,53,74],"points_earned":533,"phase":"task","trial_type":"horizons-task","trial_index":75,"time_elapsed":1118437,"internal_node_id":"0.0-71.0","task_version":"0.2"},{"response_times":[604,387,673,1167,1426],"keys_pressed":["leftarrow","rightarrow","leftarrow","leftarrow","leftarrow"],"horizon":5,"forced_choices":["leftarrow","rightarrow","leftarrow","leftarrow"],"right_color":"orange","left_color":"lightblue","left_mu":40,"right_mu":28,"left_numbers":[43,22,43,50,31],"right_numbers":[25,36,22,29,25],"points_earned":203,"phase":"task","trial_type":"horizons-task","trial_index":76,"time_elapsed":1124204,"internal_node_id":"0.0-72.0","task_version":"0.2"},{"response_times":[520,446,616,459,752,2389,579,374,312,391],"keys_pressed":["leftarrow","rightarrow","leftarrow","rightarrow","leftarrow","leftarrow","rightarrow","rightarrow","rightarrow","rightarrow"],"horizon":10,"forced_choices":["leftarrow","rightarrow","leftarrow","rightarrow"],"right_color":"lightblue","left_color":"orange","left_mu":40,"right_mu":44,"left_numbers":[62,41,29,33,31,30,29,49,51,34],"right_numbers":[60,35,47,51,58,37,46,39,26,50],"points_earned":399,"phase":"task","trial_type":"horizons-task","trial_index":77,"time_elapsed":1132551,"internal_node_id":"0.0-73.0","task_version":"0.2"},{"response_times":[685,549,1270,1510,1555],"keys_pressed":["leftarrow","rightarrow","rightarrow","leftarrow","leftarrow"],"horizon":5,"forced_choices":["leftarrow","rightarrow","rightarrow","leftarrow"],"right_color":"orange","left_color":"lightblue","left_mu":40,"right_mu":28,"left_numbers":[56,43,44,53,32],"right_numbers":[29,35,24,17,24],"points_earned":200,"phase":"task","trial_type":"horizons-task","trial_index":78,"time_elapsed":1139628,"internal_node_id":"0.0-74.0","task_version":"0.2"},{"response_times":[1014,396,1916,1239,1059],"keys_pressed":["rightarrow","leftarrow","rightarrow","leftarrow","leftarrow"],"horizon":5,"forced_choices":["rightarrow","leftarrow","rightarrow","leftarrow"],"right_color":"lightblue","left_color":"orange","left_mu":40,"right_mu":32,"left_numbers":[38,44,44,39,42],"right_numbers":[35,35,21,32,30],"points_earned":181,"phase":"task","trial_type":"horizons-task","trial_index":79,"time_elapsed":1146762,"internal_node_id":"0.0-75.0","task_version":"0.2"},{"response_times":[532,714,938,1086,3726],"keys_pressed":["rightarrow","rightarrow","leftarrow","rightarrow","rightarrow"],"horizon":5,"forced_choices":["rightarrow","rightarrow","leftarrow","rightarrow"],"right_color":"orange","left_color":"lightblue","left_mu":40,"right_mu":52,"left_numbers":[35,22,43,41,33],"right_numbers":[50,45,50,51,53],"points_earned":242,"phase":"task","trial_type":"horizons-task","trial_index":80,"time_elapsed":1155266,"internal_node_id":"0.0-76.0","task_version":"0.2"},{"response_times":[594,418,511,504,2542,611,654,705,572,401],"keys_pressed":["leftarrow","rightarrow","leftarrow","leftarrow","rightarrow","rightarrow","leftarrow","leftarrow","rightarrow","rightarrow"],"horizon":10,"forced_choices":["leftarrow","rightarrow","leftarrow","leftarrow"],"right_color":"orange","left_color":"lightblue","left_mu":40,"right_mu":48,"left_numbers":[42,45,26,44,23,34,52,24,50,45],"right_numbers":[42,49,40,45,59,40,48,43,67,53],"points_earned":456,"phase":"task","trial_type":"horizons-task","trial_index":81,"time_elapsed":1164292,"internal_node_id":"0.0-77.0","task_version":"0.2"},{"response_times":[640,569,954,880,1139],"keys_pressed":["rightarrow","leftarrow","leftarrow","rightarrow","leftarrow"],"horizon":5,"forced_choices":["rightarrow","leftarrow","leftarrow","rightarrow"],"right_color":"lightblue","left_color":"orange","left_mu":60,"right_mu":52,"left_numbers":[69,48,53,60,37],"right_numbers":[42,42,53,65,44],"points_earned":245,"phase":"task","trial_type":"horizons-task","trial_index":82,"time_elapsed":1169978,"internal_node_id":"0.0-78.0","task_version":"0.2"},{"response_times":[734,508,428,615,804],"keys_pressed":["leftarrow","rightarrow","leftarrow","rightarrow","leftarrow"],"horizon":5,"forced_choices":["leftarrow","rightarrow","leftarrow","rightarrow"],"right_color":"orange","left_color":"lightblue","left_mu":60,"right_mu":64,"left_numbers":[47,61,71,64,43],"right_numbers":[62,51,71,61,69],"points_earned":273,"phase":"task","trial_type":"horizons-task","trial_index":83,"time_elapsed":1174579,"internal_node_id":"0.0-79.0","task_version":"0.2"},{"response_times":[519,448,894,1005,684],"keys_pressed":["leftarrow","leftarrow","rightarrow","rightarrow","rightarrow"],"horizon":5,"forced_choices":["leftarrow","leftarrow","rightarrow","rightarrow"],"right_color":"lightblue","left_color":"orange","left_mu":60,"right_mu":90,"left_numbers":[57,57,62,47,60],"right_numbers":[86,80,87,92,80],"points_earned":373,"phase":"task","trial_type":"horizons-task","trial_index":84,"time_elapsed":1179636,"internal_node_id":"0.0-80.0","task_version":"0.2"},{"response_times":[472,535,477,503,1370,803,648,344,725,980],"keys_pressed":["rightarrow","leftarrow","rightarrow","leftarrow","rightarrow","rightarrow","rightarrow","leftarrow","rightarrow","leftarrow"],"horizon":10,"forced_choices":["rightarrow","leftarrow","rightarrow","leftarrow"],"right_color":"lightblue","left_color":"orange","left_mu":60,"right_mu":56,"left_numbers":[54,61,54,57,64,60,61,62,69,58],"right_numbers":[63,63,53,57,56,62,65,53,60,52],"points_earned":597,"phase":"task","trial_type":"horizons-task","trial_index":85,"time_elapsed":1188010,"internal_node_id":"0.0-81.0","task_version":"0.2"},{"response_times":[713,394,724,877,634],"keys_pressed":["leftarrow","rightarrow","rightarrow","rightarrow","leftarrow"],"horizon":5,"forced_choices":["leftarrow","rightarrow","rightarrow","rightarrow"],"right_color":"orange","left_color":"lightblue","left_mu":40,"right_mu":36,"left_numbers":[42,44,47,55,44],"right_numbers":[48,40,34,39,33],"points_earned":199,"phase":"task","trial_type":"horizons-task","trial_index":86,"time_elapsed":1192864,"internal_node_id":"0.0-82.0","task_version":"0.2"},{"response_times":[416,418,487,465,1286,469,222,313,363,290],"keys_pressed":["rightarrow","rightarrow","rightarrow","leftarrow","rightarrow","rightarrow","rightarrow","rightarrow","rightarrow","rightarrow"],"horizon":10,"forced_choices":["rightarrow","rightarrow","rightarrow","leftarrow"],"right_color":"lightblue","left_color":"orange","left_mu":60,"right_mu":68,"left_numbers":[63,49,69,54,69,66,70,50,57,56],"right_numbers":[70,68,57,77,78,66,78,79,71,79],"points_earned":700,"phase":"task","trial_type":"horizons-task","trial_index":87,"time_elapsed":1199102,"internal_node_id":"0.0-83.0","task_version":"0.2"},{"response_times":[589,389,528,314,1664],"keys_pressed":["rightarrow","rightarrow","leftarrow","rightarrow","leftarrow"],"horizon":5,"forced_choices":["rightarrow","rightarrow","leftarrow","rightarrow"],"right_color":"orange","left_color":"lightblue","left_mu":60,"right_mu":48,"left_numbers":[58,55,47,65,66],"right_numbers":[48,49,41,38,27],"points_earned":248,"phase":"task","trial_type":"horizons-task","trial_index":88,"time_elapsed":1204090,"internal_node_id":"0.0-84.0","task_version":"0.2"},{"response_times":[471,375,327,413,369,613,964,545,385,504],"keys_pressed":["rightarrow","leftarrow","rightarrow","leftarrow","rightarrow","leftarrow","leftarrow","rightarrow","leftarrow","leftarrow"],"horizon":10,"forced_choices":["rightarrow","leftarrow","rightarrow","leftarrow"],"right_color":"lightblue","left_color":"orange","left_mu":40,"right_mu":32,"left_numbers":[44,49,37,38,28,45,44,51,29,42],"right_numbers":[45,26,38,29,20,39,36,27,41,26],"points_earned":377,"phase":"task","trial_type":"horizons-task","trial_index":89,"time_elapsed":1210564,"internal_node_id":"0.0-85.0","task_version":"0.2"},{"response_times":[590,492,741,1041,886],"keys_pressed":["leftarrow","leftarrow","rightarrow","leftarrow","rightarrow"],"horizon":5,"forced_choices":["leftarrow","leftarrow","rightarrow","leftarrow"],"right_color":"lightblue","left_color":"orange","left_mu":60,"right_mu":90,"left_numbers":[61,71,60,74,44],"right_numbers":[85,99,79,82,92],"points_earned":377,"phase":"task","trial_type":"horizons-task","trial_index":90,"time_elapsed":1215825,"internal_node_id":"0.0-86.0","task_version":"0.2"},{"response_times":[619,326,558,469,1218,583,439,304,343,276],"keys_pressed":["leftarrow","rightarrow","rightarrow","rightarrow","rightarrow","leftarrow","rightarrow","rightarrow","rightarrow","rightarrow"],"horizon":10,"forced_choices":["leftarrow","rightarrow","rightarrow","rightarrow"],"right_color":"lightblue","left_color":"orange","left_mu":60,"right_mu":72,"left_numbers":[70,59,48,69,63,44,66,55,53,65],"right_numbers":[73,77,61,82,63,78,102,76,66,79],"points_earned":720,"phase":"task","trial_type":"horizons-task","trial_index":91,"time_elapsed":1222473,"internal_node_id":"0.0-87.0","task_version":"0.2"},{"rt":17309,"responses":{"age":"32","gender-categorical":"Female","gender-free-response":"","ethnicity":"Not Hispanic or Latino","race":["Black or African American"],"language":"Yes","fluency":"Very well"},"survey":"demographics","trial_type":"survey-demo","trial_index":92,"time_elapsed":1239796,"internal_node_id":"0.0-88.0","task_version":"0.2"},{"rt":57993,"responses":{"difficulty":"5","fun":"5","clarity":"5","strategy":"Analysed both machines points and selected the one i think will pay more","feedback":"No"},"survey":"debrief","trial_type":"survey-debrief","trial_index":93,"time_elapsed":1297794,"internal_node_id":"0.0-89.0","task_version":"0.2","interactions":"[{\"event\":\"focus\",\"trial\":0,\"time\":0},{\"event\":\"blur\",\"trial\":1,\"time\":25272},{\"event\":\"focus\",\"trial\":1,\"time\":39436},{\"event\":\"blur\",\"trial\":3,\"time\":217812},{\"event\":\"focus\",\"trial\":3,\"time\":254059}]"}]