[{"view_history":"[{\"page_index\":0,\"viewing_time\":1792.4800000000687}]","rt":1792.7550000022165,"trial_type":"instructions","trial_index":0,"time_elapsed":1798,"internal_node_id":"0.0-0.0","task_version":"0.2"},{"item_order":[8,13,15,4,11,12,5,7,10,6,3,2,0,1,9,14],"responses":{"Q09":"4","Q14":"0","Q16":"5","Q05":"1","Q12":"5","Q13":"5","Q06":"2","Q08":"4","Q11":"4","Q07":"5","Q04":"1","Q03":"3","Q01":"2","Q02":"1","Q10":"1","Q15":"2"},"radio_events":[7272.619999999733,13144.735000001674,16672.679999999673,22016.739999999118,24756.760000000213,29188.570000002073,32816.70999999915,37664.600000000064,42064.85000000248,45988.40500000006,50320.54500000231,55448.505000000296,63600.38999999961,68484.70000000088,73608.60999999932,85996.6600000007,88252.62500000099],"key_events":[],"mouse_events":[0.06000000212225132,5944.664999999077,6712.670000000799,7272.619999999733,13144.735000001674,16672.679999999673,22016.739999999118,24100.61499999938,24756.760000000213,29188.570000002073,31488.820000002306,31936.635000001843,32544.655000001512,32816.70999999915,37664.600000000064,42064.85000000248,45988.40500000006,49288.65500000029,49936.6200000004,50320.54500000231,54632.73499999923,55240.37999999928,55448.505000000296,63032.65000000101,63600.38999999961,66676.75000000236,67444.59500000085,68484.70000000088,72788.67499999978,73608.60999999932,84728.69999999966,85400.55000000211,85996.6600000007,88252.62500000099,90328.61500000217],"rt":90331.2900000019,"survey":"nfc","trial_type":"survey-template","trial_index":1,"time_elapsed":92133,"internal_node_id":"0.0-1.0","task_version":"0.2"},{"item_order":[8,3,5,6,11,4,12,7,2,10,1,9,0],"responses":{"Q09":"4","Q04":"4","Q06":"2","Q07":"1","Q12":"0","Q05":"4","Q13":"4","Q08":"1","Q03":"1","Q11":"3","Q02":"3","Q10":"2","Q01":"3"},"radio_events":[7886.245000001509,11578.365000001213,18150.424999999814,24186.54500000048,27894.110000001092,32358.27000000063,35698.190000002796,40690.285000000586,44142.37000000139,46634.33000000077,49054.35000000216,51710.220000000845,56150.32000000065,57366.3000000015,57606.22500000318,60826.170000000275],"key_events":[],"mouse_events":[7886.245000001509,11578.365000001213,16594.44000000076,17270.234999999957,17846.215000001393,18150.424999999814,24186.54500000048,26894.400000001042,27894.110000001092,32358.27000000063,35698.190000002796,40690.285000000586,43373.945000003005,43646.230000002106,44142.37000000139,46634.33000000077,47098.01000000152,47482.16500000126,48314.3799999998,48570.270000000164,48842.210000002524,49054.35000000216,51710.220000000845,56150.32000000065,57062.39500000083,57366.3000000015,57606.22500000318,60154.17000000161,60522.53500000006,60826.170000000275,61678.34000000221],"rt":61679.75000000297,"survey":"ius12","trial_type":"survey-template","trial_index":2,"time_elapsed":153816,"internal_node_id":"0.0-2.0","task_version":"0.2"},{"item_order":[9,12,6,0,8,7,11,1,2,4,13,10,16,14,5,15,3],"responses":{"Q10":"4","Q13":"4","Q07":"4","Q01":"3","Q09":"4","Q08":"3","Q12":"2","Q02":"0","Q03":"4","Q05":"2","Q14":"1","Q11":"1","Q17":"0","Q15":"3","Q06":"3","Q16":"4","Q04":"3"},"radio_events":[7019.714999998541,11603.574999997363,13755.699999997887,19655.79499999876,22955.314999999246,26255.59499999872,28263.569999999163,31479.79999999734,41335.74999999837,43811.66499999745,46807.614999997895,50883.55500000034,54211.75999999832,58475.49000000072,60183.56499999936,63067.70499999766,65363.68500000026,69251.70000000071,71779.6699999999],"key_events":[],"mouse_events":[6091.68999999747,6507.904999998573,6763.624999999593,7019.714999998541,10375.769999998738,10943.634999999631,11235.459999999875,11603.574999997363,12603.714999997464,12875.779999998485,13163.779999998951,13755.699999997887,19655.79499999876,22523.7449999986,22955.314999999246,26255.59499999872,27751.860000000306,28263.569999999163,30867.459999997664,31059.70999999772,31479.79999999734,40007.83500000034,40503.655000000435,40919.61000000083,41335.74999999837,43811.66499999745,46311.789999999746,46807.614999997895,50499.61500000063,50883.55500000034,54211.75999999832,57259.8399999988,57995.654999998806,58475.49000000072,60183.56499999936,60695.83000000057,60935.654999997496,61703.629999999976,62471.669999998994,62791.55499999979,63067.70499999766,65363.68500000026,68351.51000000042,69251.70000000071,71779.6699999999,72327.62499999808],"rt":72329.4449999994,"survey":"pswq","trial_type":"survey-template","trial_index":3,"time_elapsed":226148,"internal_node_id":"0.0-3.0","task_version":"0.2"},{"view_history":"[{\"page_index\":0,\"viewing_time\":3744.2549999977928},{\"page_index\":1,\"viewing_time\":3696.029999999155},{\"page_index\":2,\"viewing_time\":8696.070000001782},{\"page_index\":3,\"viewing_time\":18047.890000001644},{\"page_index\":4,\"viewing_time\":3615.974999996979},{\"page_index\":5,\"viewing_time\":2564.089999999851},{\"page_index\":6,\"viewing_time\":4276.010000001406},{\"page_index\":7,\"viewing_time\":7727.924999999232},{\"page_index\":8,\"viewing_time\":5211.855000001378},{\"page_index\":9,\"viewing_time\":10200.189999999595}]","rt":67780.52999999997,"trial_type":"instructions","trial_index":4,"time_elapsed":293929,"internal_node_id":"0.0-4.0-0.0","task_version":"0.2"},{"response_times":[896.820000001695,839.70500000217,967.9099999993923,824.1099999977159,1071.8700000034296],"keys_pressed":["rightarrow","leftarrow","rightarrow","rightarrow","rightarrow"],"horizon":5,"forced_choices":["rightarrow","leftarrow","rightarrow","rightarrow"],"right_color":"lightblue","left_color":"orange","left_mu":40,"right_mu":20,"left_numbers":[53,33,41,30,27],"right_numbers":[25,25,22,19,41],"points_earned":140,"phase":"practice","trial_type":"horizons-task","trial_index":5,"time_elapsed":300038,"internal_node_id":"0.0-4.0-1.0","task_version":"0.2"},{"response_times":[857.4900000021444,840.0599999986007,559.8100000025006,712.0600000016275,1000.1300000003539,671.8349999974016,472.0000000015134,496.0400000018417,2559.935000001162,1240.0049999996554],"keys_pressed":["leftarrow","leftarrow","rightarrow","rightarrow","rightarrow","rightarrow","rightarrow","rightarrow","rightarrow","rightarrow"],"horizon":10,"forced_choices":["leftarrow","leftarrow","rightarrow","rightarrow"],"right_color":"orange","left_color":"lightblue","left_mu":60,"right_mu":70,"left_numbers":[58,57,65,49,56,66,78,54,57,63],"right_numbers":[75,72,73,64,71,66,52,65,83,72],"points_earned":661,"phase":"practice","trial_type":"horizons-task","trial_index":6,"time_elapsed":310950,"internal_node_id":"0.0-4.0-2.0","task_version":"0.2"},{"view_history":"[{\"page_index\":0,\"viewing_time\":1458.279999998922},{\"page_index\":1,\"viewing_time\":2520.039999999397},{\"page_index\":2,\"viewing_time\":7023.940000002796},{\"page_index\":3,\"viewing_time\":4256.024999998801}]","rt":15258.539999998873,"trial_type":"instructions","trial_index":7,"time_elapsed":326209,"internal_node_id":"0.0-4.0-3.0","task_version":"0.2"},{"responses":["true","false","true"],"num_errors":0,"rt":7287.010000000009,"trial_type":"horizons-comprehension","trial_index":8,"time_elapsed":333498,"internal_node_id":"0.0-4.0-4.0","task_version":"0.2"},{"trial_type":"call-function","trial_index":9,"time_elapsed":333500,"internal_node_id":"0.0-5.0","task_version":"0.2"},{"view_history":"[{\"page_index\":0,\"viewing_time\":1240.6149999988265},{\"page_index\":1,\"viewing_time\":2108.250000001106}]","rt":3349.099999999453,"trial_type":"instructions","trial_index":10,"time_elapsed":336849,"internal_node_id":"0.0-6.0","task_version":"0.2"},{"response_times":[908.4750000001513,679.9749999991036,895.7650000011199,728.27000000322,784.0949999990407,583.7249999968335,544.0600000001723,680.0050000019837,488.04000000015367,519.8999999993248],"keys_pressed":["leftarrow","rightarrow","rightarrow","rightarrow","rightarrow","rightarrow","rightarrow","rightarrow","rightarrow","rightarrow"],"horizon":10,"forced_choices":["leftarrow","rightarrow","rightarrow","rightarrow"],"right_color":"lightblue","left_color":"orange","left_mu":60,"right_mu":40,"left_numbers":[54,62,49,51,59,49,65,58,63,61],"right_numbers":[27,33,34,42,21,48,40,44,28,51],"points_earned":395,"phase":"task","trial_type":"horizons-task","trial_index":11,"time_elapsed":345165,"internal_node_id":"0.0-7.0","task_version":"0.2"},{"response_times":[714.1950000004726,392.0449999968987,624.0949999992154,1031.8500000030035,623.9999999997672],"keys_pressed":["leftarrow","rightarrow","leftarrow","leftarrow","rightarrow"],"horizon":5,"forced_choices":["leftarrow","rightarrow","leftarrow","leftarrow"],"right_color":"orange","left_color":"lightblue","left_mu":40,"right_mu":52,"left_numbers":[35,38,34,40,27],"right_numbers":[46,47,42,70,61],"points_earned":217,"phase":"task","trial_type":"horizons-task","trial_index":12,"time_elapsed":350054,"internal_node_id":"0.0-8.0","task_version":"0.2"},{"response_times":[681.7349999982398,576.0000000009313,911.8950000010664,472.03999999695225,656.0050000007614],"keys_pressed":["rightarrow","leftarrow","leftarrow","rightarrow","rightarrow"],"horizon":5,"forced_choices":["rightarrow","leftarrow","leftarrow","rightarrow"],"right_color":"orange","left_color":"lightblue","left_mu":40,"right_mu":28,"left_numbers":[37,35,44,33,21],"right_numbers":[40,27,42,29,45],"points_earned":193,"phase":"task","trial_type":"horizons-task","trial_index":13,"time_elapsed":354854,"internal_node_id":"0.0-9.0","task_version":"0.2"},{"response_times":[754.0249999983935,583.6749999980093,616.2550000008196,431.7350000019651,912.1950000008219,696.0850000032224,639.8899999985588,863.9900000016787,2919.934999998077,1103.9999999993015],"keys_pressed":["leftarrow","leftarrow","rightarrow","rightarrow","leftarrow","leftarrow","leftarrow","rightarrow","leftarrow","rightarrow"],"horizon":10,"forced_choices":["leftarrow","leftarrow","rightarrow","rightarrow"],"right_color":"lightblue","left_color":"orange","left_mu":60,"right_mu":30,"left_numbers":[58,49,42,42,64,66,64,53,44,58],"right_numbers":[24,37,39,38,18,30,38,31,33,32],"points_earned":485,"phase":"task","trial_type":"horizons-task","trial_index":14,"time_elapsed":365878,"internal_node_id":"0.0-10.0","task_version":"0.2"},{"response_times":[593.9650000000256,471.94999999919673,544.1350000000675,559.9499999989639,751.8699999999953,664.0950000000885,567.8449999977602,936.0100000012317,1255.9749999999767,3647.9449999970384],"keys_pressed":["leftarrow","rightarrow","rightarrow","rightarrow","leftarrow","leftarrow","rightarrow","leftarrow","rightarrow","rightarrow"],"horizon":10,"forced_choices":["leftarrow","rightarrow","rightarrow","rightarrow"],"right_color":"orange","left_color":"lightblue","left_mu":40,"right_mu":44,"left_numbers":[49,31,48,46,31,43,46,29,47,41],"right_numbers":[54,47,52,31,55,53,36,43,53,58],"points_earned":429,"phase":"task","trial_type":"horizons-task","trial_index":15,"time_elapsed":377378,"internal_node_id":"0.0-11.0","task_version":"0.2"},{"response_times":[733.3849999995437,1231.8649999979534,2527.7999999998137,1456.1399999983842,591.9149999972433],"keys_pressed":["leftarrow","leftarrow","rightarrow","rightarrow","leftarrow"],"horizon":5,"forced_choices":["leftarrow","leftarrow","rightarrow","rightarrow"],"right_color":"lightblue","left_color":"orange","left_mu":40,"right_mu":20,"left_numbers":[45,39,23,35,42],"right_numbers":[24,21,17,23,21],"points_earned":166,"phase":"task","trial_type":"horizons-task","trial_index":16,"time_elapsed":385421,"internal_node_id":"0.0-12.0","task_version":"0.2"},{"response_times":[762.4499999983818,1544.0049999997136,984.0450000010896,1103.8399999997346,1392.0099999995437,1296.0199999979814,743.9799999992829,1511.9400000002934,3895.6550000002608,3960.4250000010943],"keys_pressed":["rightarrow","rightarrow","leftarrow","leftarrow","leftarrow","leftarrow","rightarrow","rightarrow","rightarrow","rightarrow"],"horizon":10,"forced_choices":["rightarrow","rightarrow","leftarrow","leftarrow"],"right_color":"orange","left_color":"lightblue","left_mu":60,"right_mu":48,"left_numbers":[60,61,64,63,67,67,56,63,53,58],"right_numbers":[46,57,48,59,47,47,72,44,62,50],"points_earned":592,"phase":"task","trial_type":"horizons-task","trial_index":17,"time_elapsed":404117,"internal_node_id":"0.0-13.0","task_version":"0.2"},{"response_times":[1642.100000000908,1160.205000000191,1232.0350000008475,1223.935000001802,2615.7749999983935],"keys_pressed":["rightarrow","leftarrow","leftarrow","rightarrow","leftarrow"],"horizon":5,"forced_choices":["rightarrow","leftarrow","leftarrow","rightarrow"],"right_color":"lightblue","left_color":"orange","left_mu":60,"right_mu":68,"left_numbers":[69,65,60,56,63],"right_numbers":[81,66,57,75,76],"points_earned":344,"phase":"task","trial_type":"horizons-task","trial_index":18,"time_elapsed":413494,"internal_node_id":"0.0-14.0","task_version":"0.2"},{"response_times":[1041.8800000007031,1151.9350000016857,743.7800000006682,607.850000000326,512.3349999994389,1455.6900000025053,1136.2800000024727,1407.9349999992992,687.9149999985821,759.9699999991572],"keys_pressed":["leftarrow","rightarrow","leftarrow","rightarrow","leftarrow","leftarrow","rightarrow","rightarrow","rightarrow","leftarrow"],"horizon":10,"forced_choices":["leftarrow","rightarrow","leftarrow","rightarrow"],"right_color":"orange","left_color":"lightblue","left_mu":40,"right_mu":52,"left_numbers":[44,53,47,21,49,36,45,43,31,50],"right_numbers":[59,55,48,61,51,52,69,60,40,55],"points_earned":511,"phase":"task","trial_type":"horizons-task","trial_index":19,"time_elapsed":424501,"internal_node_id":"0.0-15.0","task_version":"0.2"},{"response_times":[938.1549999997951,607.9900000004563,975.7599999975064,968.1899999995949,1191.9600000000792,1271.6749999999884,1616.374999997788,776.0850000013015,1671.8150000014575,800.054999999702],"keys_pressed":["leftarrow","rightarrow","rightarrow","rightarrow","leftarrow","leftarrow","leftarrow","leftarrow","leftarrow","rightarrow"],"horizon":10,"forced_choices":["leftarrow","rightarrow","rightarrow","rightarrow"],"right_color":"orange","left_color":"lightblue","left_mu":60,"right_mu":52,"left_numbers":[61,70,59,68,51,64,60,70,39,67],"right_numbers":[58,49,53,38,48,51,62,66,47,59],"points_earned":544,"phase":"task","trial_type":"horizons-task","trial_index":20,"time_elapsed":436821,"internal_node_id":"0.0-16.0","task_version":"0.2"},{"response_times":[1250.2449999992969,743.9099999974133,591.854999998759,352.1150000015041,351.95499999827007,703.9800000020186,912.0600000023842,951.7700000032783,680.0899999980466,496.0849999988568],"keys_pressed":["rightarrow","rightarrow","leftarrow","rightarrow","leftarrow","rightarrow","rightarrow","rightarrow","leftarrow","rightarrow"],"horizon":10,"forced_choices":["rightarrow","rightarrow","leftarrow","rightarrow"],"right_color":"orange","left_color":"lightblue","left_mu":40,"right_mu":28,"left_numbers":[37,40,33,39,37,40,32,65,35,42],"right_numbers":[30,24,17,35,22,25,23,16,14,35],"points_earned":293,"phase":"task","trial_type":"horizons-task","trial_index":21,"time_elapsed":445358,"internal_node_id":"0.0-17.0","task_version":"0.2"},{"response_times":[817.9649999983958,735.899999999674,911.9350000000559,832.0850000018254,2319.900000002235],"keys_pressed":["rightarrow","rightarrow","leftarrow","rightarrow","leftarrow"],"horizon":5,"forced_choices":["rightarrow","rightarrow","leftarrow","rightarrow"],"right_color":"orange","left_color":"lightblue","left_mu":40,"right_mu":32,"left_numbers":[53,37,47,36,33],"right_numbers":[32,30,29,38,32],"points_earned":180,"phase":"task","trial_type":"horizons-task","trial_index":22,"time_elapsed":452478,"internal_node_id":"0.0-18.0","task_version":"0.2"},{"response_times":[705.760000000766,1647.6799999982468,1360.4249999989406,1079.8350000004284,783.9999999996508,839.7150000019465,1335.995000001276,848.1249999967986,727.8049999986542,3392.120000000461],"keys_pressed":["rightarrow","rightarrow","rightarrow","leftarrow","leftarrow","leftarrow","leftarrow","leftarrow","rightarrow","rightarrow"],"horizon":10,"forced_choices":["rightarrow","rightarrow","rightarrow","leftarrow"],"right_color":"lightblue","left_color":"orange","left_mu":60,"right_mu":90,"left_numbers":[62,53,65,62,63,79,60,64,64,55],"right_numbers":[88,86,92,90,77,101,95,100,68,96],"points_earned":758,"phase":"task","trial_type":"horizons-task","trial_index":23,"time_elapsed":466702,"internal_node_id":"0.0-19.0","task_version":"0.2"},{"response_times":[657.9549999987939,927.7149999979883,1359.7599999993108,1120.330000001588,3287.974999999278],"keys_pressed":["leftarrow","rightarrow","rightarrow","leftarrow","leftarrow"],"horizon":5,"forced_choices":["leftarrow","rightarrow","rightarrow","leftarrow"],"right_color":"orange","left_color":"lightblue","left_mu":60,"right_mu":80,"left_numbers":[68,62,51,69,64],"right_numbers":[86,94,81,73,81],"points_earned":376,"phase":"task","trial_type":"horizons-task","trial_index":24,"time_elapsed":475558,"internal_node_id":"0.0-20.0","task_version":"0.2"},{"response_times":[694.8050000028452,424.0200000021723,351.60999999789055,960.4249999974854,1535.9300000017975],"keys_pressed":["leftarrow","rightarrow","leftarrow","leftarrow","rightarrow"],"horizon":5,"forced_choices":["leftarrow","rightarrow","leftarrow","leftarrow"],"right_color":"lightblue","left_color":"orange","left_mu":60,"right_mu":30,"left_numbers":[64,49,50,55,56],"right_numbers":[27,16,21,32,16],"points_earned":201,"phase":"task","trial_type":"horizons-task","trial_index":25,"time_elapsed":481030,"internal_node_id":"0.0-21.0","task_version":"0.2"},{"response_times":[985.9150000011432,568.0900000006659,983.8899999995483,679.7799999985145,1280.2599999995437],"keys_pressed":["rightarrow","leftarrow","leftarrow","leftarrow","rightarrow"],"horizon":5,"forced_choices":["rightarrow","leftarrow","leftarrow","leftarrow"],"right_color":"lightblue","left_color":"orange","left_mu":60,"right_mu":72,"left_numbers":[59,72,51,61,59],"right_numbers":[77,73,72,71,74],"points_earned":335,"phase":"task","trial_type":"horizons-task","trial_index":26,"time_elapsed":487040,"internal_node_id":"0.0-22.0","task_version":"0.2"},{"response_times":[735.5100000022212,952.0049999991897,991.9649999974063,831.945000001695,1519.9799999973038],"keys_pressed":["rightarrow","rightarrow","leftarrow","rightarrow","leftarrow"],"horizon":5,"forced_choices":["rightarrow","rightarrow","leftarrow","rightarrow"],"right_color":"orange","left_color":"lightblue","left_mu":40,"right_mu":28,"left_numbers":[38,43,39,37,22],"right_numbers":[31,34,35,19,36],"points_earned":145,"phase":"task","trial_type":"horizons-task","trial_index":27,"time_elapsed":493574,"internal_node_id":"0.0-23.0","task_version":"0.2"},{"response_times":[601.7400000019115,464.1750000009779,391.70000000012806,448.2050000005984,407.71999999921536,664.2350000001607,1072.0250000013039,535.9149999967194,792.1999999998952,911.854999998468],"keys_pressed":["rightarrow","leftarrow","rightarrow","leftarrow","rightarrow","rightarrow","rightarrow","leftarrow","leftarrow","rightarrow"],"horizon":10,"forced_choices":["rightarrow","leftarrow","rightarrow","leftarrow"],"right_color":"orange","left_color":"lightblue","left_mu":60,"right_mu":52,"left_numbers":[60,56,69,56,60,53,69,66,62,57],"right_numbers":[43,49,58,44,50,62,57,65,48,49],"points_earned":559,"phase":"task","trial_type":"horizons-task","trial_index":28,"time_elapsed":501366,"internal_node_id":"0.0-24.0","task_version":"0.2"},{"response_times":[618.5850000001956,663.9399999985471,672.0249999998487,623.9200000017881,439.8000000001048,912.2599999973318,671.8699999983655,855.9850000019651,367.93000000034226,856.0300000026473],"keys_pressed":["rightarrow","rightarrow","leftarrow","rightarrow","leftarrow","leftarrow","rightarrow","rightarrow","leftarrow","rightarrow"],"horizon":10,"forced_choices":["rightarrow","rightarrow","leftarrow","rightarrow"],"right_color":"orange","left_color":"lightblue","left_mu":40,"right_mu":60,"left_numbers":[33,29,29,44,54,50,44,38,20,34],"right_numbers":[62,62,62,56,60,61,61,53,56,54],"points_earned":501,"phase":"task","trial_type":"horizons-task","trial_index":29,"time_elapsed":509550,"internal_node_id":"0.0-25.0","task_version":"0.2"},{"response_times":[1826.3049999987124,335.8200000002398,351.9799999994575,415.94500000064727,280.0000000024447],"keys_pressed":["rightarrow","leftarrow","rightarrow","leftarrow","rightarrow"],"horizon":5,"forced_choices":["rightarrow","leftarrow","rightarrow","leftarrow"],"right_color":"orange","left_color":"lightblue","left_mu":60,"right_mu":52,"left_numbers":[60,59,56,53,66],"right_numbers":[48,49,49,54,43],"points_earned":252,"phase":"task","trial_type":"horizons-task","trial_index":30,"time_elapsed":514261,"internal_node_id":"0.0-26.0","task_version":"0.2"},{"response_times":[738.4400000009919,615.975000000617,552.0250000008964,471.9249999980093,704.0799999994924,1039.9299999990035,1135.8999999975204,1039.9799999977113,560.0449999984121,568.0649999994785],"keys_pressed":["leftarrow","leftarrow","rightarrow","leftarrow","rightarrow","rightarrow","leftarrow","leftarrow","rightarrow","rightarrow"],"horizon":10,"forced_choices":["leftarrow","leftarrow","rightarrow","leftarrow"],"right_color":"orange","left_color":"lightblue","left_mu":60,"right_mu":80,"left_numbers":[62,49,54,67,59,57,57,63,72,62],"right_numbers":[82,80,66,71,92,72,65,63,76,84],"points_earned":688,"phase":"task","trial_type":"horizons-task","trial_index":31,"time_elapsed":523190,"internal_node_id":"0.0-27.0","task_version":"0.2"},{"response_times":[521.5649999991292,304.0099999997765,712.0150000009453,1039.9600000018254,2863.629999999772],"keys_pressed":["leftarrow","rightarrow","rightarrow","rightarrow","leftarrow"],"horizon":5,"forced_choices":["leftarrow","rightarrow","rightarrow","rightarrow"],"right_color":"orange","left_color":"lightblue","left_mu":40,"right_mu":44,"left_numbers":[35,53,44,35,49],"right_numbers":[37,61,36,45,34],"points_earned":226,"phase":"task","trial_type":"horizons-task","trial_index":32,"time_elapsed":530134,"internal_node_id":"0.0-28.0","task_version":"0.2"},{"response_times":[674.2449999982491,927.9999999998836,1575.9450000004144,1567.5899999986868,1616.3700000033714],"keys_pressed":["rightarrow","rightarrow","leftarrow","rightarrow","leftarrow"],"horizon":5,"forced_choices":["rightarrow","rightarrow","leftarrow","rightarrow"],"right_color":"orange","left_color":"lightblue","left_mu":40,"right_mu":60,"left_numbers":[33,24,47,38,45],"right_numbers":[55,48,58,60,73],"points_earned":255,"phase":"task","trial_type":"horizons-task","trial_index":33,"time_elapsed":537997,"internal_node_id":"0.0-29.0","task_version":"0.2"},{"response_times":[1145.990000000922,512.1299999991897,375.59999999939464,896.3200000035577,3184.030000000377],"keys_pressed":["leftarrow","rightarrow","leftarrow","rightarrow","rightarrow"],"horizon":5,"forced_choices":["leftarrow","rightarrow","leftarrow","rightarrow"],"right_color":"orange","left_color":"lightblue","left_mu":40,"right_mu":70,"left_numbers":[35,36,31,40,51],"right_numbers":[59,67,71,77,73],"points_earned":283,"phase":"task","trial_type":"horizons-task","trial_index":34,"time_elapsed":545614,"internal_node_id":"0.0-30.0","task_version":"0.2"},{"response_times":[585.5499999998137,415.90999999968335,400.034999998752,352.1150000016205,2927.944999999483],"keys_pressed":["leftarrow","rightarrow","leftarrow","rightarrow","leftarrow"],"horizon":5,"forced_choices":["leftarrow","rightarrow","leftarrow","rightarrow"],"right_color":"lightblue","left_color":"orange","left_mu":40,"right_mu":10,"left_numbers":[41,27,41,38,45],"right_numbers":[16,8,23,11,25],"points_earned":146,"phase":"task","trial_type":"horizons-task","trial_index":35,"time_elapsed":551797,"internal_node_id":"0.0-31.0","task_version":"0.2"},{"response_times":[666.5499999980675,351.8949999997858,632.0599999999395,383.6400000001304,384.3400000005495,1871.5950000005541,1535.9449999995995,480.3700000011595,575.864999998943,1176.0500000019092],"keys_pressed":["rightarrow","leftarrow","rightarrow","leftarrow","rightarrow","rightarrow","rightarrow","leftarrow","leftarrow","leftarrow"],"horizon":10,"forced_choices":["rightarrow","leftarrow","rightarrow","leftarrow"],"right_color":"orange","left_color":"lightblue","left_mu":40,"right_mu":60,"left_numbers":[48,35,37,31,53,50,53,40,57,38],"right_numbers":[56,59,67,59,72,52,56,61,68,61],"points_earned":504,"phase":"task","trial_type":"horizons-task","trial_index":36,"time_elapsed":561357,"internal_node_id":"0.0-32.0","task_version":"0.2"},{"response_times":[1282.6749999985332,688.095000001369,743.899999997695,1207.95999999973,1743.9899999990594],"keys_pressed":["rightarrow","leftarrow","rightarrow","rightarrow","leftarrow"],"horizon":5,"forced_choices":["rightarrow","leftarrow","rightarrow","rightarrow"],"right_color":"lightblue","left_color":"orange","left_mu":40,"right_mu":10,"left_numbers":[34,44,45,37,47],"right_numbers":[10,17,0,0,12],"points_earned":101,"phase":"task","trial_type":"horizons-task","trial_index":37,"time_elapsed":568526,"internal_node_id":"0.0-33.0","task_version":"0.2"},{"response_times":[697.635000000475,807.779999999213,816.374999998603,511.7950000021374,688.0999999993946,1311.8649999996414,768.0649999965681,968.0300000000279,239.85499999974854,752.1000000014901],"keys_pressed":["rightarrow","rightarrow","leftarrow","rightarrow","leftarrow","leftarrow","leftarrow","leftarrow","rightarrow","leftarrow"],"horizon":10,"forced_choices":["rightarrow","rightarrow","leftarrow","rightarrow"],"right_color":"orange","left_color":"lightblue","left_mu":40,"right_mu":32,"left_numbers":[52,49,36,39,46,32,41,44,41,41],"right_numbers":[16,24,37,22,32,30,37,20,22,24],"points_earned":324,"phase":"task","trial_type":"horizons-task","trial_index":38,"time_elapsed":577592,"internal_node_id":"0.0-34.0","task_version":"0.2"},{"response_times":[639.6700000005076,800.0600000013364,616.3899999993155,519.56499999878,1535.9950000020908,784.195000000298,655.9799999996321,1063.9699999992736,1047.7849999988684,2031.9300000009825],"keys_pressed":["rightarrow","rightarrow","rightarrow","leftarrow","leftarrow","leftarrow","rightarrow","rightarrow","leftarrow","rightarrow"],"horizon":10,"forced_choices":["rightarrow","rightarrow","rightarrow","leftarrow"],"right_color":"orange","left_color":"lightblue","left_mu":60,"right_mu":48,"left_numbers":[62,69,69,59,58,65,71,58,73,50],"right_numbers":[63,41,53,39,49,48,41,49,55,51],"points_earned":553,"phase":"task","trial_type":"horizons-task","trial_index":39,"time_elapsed":588790,"internal_node_id":"0.0-35.0","task_version":"0.2"},{"response_times":[746.3800000004703,719.9849999997532,816.0400000015507,551.9299999977229,2904.0450000029523],"keys_pressed":["rightarrow","leftarrow","leftarrow","rightarrow","rightarrow"],"horizon":5,"forced_choices":["rightarrow","leftarrow","leftarrow","rightarrow"],"right_color":"orange","left_color":"lightblue","left_mu":60,"right_mu":64,"left_numbers":[51,64,62,63,66],"right_numbers":[62,59,61,66,56],"points_earned":310,"phase":"task","trial_type":"horizons-task","trial_index":40,"time_elapsed":596031,"internal_node_id":"0.0-36.0","task_version":"0.2"},{"response_times":[777.4699999972945,423.82999999972526,767.7299999996321,728.2250000025379,1791.7300000007963],"keys_pressed":["leftarrow","rightarrow","rightarrow","rightarrow","leftarrow"],"horizon":5,"forced_choices":["leftarrow","rightarrow","rightarrow","rightarrow"],"right_color":"lightblue","left_color":"orange","left_mu":60,"right_mu":40,"left_numbers":[65,68,52,63,68],"right_numbers":[45,37,40,43,38],"points_earned":253,"phase":"task","trial_type":"horizons-task","trial_index":41,"time_elapsed":602022,"internal_node_id":"0.0-37.0","task_version":"0.2"},{"response_times":[593.6249999976717,688.0500000006286,735.8949999980396,752.0700000022771,1879.9650000000838],"keys_pressed":["rightarrow","rightarrow","rightarrow","leftarrow","leftarrow"],"horizon":5,"forced_choices":["rightarrow","rightarrow","rightarrow","leftarrow"],"right_color":"orange","left_color":"lightblue","left_mu":60,"right_mu":48,"left_numbers":[50,80,59,60,45],"right_numbers":[48,58,39,40,43],"points_earned":250,"phase":"task","trial_type":"horizons-task","trial_index":42,"time_elapsed":608173,"internal_node_id":"0.0-38.0","task_version":"0.2"},{"response_times":[922.4800000011455,959.9449999987846,631.9450000009965,736.0799999987939,991.8900000011781,863.939999999362,3999.9950000019744,1016.0100000029197,1208.0850000020582,599.8899999975692],"keys_pressed":["leftarrow","leftarrow","leftarrow","rightarrow","rightarrow","rightarrow","rightarrow","rightarrow","leftarrow","leftarrow"],"horizon":10,"forced_choices":["leftarrow","leftarrow","leftarrow","rightarrow"],"right_color":"lightblue","left_color":"orange","left_mu":40,"right_mu":48,"left_numbers":[40,48,42,41,33,35,38,37,41,44],"right_numbers":[44,42,48,59,43,48,45,28,51,58],"points_earned":438,"phase":"task","trial_type":"horizons-task","trial_index":43,"time_elapsed":621605,"internal_node_id":"0.0-39.0","task_version":"0.2"},{"response_times":[890.5500000000466,768.0099999997765,791.9350000011036,511.99999999883585,399.9249999978347,1424.0649999992456,287.69999999715947,96.19000000029337,543.724999999511,696.1599999994505],"keys_pressed":["leftarrow","leftarrow","rightarrow","leftarrow","rightarrow","rightarrow","rightarrow","rightarrow","leftarrow","leftarrow"],"horizon":10,"forced_choices":["leftarrow","leftarrow","rightarrow","leftarrow"],"right_color":"lightblue","left_color":"orange","left_mu":40,"right_mu":36,"left_numbers":[42,36,48,46,33,35,47,41,38,46],"right_numbers":[24,47,42,32,24,27,41,37,39,32],"points_earned":379,"phase":"task","trial_type":"horizons-task","trial_index":44,"time_elapsed":629518,"internal_node_id":"0.0-40.0","task_version":"0.2"},{"response_times":[1370.25,535.8150000028545,1063.7699999969918,511.9799999992829,551.7700000018813,1440.3649999985937,704.0100000012899,791.634999997681,632.2299999992829,559.9900000015041],"keys_pressed":["rightarrow","leftarrow","leftarrow","leftarrow","rightarrow","rightarrow","rightarrow","leftarrow","leftarrow","leftarrow"],"horizon":10,"forced_choices":["rightarrow","leftarrow","leftarrow","leftarrow"],"right_color":"lightblue","left_color":"orange","left_mu":60,"right_mu":72,"left_numbers":[61,54,62,65,52,75,55,66,64,56],"right_numbers":[67,70,76,63,64,75,69,65,82,69],"points_earned":642,"phase":"task","trial_type":"horizons-task","trial_index":45,"time_elapsed":639181,"internal_node_id":"0.0-41.0","task_version":"0.2"},{"response_times":[810.1950000018114,687.9599999992643,535.7750000002561,639.9100000016624,1792.090000002645],"keys_pressed":["leftarrow","leftarrow","rightarrow","rightarrow","leftarrow"],"horizon":5,"forced_choices":["leftarrow","leftarrow","rightarrow","rightarrow"],"right_color":"lightblue","left_color":"orange","left_mu":60,"right_mu":30,"left_numbers":[67,65,60,62,57],"right_numbers":[39,49,32,35,22],"points_earned":256,"phase":"task","trial_type":"horizons-task","trial_index":46,"time_elapsed":645150,"internal_node_id":"0.0-42.0","task_version":"0.2"},{"response_times":[641.3149999971502,575.8900000001304,424.06499999924563,543.904999998631,1488.0149999990826,695.9050000004936,616.0249999993248,512.0949999982258,823.7150000022957,824.3099999999395],"keys_pressed":["leftarrow","leftarrow","leftarrow","rightarrow","leftarrow","leftarrow","rightarrow","rightarrow","rightarrow","leftarrow"],"horizon":10,"forced_choices":["leftarrow","leftarrow","leftarrow","rightarrow"],"right_color":"orange","left_color":"lightblue","left_mu":60,"right_mu":64,"left_numbers":[75,58,69,61,50,43,51,54,63,73],"right_numbers":[68,71,74,50,62,58,58,55,56,60],"points_earned":587,"phase":"task","trial_type":"horizons-task","trial_index":47,"time_elapsed":653798,"internal_node_id":"0.0-43.0","task_version":"0.2"},{"response_times":[537.8999999994412,847.9499999994878,903.9799999991665,711.9850000017323,1111.9949999992969],"keys_pressed":["leftarrow","rightarrow","rightarrow","rightarrow","leftarrow"],"horizon":5,"forced_choices":["leftarrow","rightarrow","rightarrow","rightarrow"],"right_color":"orange","left_color":"lightblue","left_mu":60,"right_mu":52,"left_numbers":[67,63,58,72,71],"right_numbers":[60,49,48,59,43],"points_earned":294,"phase":"task","trial_type":"horizons-task","trial_index":48,"time_elapsed":659414,"internal_node_id":"0.0-44.0","task_version":"0.2"},{"response_times":[714.2200000017183,3728.054999999702,1239.8700000011595,935.8100000027334,664.179999999702],"keys_pressed":["rightarrow","leftarrow","rightarrow","leftarrow","rightarrow"],"horizon":5,"forced_choices":["rightarrow","leftarrow","rightarrow","leftarrow"],"right_color":"orange","left_color":"lightblue","left_mu":40,"right_mu":60,"left_numbers":[42,32,40,48,32],"right_numbers":[55,55,46,59,60],"points_earned":241,"phase":"task","trial_type":"horizons-task","trial_index":49,"time_elapsed":668199,"internal_node_id":"0.0-45.0","task_version":"0.2"},{"response_times":[649.0400000002701,359.97499999939464,535.929999998305,704.0699999998324,2663.6450000004843,1480.3650000030175,29656.08500000229,1111.7150000027614,648.0349999984028,1799.9650000019465],"keys_pressed":["rightarrow","leftarrow","leftarrow","rightarrow","rightarrow","leftarrow","leftarrow","rightarrow","leftarrow","leftarrow"],"horizon":10,"forced_choices":["rightarrow","leftarrow","leftarrow","rightarrow"],"right_color":"orange","left_color":"lightblue","left_mu":40,"right_mu":28,"left_numbers":[42,35,37,48,36,38,46,30,46,50],"right_numbers":[26,33,25,25,23,15,18,34,26,18],"points_earned":360,"phase":"task","trial_type":"horizons-task","trial_index":50,"time_elapsed":709310,"internal_node_id":"0.0-46.0","task_version":"0.2"},{"view_history":"[{\"page_index\":0,\"viewing_time\":4238.150000001071},{\"page_index\":1,\"viewing_time\":1795.7500000010477}]","rt":6034.214999999618,"trial_type":"instructions","trial_index":51,"time_elapsed":715345,"internal_node_id":"0.0-47.0","task_version":"0.2"},{"response_times":[595.6550000009593,511.9550000017043,879.9949999992969,999.9850000021979,1599.9449999980861,1055.7799999987474,704.0949999972945,767.8999999989755,1184.209999999497,1191.8299999997253],"keys_pressed":["leftarrow","leftarrow","rightarrow","rightarrow","rightarrow","rightarrow","leftarrow","leftarrow","rightarrow","rightarrow"],"horizon":10,"forced_choices":["leftarrow","leftarrow","rightarrow","rightarrow"],"right_color":"lightblue","left_color":"orange","left_mu":60,"right_mu":72,"left_numbers":[75,63,60,51,72,66,53,55,64,63],"right_numbers":[54,76,61,91,69,64,73,82,77,70],"points_earned":678,"phase":"task","trial_type":"horizons-task","trial_index":52,"time_elapsed":726341,"internal_node_id":"0.0-48.0","task_version":"0.2"},{"response_times":[658.4550000006566,448.00000000023283,1071.859999999986,832.0699999968056,1751.9549999997253],"keys_pressed":["leftarrow","rightarrow","leftarrow","rightarrow","leftarrow"],"horizon":5,"forced_choices":["leftarrow","rightarrow","leftarrow","rightarrow"],"right_color":"lightblue","left_color":"orange","left_mu":60,"right_mu":40,"left_numbers":[50,55,62,55,52],"right_numbers":[44,35,30,49,39],"points_earned":248,"phase":"task","trial_type":"horizons-task","trial_index":53,"time_elapsed":732605,"internal_node_id":"0.0-49.0","task_version":"0.2"},{"response_times":[650.6599999993341,592.0750000004191,831.7999999999302,760.0050000001211,448.0349999977043,1007.7199999977602,768.049999998766,1032.139999999432,616.0449999988778,591.8549999988172],"keys_pressed":["rightarrow","rightarrow","leftarrow","leftarrow","leftarrow","rightarrow","rightarrow","leftarrow","leftarrow","leftarrow"],"horizon":10,"forced_choices":["rightarrow","rightarrow","leftarrow","leftarrow"],"right_color":"lightblue","left_color":"orange","left_mu":60,"right_mu":56,"left_numbers":[58,61,61,62,64,52,65,59,59,54],"right_numbers":[54,25,71,47,61,53,55,62,55,54],"points_earned":546,"phase":"task","trial_type":"horizons-task","trial_index":54,"time_elapsed":741405,"internal_node_id":"0.0-50.0","task_version":"0.2"},{"response_times":[769.9600000013597,719.9550000004238,823.9150000008522,607.944999999716,1856.0099999994272],"keys_pressed":["rightarrow","rightarrow","leftarrow","leftarrow","leftarrow"],"horizon":5,"forced_choices":["rightarrow","rightarrow","leftarrow","leftarrow"],"right_color":"lightblue","left_color":"orange","left_mu":40,"right_mu":36,"left_numbers":[34,42,56,39,60],"right_numbers":[40,22,32,39,26],"points_earned":217,"phase":"task","trial_type":"horizons-task","trial_index":55,"time_elapsed":747685,"internal_node_id":"0.0-51.0","task_version":"0.2"},{"response_times":[794.5650000000605,440.1400000024587,679.7249999981141,536.1000000011409,2527.80999999959],"keys_pressed":["rightarrow","leftarrow","leftarrow","leftarrow","rightarrow"],"horizon":5,"forced_choices":["rightarrow","leftarrow","leftarrow","leftarrow"],"right_color":"orange","left_color":"lightblue","left_mu":40,"right_mu":70,"left_numbers":[43,38,31,40,42],"right_numbers":[72,72,70,75,71],"points_earned":252,"phase":"task","trial_type":"horizons-task","trial_index":56,"time_elapsed":754164,"internal_node_id":"0.0-52.0","task_version":"0.2"},{"response_times":[722.7349999992875,551.6649999991059,608.2900000001537,607.9199999985285,1495.9149999995716],"keys_pressed":["leftarrow","rightarrow","leftarrow","rightarrow","rightarrow"],"horizon":5,"forced_choices":["leftarrow","rightarrow","leftarrow","rightarrow"],"right_color":"orange","left_color":"lightblue","left_mu":40,"right_mu":52,"left_numbers":[39,32,40,41,43],"right_numbers":[52,57,44,44,50],"points_earned":230,"phase":"task","trial_type":"horizons-task","trial_index":57,"time_elapsed":759652,"internal_node_id":"0.0-53.0","task_version":"0.2"},{"response_times":[650.6200000003446,431.88500000175554,687.9449999978533,695.9099999985192,3744.0150000001304],"keys_pressed":["leftarrow","rightarrow","rightarrow","leftarrow","rightarrow"],"horizon":5,"forced_choices":["leftarrow","rightarrow","rightarrow","leftarrow"],"right_color":"orange","left_color":"lightblue","left_mu":40,"right_mu":44,"left_numbers":[34,44,46,34,32],"right_numbers":[41,46,41,47,44],"points_earned":199,"phase":"task","trial_type":"horizons-task","trial_index":58,"time_elapsed":767366,"internal_node_id":"0.0-54.0","task_version":"0.2"},{"response_times":[489.05999999982305,399.98000000196043,392.0549999966752,879.8700000006938,1488.0899999989197,847.9799999985844,1159.9349999995902,472.0100000012899,512.0150000002468,263.8799999986077],"keys_pressed":["leftarrow","rightarrow","leftarrow","leftarrow","leftarrow","leftarrow","rightarrow","rightarrow","leftarrow","leftarrow"],"horizon":10,"forced_choices":["leftarrow","rightarrow","leftarrow","leftarrow"],"right_color":"lightblue","left_color":"orange","left_mu":60,"right_mu":30,"left_numbers":[70,57,58,49,70,68,65,72,66,59],"right_numbers":[44,26,42,32,29,25,36,26,32,36],"points_earned":528,"phase":"task","trial_type":"horizons-task","trial_index":59,"time_elapsed":775773,"internal_node_id":"0.0-55.0","task_version":"0.2"},{"response_times":[874.244999999064,456.04000000085216,663.7550000014016,344.20500000123866,1831.9699999992736],"keys_pressed":["rightarrow","leftarrow","leftarrow","rightarrow","rightarrow"],"horizon":5,"forced_choices":["rightarrow","leftarrow","leftarrow","rightarrow"],"right_color":"lightblue","left_color":"orange","left_mu":40,"right_mu":48,"left_numbers":[44,38,48,39,46],"right_numbers":[41,44,54,52,51],"points_earned":230,"phase":"task","trial_type":"horizons-task","trial_index":60,"time_elapsed":781445,"internal_node_id":"0.0-56.0","task_version":"0.2"},{"response_times":[634.0349999992177,791.8850000023376,1111.9350000008708,624.0399999988731,53176.05000000191],"keys_pressed":["leftarrow","leftarrow","rightarrow","leftarrow","leftarrow"],"horizon":5,"forced_choices":["leftarrow","leftarrow","rightarrow","leftarrow"],"right_color":"orange","left_color":"lightblue","left_mu":60,"right_mu":80,"left_numbers":[56,58,57,57,63],"right_numbers":[89,88,84,78,84],"points_earned":318,"phase":"task","trial_type":"horizons-task","trial_index":61,"time_elapsed":839284,"internal_node_id":"0.0-57.0","task_version":"0.2"},{"response_times":[8730.18999999843,416.1999999996042,527.6850000009872,536.049999998766,1792.055000001681,591.8399999972899,543.9650000006659,1112.0150000023423,1423.9550000020536,824.1500000003725],"keys_pressed":["leftarrow","rightarrow","rightarrow","leftarrow","rightarrow","rightarrow","rightarrow","leftarrow","leftarrow","rightarrow"],"horizon":10,"forced_choices":["leftarrow","rightarrow","rightarrow","leftarrow"],"right_color":"orange","left_color":"lightblue","left_mu":40,"right_mu":44,"left_numbers":[37,49,49,31,36,42,33,49,29,35],"right_numbers":[48,47,53,34,52,53,42,51,48,45],"points_earned":438,"phase":"task","trial_type":"horizons-task","trial_index":62,"time_elapsed":857284,"internal_node_id":"0.0-58.0","task_version":"0.2"},{"response_times":[794.574999999837,352.12999999930616,607.5600000004051,400.19999999995343,2015.9999999995343,607.9700000009034,895.9349999967963,911.9600000012433,799.975000001723,607.9749999990454],"keys_pressed":["leftarrow","rightarrow","rightarrow","leftarrow","rightarrow","rightarrow","rightarrow","rightarrow","rightarrow","rightarrow"],"horizon":10,"forced_choices":["leftarrow","rightarrow","rightarrow","leftarrow"],"right_color":"orange","left_color":"lightblue","left_mu":60,"right_mu":80,"left_numbers":[58,80,57,74,69,51,64,68,66,56],"right_numbers":[85,83,71,80,86,74,80,73,87,87],"points_earned":773,"phase":"task","trial_type":"horizons-task","trial_index":63,"time_elapsed":866780,"internal_node_id":"0.0-59.0","task_version":"0.2"},{"response_times":[698.2700000008335,327.97999999823514,360.0899999983376,343.81500000017695,2232.1349999983795,575.8399999977555,495.6300000012852,912.2650000026915,824.0400000031805,663.7900000023656],"keys_pressed":["rightarrow","leftarrow","rightarrow","leftarrow","leftarrow","leftarrow","rightarrow","rightarrow","leftarrow","rightarrow"],"horizon":10,"forced_choices":["rightarrow","leftarrow","rightarrow","leftarrow"],"right_color":"orange","left_color":"lightblue","left_mu":40,"right_mu":32,"left_numbers":[61,25,25,46,44,38,54,35,46,26],"right_numbers":[36,20,23,30,41,31,39,45,40,28],"points_earned":370,"phase":"task","trial_type":"horizons-task","trial_index":64,"time_elapsed":875716,"internal_node_id":"0.0-60.0","task_version":"0.2"},{"response_times":[721.884999999078,920.0750000018161,464.06999999820255,784.0749999996042,2471.8250000005355],"keys_pressed":["rightarrow","rightarrow","leftarrow","leftarrow","rightarrow"],"horizon":5,"forced_choices":["rightarrow","rightarrow","leftarrow","leftarrow"],"right_color":"lightblue","left_color":"orange","left_mu":60,"right_mu":56,"left_numbers":[55,61,63,60,62],"right_numbers":[57,65,53,52,54],"points_earned":299,"phase":"task","trial_type":"horizons-task","trial_index":65,"time_elapsed":882580,"internal_node_id":"0.0-61.0","task_version":"0.2"},{"response_times":[1185.8700000011595,631.9100000000326,632.3650000012713,951.8600000010338,744.0449999994598],"keys_pressed":["leftarrow","leftarrow","rightarrow","rightarrow","rightarrow"],"horizon":5,"forced_choices":["leftarrow","leftarrow","rightarrow","rightarrow"],"right_color":"lightblue","left_color":"orange","left_mu":60,"right_mu":72,"left_numbers":[58,56,64,68,55],"right_numbers":[70,70,77,72,73],"points_earned":336,"phase":"task","trial_type":"horizons-task","trial_index":66,"time_elapsed":888228,"internal_node_id":"0.0-62.0","task_version":"0.2"},{"response_times":[994.6349999991944,575.7850000009639,368.03000000154134,1095.9199999996927,304.0849999997299,1247.879999998957,952.0599999995902,687.9000000008382,567.994999997667,624.2500000008149],"keys_pressed":["rightarrow","leftarrow","rightarrow","rightarrow","leftarrow","leftarrow","rightarrow","leftarrow","leftarrow","leftarrow"],"horizon":10,"forced_choices":["rightarrow","leftarrow","rightarrow","rightarrow"],"right_color":"lightblue","left_color":"orange","left_mu":40,"right_mu":20,"left_numbers":[29,47,43,36,41,31,40,38,25,43],"right_numbers":[35,16,11,21,12,15,22,29,17,23],"points_earned":314,"phase":"task","trial_type":"horizons-task","trial_index":67,"time_elapsed":897148,"internal_node_id":"0.0-63.0","task_version":"0.2"},{"response_times":[665.46500000183,719.9699999982258,423.74999999813735,720.3100000005215,383.9449999977369,1240.1649999992223,583.7199999986915,351.95499999821186,336.0400000020163,583.9100000011967],"keys_pressed":["rightarrow","rightarrow","leftarrow","leftarrow","rightarrow","rightarrow","rightarrow","leftarrow","leftarrow","rightarrow"],"horizon":10,"forced_choices":["rightarrow","rightarrow","leftarrow","leftarrow"],"right_color":"lightblue","left_color":"orange","left_mu":40,"right_mu":36,"left_numbers":[43,26,42,49,41,27,40,29,45,36],"right_numbers":[43,39,38,42,34,35,48,39,22,42],"points_earned":406,"phase":"task","trial_type":"horizons-task","trial_index":68,"time_elapsed":904660,"internal_node_id":"0.0-64.0","task_version":"0.2"},{"response_times":[1009.9149999987567,799.9499999969266,720.0000000011642,719.7600000000093,648.1349999995437,888.2149999990361,1111.8700000005774,767.9499999977415,575.9650000000838,1159.945000003092],"keys_pressed":["leftarrow","leftarrow","rightarrow","leftarrow","rightarrow","rightarrow","rightarrow","leftarrow","leftarrow","rightarrow"],"horizon":10,"forced_choices":["leftarrow","leftarrow","rightarrow","leftarrow"],"right_color":"lightblue","left_color":"orange","left_mu":60,"right_mu":68,"left_numbers":[56,75,49,56,57,74,54,69,55,66],"right_numbers":[73,62,64,69,84,53,65,61,69,70],"points_earned":647,"phase":"task","trial_type":"horizons-task","trial_index":69,"time_elapsed":914565,"internal_node_id":"0.0-65.0","task_version":"0.2"},{"response_times":[569.1850000002887,335.9199999977136,320.0600000018021,815.9450000021607,463.9499999976251,1935.9299999995856,720.0200000006007,608.0000000002328,920.0549999986542,663.8249999996042],"keys_pressed":["rightarrow","leftarrow","rightarrow","rightarrow","leftarrow","leftarrow","leftarrow","leftarrow","leftarrow","rightarrow"],"horizon":10,"forced_choices":["rightarrow","leftarrow","rightarrow","rightarrow"],"right_color":"lightblue","left_color":"orange","left_mu":40,"right_mu":10,"left_numbers":[38,45,42,45,43,22,32,43,31,33],"right_numbers":[8,4,12,21,18,6,6,19,22,9],"points_earned":266,"phase":"task","trial_type":"horizons-task","trial_index":70,"time_elapsed":923420,"internal_node_id":"0.0-66.0","task_version":"0.2"},{"response_times":[633.8099999993574,360.02499999816064,663.8700000003446,448.0750000003027,1279.984999997425,591.8950000014156,519.9449999999488,968.0300000000279,536.0099999997765,695.8699999995297],"keys_pressed":["leftarrow","rightarrow","rightarrow","leftarrow","rightarrow","rightarrow","rightarrow","leftarrow","rightarrow","rightarrow"],"horizon":10,"forced_choices":["leftarrow","rightarrow","rightarrow","leftarrow"],"right_color":"lightblue","left_color":"orange","left_mu":60,"right_mu":90,"left_numbers":[54,72,62,67,49,66,60,52,64,51],"right_numbers":[89,98,86,102,98,80,67,93,100,90],"points_earned":792,"phase":"task","trial_type":"horizons-task","trial_index":71,"time_elapsed":931620,"internal_node_id":"0.0-67.0","task_version":"0.2"},{"response_times":[641.9500000010012,335.80000000074506,264.01999999873806,91024.29499999923,1263.6550000024727,631.9000000003725,399.9899999980116,679.9800000007963,568.0200000024633,503.94500000041444],"keys_pressed":["leftarrow","rightarrow","leftarrow","rightarrow","rightarrow","leftarrow","leftarrow","leftarrow","leftarrow","rightarrow"],"horizon":10,"forced_choices":["leftarrow","rightarrow","leftarrow","rightarrow"],"right_color":"lightblue","left_color":"orange","left_mu":40,"right_mu":10,"left_numbers":[42,43,32,30,40,44,28,27,24,46],"right_numbers":[0,11,13,0,8,10,21,7,23,14],"points_earned":230,"phase":"task","trial_type":"horizons-task","trial_index":72,"time_elapsed":1029435,"internal_node_id":"0.0-68.0","task_version":"0.2"},{"response_times":[18162.15499999805,367.66999999969266,487.93500000122003,568.2699999997858,1407.9900000032503],"keys_pressed":["rightarrow","leftarrow","leftarrow","leftarrow","leftarrow"],"horizon":5,"forced_choices":["rightarrow","leftarrow","leftarrow","leftarrow"],"right_color":"lightblue","left_color":"orange","left_mu":60,"right_mu":56,"left_numbers":[67,65,72,58,72],"right_numbers":[63,68,35,61,59],"points_earned":330,"phase":"task","trial_type":"horizons-task","trial_index":73,"time_elapsed":1051931,"internal_node_id":"0.0-69.0","task_version":"0.2"},{"response_times":[593.9949999994133,351.8949999997858,320.0100000030361,3615.765000002226,1336.370000001043,663.539999997709,727.9999999990687,552.1950000000652,568.009999999078,584.0050000008196],"keys_pressed":["leftarrow","rightarrow","leftarrow","rightarrow","leftarrow","leftarrow","leftarrow","leftarrow","leftarrow","leftarrow"],"horizon":10,"forced_choices":["leftarrow","rightarrow","leftarrow","rightarrow"],"right_color":"lightblue","left_color":"orange","left_mu":60,"right_mu":40,"left_numbers":[67,61,63,54,59,58,72,68,50,69],"right_numbers":[42,40,30,42,37,48,31,45,36,45],"points_earned":588,"phase":"task","trial_type":"horizons-task","trial_index":74,"time_elapsed":1062747,"internal_node_id":"0.0-70.0","task_version":"0.2"},{"response_times":[489.3000000012107,656.2199999969453,695.9399999976158,1055.9800000009127,783.8250000022817],"keys_pressed":["leftarrow","leftarrow","leftarrow","rightarrow","rightarrow"],"horizon":5,"forced_choices":["leftarrow","leftarrow","leftarrow","rightarrow"],"right_color":"orange","left_color":"lightblue","left_mu":60,"right_mu":64,"left_numbers":[62,51,70,61,61],"right_numbers":[53,63,62,80,57],"points_earned":320,"phase":"task","trial_type":"horizons-task","trial_index":75,"time_elapsed":1067930,"internal_node_id":"0.0-71.0","task_version":"0.2"},{"response_times":[690.7150000005495,575.8050000004005,576.2449999966193,503.7199999971781,1832.0399999974761,1215.994999998482,855.9550000026356,975.894999999553,592.0499999993481,400.02000000094995],"keys_pressed":["rightarrow","leftarrow","leftarrow","rightarrow","leftarrow","leftarrow","rightarrow","rightarrow","rightarrow","leftarrow"],"horizon":10,"forced_choices":["rightarrow","leftarrow","leftarrow","rightarrow"],"right_color":"lightblue","left_color":"orange","left_mu":40,"right_mu":48,"left_numbers":[35,41,45,31,49,37,30,34,28,42],"right_numbers":[45,41,45,51,39,46,52,38,36,61],"points_earned":436,"phase":"task","trial_type":"horizons-task","trial_index":76,"time_elapsed":1077650,"internal_node_id":"0.0-72.0","task_version":"0.2"},{"response_times":[602.4550000003073,480.1149999985937,615.8749999995343,863.6599999989849,2472.2550000005867],"keys_pressed":["rightarrow","leftarrow","rightarrow","rightarrow","rightarrow"],"horizon":5,"forced_choices":["rightarrow","leftarrow","rightarrow","rightarrow"],"right_color":"lightblue","left_color":"orange","left_mu":40,"right_mu":20,"left_numbers":[36,30,37,43,28],"right_numbers":[23,17,25,42,18],"points_earned":138,"phase":"task","trial_type":"horizons-task","trial_index":77,"time_elapsed":1084187,"internal_node_id":"0.0-73.0","task_version":"0.2"},{"response_times":[585.4250000012107,656.2000000011176,1031.7450000003446,2271.9249999972526,1432.2350000001024],"keys_pressed":["rightarrow","rightarrow","leftarrow","leftarrow","leftarrow"],"horizon":5,"forced_choices":["rightarrow","rightarrow","leftarrow","leftarrow"],"right_color":"orange","left_color":"lightblue","left_mu":60,"right_mu":48,"left_numbers":[58,48,49,64,53],"right_numbers":[49,57,39,45,51],"points_earned":272,"phase":"task","trial_type":"horizons-task","trial_index":78,"time_elapsed":1091666,"internal_node_id":"0.0-74.0","task_version":"0.2"},{"response_times":[737.9550000005402,751.7049999986775,544.2250000014901,711.6800000004005,1832.2249999982305],"keys_pressed":["leftarrow","leftarrow","rightarrow","leftarrow","leftarrow"],"horizon":5,"forced_choices":["leftarrow","leftarrow","rightarrow","leftarrow"],"right_color":"lightblue","left_color":"orange","left_mu":40,"right_mu":36,"left_numbers":[44,35,34,32,38],"right_numbers":[45,19,35,36,36],"points_earned":184,"phase":"task","trial_type":"horizons-task","trial_index":79,"time_elapsed":1097747,"internal_node_id":"0.0-75.0","task_version":"0.2"},{"response_times":[913.3549999971874,655.9599999999627,712.0700000014622,1152.0100000014063,895.8899999998976],"keys_pressed":["leftarrow","leftarrow","leftarrow","rightarrow","rightarrow"],"horizon":5,"forced_choices":["leftarrow","leftarrow","leftarrow","rightarrow"],"right_color":"lightblue","left_color":"orange","left_mu":40,"right_mu":48,"left_numbers":[35,36,48,45,38],"right_numbers":[47,65,59,55,44],"points_earned":218,"phase":"task","trial_type":"horizons-task","trial_index":80,"time_elapsed":1103578,"internal_node_id":"0.0-76.0","task_version":"0.2"},{"response_times":[69417.45499999891,472.14499999955297,567.975000001723,479.82499999855645,1695.9599999974016,744.0599999972619,1048.0500000012107,543.9950000001118,719.9049999981653,904.044999999227],"keys_pressed":["rightarrow","leftarrow","leftarrow","leftarrow","leftarrow","leftarrow","leftarrow","leftarrow","leftarrow","leftarrow"],"horizon":10,"forced_choices":["rightarrow","leftarrow","leftarrow","leftarrow"],"right_color":"lightblue","left_color":"orange","left_mu":60,"right_mu":56,"left_numbers":[50,48,52,69,56,63,62,55,56,51],"right_numbers":[60,54,68,63,55,41,48,48,63,59],"points_earned":572,"phase":"task","trial_type":"horizons-task","trial_index":81,"time_elapsed":1181674,"internal_node_id":"0.0-77.0","task_version":"0.2"},{"response_times":[978.8149999985471,384.10499999742024,263.8100000002887,495.989999999525,455.9799999988172,1112.0049999991897,951.8900000003632,592.0199999965262,447.839999997057,536.1300000003539],"keys_pressed":["leftarrow","rightarrow","leftarrow","leftarrow","rightarrow","rightarrow","leftarrow","leftarrow","rightarrow","rightarrow"],"horizon":10,"forced_choices":["leftarrow","rightarrow","leftarrow","leftarrow"],"right_color":"orange","left_color":"lightblue","left_mu":40,"right_mu":52,"left_numbers":[46,40,29,50,42,40,33,42,37,40],"right_numbers":[52,41,51,60,46,36,61,54,62,63],"points_earned":448,"phase":"task","trial_type":"horizons-task","trial_index":82,"time_elapsed":1189394,"internal_node_id":"0.0-78.0","task_version":"0.2"},{"response_times":[650.5900000010151,551.939999997383,576.0650000011083,1207.9300000004005,391.9899999999907],"keys_pressed":["leftarrow","rightarrow","rightarrow","leftarrow","rightarrow"],"horizon":5,"forced_choices":["leftarrow","rightarrow","rightarrow","leftarrow"],"right_color":"lightblue","left_color":"orange","left_mu":60,"right_mu":90,"left_numbers":[63,66,58,65,67],"right_numbers":[93,85,94,88,75],"points_earned":382,"phase":"task","trial_type":"horizons-task","trial_index":83,"time_elapsed":1194275,"internal_node_id":"0.0-79.0","task_version":"0.2"},{"response_times":[1265.8400000000838,568.7099999994971,863.3350000018254,911.9700000011362,711.939999997383],"keys_pressed":["rightarrow","rightarrow","rightarrow","leftarrow","rightarrow"],"horizon":5,"forced_choices":["rightarrow","rightarrow","rightarrow","leftarrow"],"right_color":"lightblue","left_color":"orange","left_mu":60,"right_mu":90,"left_numbers":[68,60,56,60,60],"right_numbers":[84,88,88,90,83],"points_earned":403,"phase":"task","trial_type":"horizons-task","trial_index":84,"time_elapsed":1200098,"internal_node_id":"0.0-80.0","task_version":"0.2"},{"response_times":[722.3050000029616,495.935000002617,608.0150000017602,1167.994999999646,1423.9300000006333,663.9499999983236,1024.1800000001676,695.8250000025146,591.9800000009127,511.9249999988824],"keys_pressed":["rightarrow","leftarrow","leftarrow","rightarrow","rightarrow","rightarrow","leftarrow","leftarrow","rightarrow","rightarrow"],"horizon":10,"forced_choices":["rightarrow","leftarrow","leftarrow","rightarrow"],"right_color":"lightblue","left_color":"orange","left_mu":60,"right_mu":68,"left_numbers":[65,54,46,53,53,48,65,43,73,50],"right_numbers":[68,60,66,71,71,74,59,68,78,71],"points_earned":641,"phase":"task","trial_type":"horizons-task","trial_index":85,"time_elapsed":1209506,"internal_node_id":"0.0-81.0","task_version":"0.2"},{"response_times":[650.0899999991525,512.0049999968614,575.659999998752,456.28500000038184,535.9000000027008,712.0699999979697,520.0250000017695,647.7300000006799,488.1649999988731,600.010000001872],"keys_pressed":["rightarrow","leftarrow","leftarrow","leftarrow","rightarrow","rightarrow","rightarrow","leftarrow","rightarrow","rightarrow"],"horizon":10,"forced_choices":["rightarrow","leftarrow","leftarrow","leftarrow"],"right_color":"orange","left_color":"lightblue","left_mu":40,"right_mu":70,"left_numbers":[45,31,43,31,38,39,38,50,42,29],"right_numbers":[71,80,44,66,62,66,68,66,75,62],"points_earned":559,"phase":"task","trial_type":"horizons-task","trial_index":86,"time_elapsed":1216706,"internal_node_id":"0.0-82.0","task_version":"0.2"},{"response_times":[578.6200000003446,319.96999999694526,327.6800000020303,1088.195000000298,1864.04000000027],"keys_pressed":["rightarrow","leftarrow","rightarrow","leftarrow","rightarrow"],"horizon":5,"forced_choices":["rightarrow","leftarrow","rightarrow","leftarrow"],"right_color":"orange","left_color":"lightblue","left_mu":40,"right_mu":32,"left_numbers":[41,36,26,36,30],"right_numbers":[44,40,24,40,30],"points_earned":170,"phase":"task","trial_type":"horizons-task","trial_index":87,"time_elapsed":1222387,"internal_node_id":"0.0-83.0","task_version":"0.2"},{"response_times":[641.9900000002235,551.9150000000373,704.000000001397,1175.9750000019558,2287.994999998715],"keys_pressed":["leftarrow","leftarrow","rightarrow","leftarrow","rightarrow"],"horizon":5,"forced_choices":["leftarrow","leftarrow","rightarrow","leftarrow"],"right_color":"lightblue","left_color":"orange","left_mu":60,"right_mu":68,"left_numbers":[49,56,49,48,56],"right_numbers":[71,58,58,77,67],"points_earned":278,"phase":"task","trial_type":"horizons-task","trial_index":88,"time_elapsed":1229250,"internal_node_id":"0.0-84.0","task_version":"0.2"},{"response_times":[578.9900000018533,303.63499999651685,536.3449999969453,487.8850000023376,1400.1349999997765,647.8300000017043,583.7150000007823,240.2699999983888,567.6999999997206,1215.8749999981374],"keys_pressed":["rightarrow","leftarrow","leftarrow","rightarrow","leftarrow","leftarrow","leftarrow","rightarrow","rightarrow","rightarrow"],"horizon":10,"forced_choices":["rightarrow","leftarrow","leftarrow","rightarrow"],"right_color":"orange","left_color":"lightblue","left_mu":60,"right_mu":64,"left_numbers":[63,67,65,81,58,59,52,63,67,56],"right_numbers":[64,68,55,64,37,57,68,71,67,68],"points_earned":635,"phase":"task","trial_type":"horizons-task","trial_index":89,"time_elapsed":1237313,"internal_node_id":"0.0-85.0","task_version":"0.2"},{"response_times":[794.9000000008382,463.7800000018906,528.044999999227,655.7900000007357,528.214999998454,2087.9150000000373,383.9449999977369,352.00500000058673,639.9600000004284,776.0049999996554],"keys_pressed":["leftarrow","leftarrow","rightarrow","rightarrow","leftarrow","rightarrow","leftarrow","leftarrow","rightarrow","leftarrow"],"horizon":10,"forced_choices":["leftarrow","leftarrow","rightarrow","rightarrow"],"right_color":"lightblue","left_color":"orange","left_mu":40,"right_mu":20,"left_numbers":[45,39,31,46,35,38,26,39,47,40],"right_numbers":[38,21,20,5,25,32,14,16,14,21],"points_earned":295,"phase":"task","trial_type":"horizons-task","trial_index":90,"time_elapsed":1246026,"internal_node_id":"0.0-86.0","task_version":"0.2"},{"response_times":[442.13000000291504,599.855000000447,256.0200000007171,575.8999999999069,1376.059999998659,2471.9799999983516,447.8349999990314,424.01999999862164,519.66999999783,304.3550000002142],"keys_pressed":["leftarrow","rightarrow","leftarrow","rightarrow","rightarrow","rightarrow","rightarrow","rightarrow","rightarrow","rightarrow"],"horizon":10,"forced_choices":["leftarrow","rightarrow","leftarrow","rightarrow"],"right_color":"orange","left_color":"lightblue","left_mu":40,"right_mu":70,"left_numbers":[40,38,41,45,26,43,42,42,45,32],"right_numbers":[77,66,75,68,74,73,63,50,71,84],"points_earned":630,"phase":"task","trial_type":"horizons-task","trial_index":91,"time_elapsed":1254946,"internal_node_id":"0.0-87.0","task_version":"0.2"},{"rt":14478.699999999488,"responses":{"age":"28","gender-categorical":"Female","gender-free-response":"","ethnicity":"Not Hispanic or Latino","race":["White"],"language":"Yes","fluency":"Very well"},"survey":"demographics","trial_type":"survey-demo","trial_index":92,"time_elapsed":1269427,"internal_node_id":"0.0-88.0","task_version":"0.2"},{"rt":17233.964999999385,"responses":{"difficulty":"4","fun":"2","clarity":"2","strategy":"","feedback":""},"survey":"debrief","trial_type":"survey-debrief","trial_index":93,"time_elapsed":1286662,"internal_node_id":"0.0-89.0","task_version":"0.2","interactions":"[{\"event\":\"blur\",\"trial\":61,\"time\":787171},{\"event\":\"focus\",\"trial\":61,\"time\":836340},{\"event\":\"blur\",\"trial\":72,\"time\":934550},{\"event\":\"focus\",\"trial\":72,\"time\":1023222},{\"event\":\"blur\",\"trial\":73,\"time\":1030092},{\"event\":\"focus\",\"trial\":73,\"time\":1046617},{\"event\":\"blur\",\"trial\":80,\"time\":1103100},{\"event\":\"focus\",\"trial\":81,\"time\":1172410}]"}]