[{"view_history":"[{\"page_index\":0,\"viewing_time\":2202}]","rt":2202,"trial_type":"instructions","trial_index":0,"time_elapsed":2224,"internal_node_id":"0.0-0.0","task_version":"0.2"},{"item_order":[16,15,3,4,6,5,8,1,2,14,10,9,11,12,13,7,0],"responses":{"Q17":"1","Q16":"3","Q04":"3","Q05":"4","Q07":"3","Q06":"3","Q09":"4","Q02":"3","Q03":"4","Q15":"3","Q11":"4","Q10":"4","Q12":"4","Q13":"3","Q14":"3","Q08":"3","Q01":"4"},"radio_events":[12420,14911,17504,21346,23598,25810,29084,32300,38138.00000000001,40712,50574.00000000001,53883,55865,60158.00000000001,62358,65666,73368],"key_events":[],"mouse_events":[0,11229,12420,14911,17504,20856,21346,23136,23598,25810,29084,32300,38138.00000000001,40712,50574.00000000001,53883,55865,60158.00000000001,62358,65666,73368,77449],"rt":77463,"survey":"pswq","trial_type":"survey-template","trial_index":1,"time_elapsed":79693,"internal_node_id":"0.0-1.0","task_version":"0.2"},{"item_order":[2,13,9,8,15,14,0,4,3,12,1,11,5,6,7,10],"responses":{"Q03":"4","Q14":"1","Q10":"4","Q09":"4","Q16":"5","Q15":"4","Q01":"4","Q05":"2","Q04":"4","Q13":"5","Q02":"2","Q12":"4","Q06":"4","Q07":"5","Q08":"3","Q11":"4"},"radio_events":[38682,40974,42438,43952.000000000015,51126,62600,81261,87383,91524,94144.00000000003,96490,100448.00000000003,107584,114370,117158,123652,128934,135952,140494,144750,149984.00000000003],"key_events":[],"mouse_events":[19616.000000000015,20332,20725,21530,22862,26877,32236,32696,32858,33042,33785,34301,34790,35096,35386,35612,35863.000000000015,36120,37988.000000000015,38682,40974,41872.000000000015,42438,43952.000000000015,49523,50324,51126,60698.00000000003,61278,61746,62164,62600,75696,76760,77186.00000000003,77832,78112,78580,79129,81261,87383,91524,94144.00000000003,96490,100448.00000000003,107584,114370,117158,123652,128934,135952,140494,144750,149154,149984.00000000003,150932],"rt":150945,"survey":"nfc","trial_type":"survey-template","trial_index":2,"time_elapsed":230643,"internal_node_id":"0.0-2.0","task_version":"0.2"},{"item_order":[10,12,9,7,5,1,4,11,0,8,3,2,6],"responses":{"Q11":"3","Q13":"4","Q10":"4","Q08":"3","Q06":"3","Q02":"4","Q05":"3","Q12":"3","Q01":"3","Q09":"3","Q04":"3","Q03":"2","Q07":"4"},"radio_events":[6412,10114,15328,21708,25814,28345,30932,34328,38638,41192.00000000006,44670,52180.00000000006,55670],"key_events":[],"mouse_events":[6412,10114,15328,21708,25814,28345,30932,34328,38638,40756,41192.00000000006,44670,50996,52180.00000000006,55357,55670,56314],"rt":56321,"survey":"ius12","trial_type":"survey-template","trial_index":3,"time_elapsed":286967,"internal_node_id":"0.0-3.0","task_version":"0.2"},{"view_history":"[{\"page_index\":0,\"viewing_time\":3561},{\"page_index\":1,\"viewing_time\":8340},{\"page_index\":2,\"viewing_time\":7069.000000000058},{\"page_index\":3,\"viewing_time\":7200.999999999942},{\"page_index\":4,\"viewing_time\":6351},{\"page_index\":5,\"viewing_time\":5313},{\"page_index\":6,\"viewing_time\":5959},{\"page_index\":7,\"viewing_time\":9616.000000000058},{\"page_index\":8,\"viewing_time\":4623.999999999942},{\"page_index\":9,\"viewing_time\":8297}]","rt":66331,"trial_type":"instructions","trial_index":4,"time_elapsed":353300,"internal_node_id":"0.0-4.0-0.0","task_version":"0.2"},{"response_times":[1252,1456.0000000000582,2231.999999999942,2264,2624],"keys_pressed":["rightarrow","leftarrow","rightarrow","rightarrow","rightarrow"],"horizon":5,"forced_choices":["rightarrow","leftarrow","rightarrow","rightarrow"],"right_color":"lightblue","left_color":"orange","left_mu":40,"right_mu":20,"left_numbers":[39,39,29,42,32],"right_numbers":[26,16,21,28,24],"points_earned":138,"phase":"practice","trial_type":"horizons-task","trial_index":5,"time_elapsed":364633,"internal_node_id":"0.0-4.0-1.0","task_version":"0.2"},{"response_times":[2017,920,872,896,2712,1616,1448,1304,720,584],"keys_pressed":["leftarrow","leftarrow","rightarrow","rightarrow","rightarrow","rightarrow","rightarrow","rightarrow","rightarrow","rightarrow"],"horizon":10,"forced_choices":["leftarrow","leftarrow","rightarrow","rightarrow"],"right_color":"orange","left_color":"lightblue","left_mu":60,"right_mu":70,"left_numbers":[62,57,54,59,67,65,64,55,62,57],"right_numbers":[78,59,67,72,64,59,75,71,67,74],"points_earned":668,"phase":"practice","trial_type":"horizons-task","trial_index":6,"time_elapsed":379225,"internal_node_id":"0.0-4.0-2.0","task_version":"0.2"},{"view_history":"[{\"page_index\":0,\"viewing_time\":2202},{\"page_index\":1,\"viewing_time\":4175.999999999942},{\"page_index\":2,\"viewing_time\":2672},{\"page_index\":3,\"viewing_time\":2976}]","rt":12026.999999999942,"trial_type":"instructions","trial_index":7,"time_elapsed":391251,"internal_node_id":"0.0-4.0-3.0","task_version":"0.2"},{"responses":["true","false","true"],"num_errors":0,"rt":12238,"trial_type":"horizons-comprehension","trial_index":8,"time_elapsed":403492,"internal_node_id":"0.0-4.0-4.0","task_version":"0.2"},{"trial_type":"call-function","trial_index":9,"time_elapsed":403495,"internal_node_id":"0.0-5.0","task_version":"0.2"},{"view_history":"[{\"page_index\":0,\"viewing_time\":1796},{\"page_index\":1,\"viewing_time\":3744.000000000058}]","rt":5541,"trial_type":"instructions","trial_index":10,"time_elapsed":409035,"internal_node_id":"0.0-6.0","task_version":"0.2"},{"response_times":[947,935.9999999999418,784,1192,3047,2824,3128,968.0000000000582,591.9999999999418,528.0000000000582],"keys_pressed":["leftarrow","rightarrow","leftarrow","leftarrow","rightarrow","leftarrow","rightarrow","rightarrow","rightarrow","rightarrow"],"horizon":10,"forced_choices":["leftarrow","rightarrow","leftarrow","leftarrow"],"right_color":"orange","left_color":"lightblue","left_mu":40,"right_mu":52,"left_numbers":[53,47,25,39,34,32,28,43,44,44],"right_numbers":[46,50,52,42,35,43,55,52,64,46],"points_earned":451,"phase":"task","trial_type":"horizons-task","trial_index":11,"time_elapsed":425489,"internal_node_id":"0.0-7.0","task_version":"0.2"},{"response_times":[1401.0000000000582,1175.9999999999418,3361,1135,4976],"keys_pressed":["leftarrow","leftarrow","rightarrow","leftarrow","leftarrow"],"horizon":5,"forced_choices":["leftarrow","leftarrow","rightarrow","leftarrow"],"right_color":"orange","left_color":"lightblue","left_mu":40,"right_mu":32,"left_numbers":[55,33,42,34,45],"right_numbers":[11,25,28,35,32],"points_earned":195,"phase":"task","trial_type":"horizons-task","trial_index":12,"time_elapsed":439040,"internal_node_id":"0.0-8.0","task_version":"0.2"},{"response_times":[1017.0000000000582,1871.9999999999418,1368,776,1560,1584,816.0000000000582,1215.9999999999418,768,480.0000000000582],"keys_pressed":["leftarrow","leftarrow","rightarrow","rightarrow","leftarrow","leftarrow","rightarrow","rightarrow","leftarrow","leftarrow"],"horizon":10,"forced_choices":["leftarrow","leftarrow","rightarrow","rightarrow"],"right_color":"lightblue","left_color":"orange","left_mu":40,"right_mu":20,"left_numbers":[26,29,33,36,39,40,42,42,43,42],"right_numbers":[24,25,12,11,30,35,22,14,33,16],"points_earned":278,"phase":"task","trial_type":"horizons-task","trial_index":13,"time_elapsed":452000,"internal_node_id":"0.0-9.0","task_version":"0.2"},{"response_times":[833,1000,1191,1368,1248],"keys_pressed":["rightarrow","leftarrow","leftarrow","rightarrow","rightarrow"],"horizon":5,"forced_choices":["rightarrow","leftarrow","leftarrow","rightarrow"],"right_color":"lightblue","left_color":"orange","left_mu":60,"right_mu":68,"left_numbers":[50,51,58,63,48],"right_numbers":[62,79,64,71,76],"points_earned":318,"phase":"task","trial_type":"horizons-task","trial_index":14,"time_elapsed":459144,"internal_node_id":"0.0-10.0","task_version":"0.2"},{"response_times":[1286.9999999999418,1248,344,584,3536],"keys_pressed":["rightarrow","rightarrow","leftarrow","rightarrow","rightarrow"],"horizon":5,"forced_choices":["rightarrow","rightarrow","leftarrow","rightarrow"],"right_color":"lightblue","left_color":"orange","left_mu":40,"right_mu":28,"left_numbers":[26,40,34,40,37],"right_numbers":[29,36,25,24,36],"points_earned":159,"phase":"task","trial_type":"horizons-task","trial_index":15,"time_elapsed":467649,"internal_node_id":"0.0-11.0","task_version":"0.2"},{"response_times":[752.0000000000582,887,400,416,5584,840,1472,680,1672.0000000000582,1103.9999999999418],"keys_pressed":["rightarrow","leftarrow","rightarrow","leftarrow","rightarrow","rightarrow","rightarrow","rightarrow","rightarrow","rightarrow"],"horizon":10,"forced_choices":["rightarrow","leftarrow","rightarrow","leftarrow"],"right_color":"orange","left_color":"lightblue","left_mu":40,"right_mu":44,"left_numbers":[41,32,42,36,46,44,40,40,47,44],"right_numbers":[45,39,34,53,51,37,52,35,35,29],"points_earned":386,"phase":"task","trial_type":"horizons-task","trial_index":16,"time_elapsed":482961,"internal_node_id":"0.0-12.0","task_version":"0.2"},{"response_times":[1580,532,1320,1160,664],"keys_pressed":["leftarrow","rightarrow","rightarrow","leftarrow","rightarrow"],"horizon":5,"forced_choices":["leftarrow","rightarrow","rightarrow","leftarrow"],"right_color":"orange","left_color":"lightblue","left_mu":60,"right_mu":80,"left_numbers":[54,66,56,63,63],"right_numbers":[80,81,92,77,85],"points_earned":375,"phase":"task","trial_type":"horizons-task","trial_index":17,"time_elapsed":489721,"internal_node_id":"0.0-13.0","task_version":"0.2"},{"response_times":[511,584,1080,512,2968.000000000058],"keys_pressed":["leftarrow","leftarrow","leftarrow","rightarrow","rightarrow"],"horizon":5,"forced_choices":["leftarrow","leftarrow","leftarrow","rightarrow"],"right_color":"lightblue","left_color":"orange","left_mu":40,"right_mu":70,"left_numbers":[42,44,41,40,42],"right_numbers":[56,70,73,65,72],"points_earned":264,"phase":"task","trial_type":"horizons-task","trial_index":18,"time_elapsed":496881,"internal_node_id":"0.0-14.0","task_version":"0.2"},{"response_times":[568.0000000000582,471.9999999999418,512,512,2824,472,384,456.0000000000582,639.9999999999418,888],"keys_pressed":["rightarrow","leftarrow","leftarrow","leftarrow","leftarrow","leftarrow","leftarrow","leftarrow","leftarrow","rightarrow"],"horizon":10,"forced_choices":["rightarrow","leftarrow","leftarrow","leftarrow"],"right_color":"lightblue","left_color":"orange","left_mu":60,"right_mu":72,"left_numbers":[53,60,60,62,63,63,51,50,55,44],"right_numbers":[69,63,83,61,66,80,75,72,68,91],"points_earned":624,"phase":"task","trial_type":"horizons-task","trial_index":19,"time_elapsed":506113,"internal_node_id":"0.0-15.0","task_version":"0.2"},{"response_times":[785,1216,3009,1014.9999999999418,832,384.0000000000582,320,384.0000000000582,303.9999999999418,352],"keys_pressed":["rightarrow","rightarrow","leftarrow","rightarrow","leftarrow","leftarrow","leftarrow","leftarrow","leftarrow","leftarrow"],"horizon":10,"forced_choices":["rightarrow","rightarrow","leftarrow","rightarrow"],"right_color":"orange","left_color":"lightblue","left_mu":60,"right_mu":30,"left_numbers":[66,61,62,54,57,68,52,67,61,48],"right_numbers":[38,31,31,29,22,24,23,31,31,18],"points_earned":513,"phase":"task","trial_type":"horizons-task","trial_index":20,"time_elapsed":516217,"internal_node_id":"0.0-16.0","task_version":"0.2"},{"response_times":[857,575,473,463.0000000000582,1343.9999999999418,248.0000000000582,351.9999999999418,216,208,400],"keys_pressed":["rightarrow","rightarrow","leftarrow","leftarrow","leftarrow","leftarrow","leftarrow","leftarrow","leftarrow","leftarrow"],"horizon":10,"forced_choices":["rightarrow","rightarrow","leftarrow","leftarrow"],"right_color":"lightblue","left_color":"orange","left_mu":60,"right_mu":40,"left_numbers":[61,64,47,64,61,52,63,63,70,61],"right_numbers":[36,20,39,51,35,43,31,33,30,51],"points_earned":537,"phase":"task","trial_type":"horizons-task","trial_index":21,"time_elapsed":522857,"internal_node_id":"0.0-17.0","task_version":"0.2"},{"response_times":[705,480,536,552,2520],"keys_pressed":["rightarrow","leftarrow","leftarrow","rightarrow","rightarrow"],"horizon":5,"forced_choices":["rightarrow","leftarrow","leftarrow","rightarrow"],"right_color":"orange","left_color":"lightblue","left_mu":40,"right_mu":36,"left_numbers":[51,43,25,36,28],"right_numbers":[36,35,26,42,27],"points_earned":173,"phase":"task","trial_type":"horizons-task","trial_index":22,"time_elapsed":529152,"internal_node_id":"0.0-18.0","task_version":"0.2"},{"response_times":[577,359.9999999998836,400,1056,3952],"keys_pressed":["rightarrow","leftarrow","rightarrow","leftarrow","rightarrow"],"horizon":5,"forced_choices":["rightarrow","leftarrow","rightarrow","leftarrow"],"right_color":"orange","left_color":"lightblue","left_mu":40,"right_mu":44,"left_numbers":[36,45,50,36,31],"right_numbers":[43,33,48,28,41],"points_earned":213,"phase":"task","trial_type":"horizons-task","trial_index":23,"time_elapsed":537001,"internal_node_id":"0.0-19.0","task_version":"0.2"},{"response_times":[544,399,344,392.0000000001164,4495.999999999884,432,408,424,472,456],"keys_pressed":["leftarrow","rightarrow","leftarrow","rightarrow","rightarrow","rightarrow","rightarrow","rightarrow","rightarrow","rightarrow"],"horizon":10,"forced_choices":["leftarrow","rightarrow","leftarrow","rightarrow"],"right_color":"orange","left_color":"lightblue","left_mu":60,"right_mu":90,"left_numbers":[58,73,62,67,56,47,54,60,56,53],"right_numbers":[82,97,96,86,83,85,79,89,74,89],"points_earned":802,"phase":"task","trial_type":"horizons-task","trial_index":24,"time_elapsed":546873,"internal_node_id":"0.0-20.0","task_version":"0.2"},{"response_times":[585,384,480,1336.0000000001164,2024],"keys_pressed":["leftarrow","rightarrow","leftarrow","leftarrow","rightarrow"],"horizon":5,"forced_choices":["leftarrow","rightarrow","leftarrow","leftarrow"],"right_color":"orange","left_color":"lightblue","left_mu":40,"right_mu":52,"left_numbers":[38,42,37,32,44],"right_numbers":[50,45,59,34,48],"points_earned":200,"phase":"task","trial_type":"horizons-task","trial_index":25,"time_elapsed":553185,"internal_node_id":"0.0-21.0","task_version":"0.2"},{"response_times":[617.0000000001164,727.9999999998836,552,784,560],"keys_pressed":["rightarrow","rightarrow","leftarrow","rightarrow","leftarrow"],"horizon":5,"forced_choices":["rightarrow","rightarrow","leftarrow","rightarrow"],"right_color":"orange","left_color":"lightblue","left_mu":60,"right_mu":30,"left_numbers":[54,52,58,71,74],"right_numbers":[25,25,32,28,33],"points_earned":210,"phase":"task","trial_type":"horizons-task","trial_index":26,"time_elapsed":557929,"internal_node_id":"0.0-22.0","task_version":"0.2"},{"response_times":[721,368,608,472,1368],"keys_pressed":["leftarrow","rightarrow","rightarrow","rightarrow","rightarrow"],"horizon":5,"forced_choices":["leftarrow","rightarrow","rightarrow","rightarrow"],"right_color":"orange","left_color":"lightblue","left_mu":40,"right_mu":44,"left_numbers":[35,45,54,29,29],"right_numbers":[47,50,44,52,47],"points_earned":228,"phase":"task","trial_type":"horizons-task","trial_index":27,"time_elapsed":562969,"internal_node_id":"0.0-23.0","task_version":"0.2"},{"response_times":[817,440,792,728,2720,592,584,424,632,816],"keys_pressed":["leftarrow","rightarrow","rightarrow","leftarrow","leftarrow","leftarrow","leftarrow","leftarrow","rightarrow","leftarrow"],"horizon":10,"forced_choices":["leftarrow","rightarrow","rightarrow","leftarrow"],"right_color":"lightblue","left_color":"orange","left_mu":40,"right_mu":10,"left_numbers":[38,46,26,49,34,41,38,40,50,25],"right_numbers":[10,24,0,6,4,4,22,17,15,17],"points_earned":304,"phase":"task","trial_type":"horizons-task","trial_index":28,"time_elapsed":573016,"internal_node_id":"0.0-24.0","task_version":"0.2"},{"response_times":[625,760,624,672,1456],"keys_pressed":["leftarrow","leftarrow","rightarrow","leftarrow","leftarrow"],"horizon":5,"forced_choices":["leftarrow","leftarrow","rightarrow","leftarrow"],"right_color":"orange","left_color":"lightblue","left_mu":60,"right_mu":90,"left_numbers":[61,62,59,68,55],"right_numbers":[93,102,85,74,94],"points_earned":331,"phase":"task","trial_type":"horizons-task","trial_index":29,"time_elapsed":578657,"internal_node_id":"0.0-25.0","task_version":"0.2"},{"response_times":[607.9999999998836,376,368,408,3344,416,256,264,576,328],"keys_pressed":["leftarrow","rightarrow","leftarrow","rightarrow","rightarrow","rightarrow","rightarrow","rightarrow","rightarrow","rightarrow"],"horizon":10,"forced_choices":["leftarrow","rightarrow","leftarrow","rightarrow"],"right_color":"orange","left_color":"lightblue","left_mu":60,"right_mu":52,"left_numbers":[63,55,46,45,64,65,46,52,61,45],"right_numbers":[58,52,58,52,57,48,45,64,46,68],"points_earned":541,"phase":"task","trial_type":"horizons-task","trial_index":30,"time_elapsed":587105,"internal_node_id":"0.0-26.0","task_version":"0.2"},{"response_times":[432,504,456,832,1793,453,792,496,912.0000000001164,575.9999999998836],"keys_pressed":["leftarrow","leftarrow","leftarrow","rightarrow","leftarrow","leftarrow","rightarrow","rightarrow","leftarrow","leftarrow"],"horizon":10,"forced_choices":["leftarrow","leftarrow","leftarrow","rightarrow"],"right_color":"orange","left_color":"lightblue","left_mu":40,"right_mu":36,"left_numbers":[48,27,41,33,30,41,47,33,28,41],"right_numbers":[42,39,37,36,40,28,44,29,25,34],"points_earned":365,"phase":"task","trial_type":"horizons-task","trial_index":31,"time_elapsed":595857,"internal_node_id":"0.0-27.0","task_version":"0.2"},{"response_times":[601,560,680,568,488.0000000001164,9463.999999999884,336,256,216,576],"keys_pressed":["rightarrow","rightarrow","leftarrow","rightarrow","leftarrow","leftarrow","leftarrow","leftarrow","leftarrow","leftarrow"],"horizon":10,"forced_choices":["rightarrow","rightarrow","leftarrow","rightarrow"],"right_color":"lightblue","left_color":"orange","left_mu":40,"right_mu":28,"left_numbers":[41,31,46,56,34,34,31,35,31,27],"right_numbers":[17,28,30,13,35,23,34,40,13,14],"points_earned":296,"phase":"task","trial_type":"horizons-task","trial_index":32,"time_elapsed":611105,"internal_node_id":"0.0-28.0","task_version":"0.2"},{"response_times":[625,479,632,952,1288],"keys_pressed":["leftarrow","rightarrow","rightarrow","rightarrow","leftarrow"],"horizon":5,"forced_choices":["leftarrow","rightarrow","rightarrow","rightarrow"],"right_color":"lightblue","left_color":"orange","left_mu":40,"right_mu":10,"left_numbers":[54,36,38,42,34],"right_numbers":[18,18,18,17,4],"points_earned":141,"phase":"task","trial_type":"horizons-task","trial_index":33,"time_elapsed":616585,"internal_node_id":"0.0-29.0","task_version":"0.2"},{"response_times":[487,456,504,592,2160,584,392,584,416,472],"keys_pressed":["rightarrow","leftarrow","leftarrow","leftarrow","leftarrow","leftarrow","leftarrow","leftarrow","leftarrow","leftarrow"],"horizon":10,"forced_choices":["rightarrow","leftarrow","leftarrow","leftarrow"],"right_color":"orange","left_color":"lightblue","left_mu":60,"right_mu":48,"left_numbers":[57,40,61,49,66,32,54,47,54,51],"right_numbers":[58,49,60,36,56,56,47,45,42,32],"points_earned":512,"phase":"task","trial_type":"horizons-task","trial_index":34,"time_elapsed":624737,"internal_node_id":"0.0-30.0","task_version":"0.2"},{"response_times":[465,408,328,448,1456],"keys_pressed":["leftarrow","rightarrow","leftarrow","rightarrow","leftarrow"],"horizon":5,"forced_choices":["leftarrow","rightarrow","leftarrow","rightarrow"],"right_color":"orange","left_color":"lightblue","left_mu":60,"right_mu":52,"left_numbers":[67,48,62,56,50],"right_numbers":[35,57,49,57,46],"points_earned":293,"phase":"task","trial_type":"horizons-task","trial_index":35,"time_elapsed":629345,"internal_node_id":"0.0-31.0","task_version":"0.2"},{"response_times":[513,408,336,504,1704,504,400,304,232,400],"keys_pressed":["leftarrow","leftarrow","leftarrow","rightarrow","rightarrow","rightarrow","rightarrow","rightarrow","rightarrow","rightarrow"],"horizon":10,"forced_choices":["leftarrow","leftarrow","leftarrow","rightarrow"],"right_color":"lightblue","left_color":"orange","left_mu":40,"right_mu":70,"left_numbers":[21,24,44,19,44,37,42,37,29,41],"right_numbers":[54,82,55,74,70,78,70,73,76,70],"points_earned":600,"phase":"task","trial_type":"horizons-task","trial_index":36,"time_elapsed":636152,"internal_node_id":"0.0-32.0","task_version":"0.2"},{"response_times":[632.9999999998836,432,768,560,1352.0000000001164,215.99999999988358,224,584.0000000001164,607.9999999998836,464],"keys_pressed":["leftarrow","rightarrow","rightarrow","rightarrow","rightarrow","rightarrow","rightarrow","leftarrow","leftarrow","leftarrow"],"horizon":10,"forced_choices":["leftarrow","rightarrow","rightarrow","rightarrow"],"right_color":"orange","left_color":"lightblue","left_mu":40,"right_mu":44,"left_numbers":[44,47,32,48,43,37,49,49,46,49],"right_numbers":[28,47,52,47,48,16,35,46,37,36],"points_earned":433,"phase":"task","trial_type":"horizons-task","trial_index":37,"time_elapsed":643497,"internal_node_id":"0.0-33.0","task_version":"0.2"},{"response_times":[649,496,520,536,1248,264,320,240,384,432],"keys_pressed":["rightarrow","rightarrow","leftarrow","rightarrow","leftarrow","leftarrow","leftarrow","leftarrow","leftarrow","leftarrow"],"horizon":10,"forced_choices":["rightarrow","rightarrow","leftarrow","rightarrow"],"right_color":"orange","left_color":"lightblue","left_mu":60,"right_mu":52,"left_numbers":[61,67,68,60,57,66,56,67,69,69],"right_numbers":[43,49,56,44,55,53,45,66,62,50],"points_earned":588,"phase":"task","trial_type":"horizons-task","trial_index":38,"time_elapsed":650090,"internal_node_id":"0.0-34.0","task_version":"0.2"},{"response_times":[668,448,544.0000000001164,447.9999999998836,1080,1608,576,184,200.00000000011642,455.9999999998836],"keys_pressed":["leftarrow","leftarrow","rightarrow","rightarrow","rightarrow","rightarrow","rightarrow","rightarrow","rightarrow","leftarrow"],"horizon":10,"forced_choices":["leftarrow","leftarrow","rightarrow","rightarrow"],"right_color":"orange","left_color":"lightblue","left_mu":40,"right_mu":52,"left_numbers":[40,29,33,29,21,28,44,39,41,26],"right_numbers":[50,54,57,51,40,47,39,62,43,47],"points_earned":434,"phase":"task","trial_type":"horizons-task","trial_index":39,"time_elapsed":657809,"internal_node_id":"0.0-35.0","task_version":"0.2"},{"response_times":[799,536,472,864,1456,208,528,384,200,200],"keys_pressed":["rightarrow","leftarrow","rightarrow","leftarrow","rightarrow","rightarrow","rightarrow","rightarrow","rightarrow","rightarrow"],"horizon":10,"forced_choices":["rightarrow","leftarrow","rightarrow","leftarrow"],"right_color":"lightblue","left_color":"orange","left_mu":60,"right_mu":72,"left_numbers":[71,51,67,70,58,66,70,63,59,50],"right_numbers":[80,60,67,78,49,72,69,74,76,74],"points_earned":682,"phase":"task","trial_type":"horizons-task","trial_index":40,"time_elapsed":664961,"internal_node_id":"0.0-36.0","task_version":"0.2"},{"response_times":[761,401,751.0000000001164,904,751.9999999998836],"keys_pressed":["rightarrow","leftarrow","rightarrow","rightarrow","rightarrow"],"horizon":5,"forced_choices":["rightarrow","leftarrow","rightarrow","rightarrow"],"right_color":"orange","left_color":"lightblue","left_mu":60,"right_mu":80,"left_numbers":[71,58,76,70,67],"right_numbers":[74,79,76,85,82],"points_earned":375,"phase":"task","trial_type":"horizons-task","trial_index":41,"time_elapsed":670033,"internal_node_id":"0.0-37.0","task_version":"0.2"},{"response_times":[536,351.0000000001164,335.9999999998836,800,912,304,328,200.00000000011642,215.99999999988358,800],"keys_pressed":["leftarrow","rightarrow","leftarrow","leftarrow","leftarrow","leftarrow","leftarrow","leftarrow","leftarrow","leftarrow"],"horizon":10,"forced_choices":["leftarrow","rightarrow","leftarrow","leftarrow"],"right_color":"orange","left_color":"lightblue","left_mu":60,"right_mu":56,"left_numbers":[58,61,61,69,68,65,46,69,47,65],"right_numbers":[51,51,54,58,52,53,47,51,53,53],"points_earned":599,"phase":"task","trial_type":"horizons-task","trial_index":42,"time_elapsed":676321,"internal_node_id":"0.0-38.0","task_version":"0.2"},{"response_times":[385,519.9999999998836,856,624.0000000001164,1295.9999999998836,400,1096,680,424,440],"keys_pressed":["rightarrow","leftarrow","leftarrow","rightarrow","leftarrow","leftarrow","rightarrow","rightarrow","leftarrow","leftarrow"],"horizon":10,"forced_choices":["rightarrow","leftarrow","leftarrow","rightarrow"],"right_color":"orange","left_color":"lightblue","left_mu":40,"right_mu":36,"left_numbers":[43,41,49,39,27,32,38,40,23,31],"right_numbers":[28,25,40,32,25,41,34,34,30,21],"points_earned":331,"phase":"task","trial_type":"horizons-task","trial_index":43,"time_elapsed":684544,"internal_node_id":"0.0-39.0","task_version":"0.2"},{"response_times":[433,360,296.0000000001164,903.9999999998836,1816,384,424,400,312.0000000001164,295.9999999998836],"keys_pressed":["leftarrow","rightarrow","leftarrow","rightarrow","leftarrow","leftarrow","leftarrow","leftarrow","leftarrow","leftarrow"],"horizon":10,"forced_choices":["leftarrow","rightarrow","leftarrow","rightarrow"],"right_color":"lightblue","left_color":"orange","left_mu":40,"right_mu":28,"left_numbers":[41,40,43,44,39,40,56,55,26,46],"right_numbers":[29,35,27,36,18,21,34,13,25,13],"points_earned":417,"phase":"task","trial_type":"horizons-task","trial_index":44,"time_elapsed":691673,"internal_node_id":"0.0-40.0","task_version":"0.2"},{"response_times":[569,608.0000000001164,856,479.9999999998836,1648,696,608,512,496,424],"keys_pressed":["rightarrow","rightarrow","rightarrow","leftarrow","rightarrow","rightarrow","rightarrow","rightarrow","rightarrow","rightarrow"],"horizon":10,"forced_choices":["rightarrow","rightarrow","rightarrow","leftarrow"],"right_color":"lightblue","left_color":"orange","left_mu":40,"right_mu":48,"left_numbers":[40,38,45,45,35,45,49,49,49,34],"right_numbers":[42,26,41,53,43,51,45,58,41,57],"points_earned":449,"phase":"task","trial_type":"horizons-task","trial_index":45,"time_elapsed":700072,"internal_node_id":"0.0-41.0","task_version":"0.2"},{"response_times":[721,352,984,688,808],"keys_pressed":["rightarrow","leftarrow","leftarrow","leftarrow","rightarrow"],"horizon":5,"forced_choices":["rightarrow","leftarrow","leftarrow","leftarrow"],"right_color":"lightblue","left_color":"orange","left_mu":60,"right_mu":72,"left_numbers":[60,45,68,67,59],"right_numbers":[80,75,91,81,73],"points_earned":333,"phase":"task","trial_type":"horizons-task","trial_index":46,"time_elapsed":705129,"internal_node_id":"0.0-42.0","task_version":"0.2"},{"response_times":[560,408,568,568,776],"keys_pressed":["leftarrow","rightarrow","rightarrow","leftarrow","leftarrow"],"horizon":5,"forced_choices":["leftarrow","rightarrow","rightarrow","leftarrow"],"right_color":"lightblue","left_color":"orange","left_mu":40,"right_mu":10,"left_numbers":[39,34,45,42,46],"right_numbers":[1,17,17,3,27],"points_earned":161,"phase":"task","trial_type":"horizons-task","trial_index":47,"time_elapsed":709512,"internal_node_id":"0.0-43.0","task_version":"0.2"},{"response_times":[505,328,777,415,1608,392,208,192,160,448],"keys_pressed":["leftarrow","leftarrow","rightarrow","leftarrow","leftarrow","leftarrow","leftarrow","leftarrow","leftarrow","leftarrow"],"horizon":10,"forced_choices":["leftarrow","leftarrow","rightarrow","leftarrow"],"right_color":"lightblue","left_color":"orange","left_mu":40,"right_mu":20,"left_numbers":[42,36,52,35,41,33,30,65,61,52],"right_numbers":[2,6,41,15,32,6,25,18,20,10],"points_earned":436,"phase":"task","trial_type":"horizons-task","trial_index":48,"time_elapsed":716048,"internal_node_id":"0.0-44.0","task_version":"0.2"},{"response_times":[577,376,376,584,776,240,192,200,368,200],"keys_pressed":["rightarrow","leftarrow","rightarrow","rightarrow","rightarrow","rightarrow","rightarrow","rightarrow","rightarrow","rightarrow"],"horizon":10,"forced_choices":["rightarrow","leftarrow","rightarrow","rightarrow"],"right_color":"orange","left_color":"lightblue","left_mu":60,"right_mu":80,"left_numbers":[59,57,48,56,43,53,53,52,64,52],"right_numbers":[83,83,81,73,80,92,71,78,78,69],"points_earned":762,"phase":"task","trial_type":"horizons-task","trial_index":49,"time_elapsed":721441,"internal_node_id":"0.0-45.0","task_version":"0.2"},{"response_times":[441,359,656.0000000001164,407.9999999998836,840],"keys_pressed":["rightarrow","leftarrow","leftarrow","rightarrow","leftarrow"],"horizon":5,"forced_choices":["rightarrow","leftarrow","leftarrow","rightarrow"],"right_color":"lightblue","left_color":"orange","left_mu":60,"right_mu":64,"left_numbers":[62,64,62,62,58],"right_numbers":[58,57,62,76,60],"points_earned":318,"phase":"task","trial_type":"horizons-task","trial_index":50,"time_elapsed":725649,"internal_node_id":"0.0-46.0","task_version":"0.2"},{"view_history":"[{\"page_index\":0,\"viewing_time\":4434},{\"page_index\":1,\"viewing_time\":2767.0000000001164}]","rt":7202,"trial_type":"instructions","trial_index":51,"time_elapsed":732851,"internal_node_id":"0.0-47.0","task_version":"0.2"},{"response_times":[669,400.0000000001164,511.9999999998836,432,1712],"keys_pressed":["leftarrow","leftarrow","leftarrow","rightarrow","leftarrow"],"horizon":5,"forced_choices":["leftarrow","leftarrow","leftarrow","rightarrow"],"right_color":"orange","left_color":"lightblue","left_mu":40,"right_mu":36,"left_numbers":[43,49,45,28,32],"right_numbers":[37,38,36,52,44],"points_earned":221,"phase":"task","trial_type":"horizons-task","trial_index":52,"time_elapsed":738081,"internal_node_id":"0.0-48.0","task_version":"0.2"},{"response_times":[559,513,383,456,1168],"keys_pressed":["rightarrow","rightarrow","leftarrow","leftarrow","leftarrow"],"horizon":5,"forced_choices":["rightarrow","rightarrow","leftarrow","leftarrow"],"right_color":"lightblue","left_color":"orange","left_mu":60,"right_mu":40,"left_numbers":[57,64,55,41,65],"right_numbers":[46,43,42,44,40],"points_earned":250,"phase":"task","trial_type":"horizons-task","trial_index":53,"time_elapsed":742664,"internal_node_id":"0.0-49.0","task_version":"0.2"},{"response_times":[505,288,448,600,584,408,272,280,248,264],"keys_pressed":["leftarrow","leftarrow","rightarrow","leftarrow","rightarrow","rightarrow","rightarrow","rightarrow","rightarrow","rightarrow"],"horizon":10,"forced_choices":["leftarrow","leftarrow","rightarrow","leftarrow"],"right_color":"orange","left_color":"lightblue","left_mu":60,"right_mu":90,"left_numbers":[54,43,62,49,63,56,63,72,61,68],"right_numbers":[70,85,101,92,88,92,75,89,107,91],"points_earned":789,"phase":"task","trial_type":"horizons-task","trial_index":54,"time_elapsed":748065,"internal_node_id":"0.0-50.0","task_version":"0.2"},{"response_times":[552,608,408.0000000001164,415.9999999998836,416],"keys_pressed":["rightarrow","rightarrow","leftarrow","leftarrow","rightarrow"],"horizon":5,"forced_choices":["rightarrow","rightarrow","leftarrow","leftarrow"],"right_color":"lightblue","left_color":"orange","left_mu":40,"right_mu":48,"left_numbers":[18,36,40,40,38],"right_numbers":[36,54,35,60,57],"points_earned":227,"phase":"task","trial_type":"horizons-task","trial_index":55,"time_elapsed":751969,"internal_node_id":"0.0-51.0","task_version":"0.2"},{"response_times":[425,407.0000000001164,599.9999999998836,552,816],"keys_pressed":["rightarrow","rightarrow","rightarrow","leftarrow","rightarrow"],"horizon":5,"forced_choices":["rightarrow","rightarrow","rightarrow","leftarrow"],"right_color":"lightblue","left_color":"orange","left_mu":40,"right_mu":48,"left_numbers":[48,33,61,32,37],"right_numbers":[47,55,49,39,43],"points_earned":226,"phase":"task","trial_type":"horizons-task","trial_index":56,"time_elapsed":756273,"internal_node_id":"0.0-52.0","task_version":"0.2"},{"response_times":[464.9999999998836,264,528,224.00000000011642,2255.9999999998836,216,200,200,520,512.0000000001164],"keys_pressed":["rightarrow","rightarrow","leftarrow","leftarrow","rightarrow","rightarrow","rightarrow","rightarrow","leftarrow","rightarrow"],"horizon":10,"forced_choices":["rightarrow","rightarrow","leftarrow","leftarrow"],"right_color":"lightblue","left_color":"orange","left_mu":40,"right_mu":48,"left_numbers":[27,24,31,47,47,43,47,41,42,46],"right_numbers":[38,54,41,43,49,44,45,34,42,44],"points_earned":428,"phase":"task","trial_type":"horizons-task","trial_index":57,"time_elapsed":763161,"internal_node_id":"0.0-53.0","task_version":"0.2"},{"response_times":[721,431,456,384,1208],"keys_pressed":["leftarrow","rightarrow","leftarrow","rightarrow","rightarrow"],"horizon":5,"forced_choices":["leftarrow","rightarrow","leftarrow","rightarrow"],"right_color":"orange","left_color":"lightblue","left_mu":60,"right_mu":90,"left_numbers":[70,59,54,63,53],"right_numbers":[98,104,102,93,93],"points_earned":414,"phase":"task","trial_type":"horizons-task","trial_index":58,"time_elapsed":767865,"internal_node_id":"0.0-54.0","task_version":"0.2"},{"response_times":[569,592,408,360,920],"keys_pressed":["leftarrow","leftarrow","rightarrow","leftarrow","leftarrow"],"horizon":5,"forced_choices":["leftarrow","leftarrow","rightarrow","leftarrow"],"right_color":"lightblue","left_color":"orange","left_mu":40,"right_mu":20,"left_numbers":[47,53,49,54,51],"right_numbers":[10,15,23,21,21],"points_earned":228,"phase":"task","trial_type":"horizons-task","trial_index":59,"time_elapsed":772217,"internal_node_id":"0.0-55.0","task_version":"0.2"},{"response_times":[897,520.0000000001164,503.9999999998836,520.0000000001164,1096],"keys_pressed":["leftarrow","rightarrow","rightarrow","leftarrow","rightarrow"],"horizon":5,"forced_choices":["leftarrow","rightarrow","rightarrow","leftarrow"],"right_color":"lightblue","left_color":"orange","left_mu":40,"right_mu":70,"left_numbers":[40,35,35,45,37],"right_numbers":[66,51,91,81,85],"points_earned":312,"phase":"task","trial_type":"horizons-task","trial_index":60,"time_elapsed":777257,"internal_node_id":"0.0-56.0","task_version":"0.2"},{"response_times":[585,560,656,456,664],"keys_pressed":["rightarrow","rightarrow","rightarrow","leftarrow","rightarrow"],"horizon":5,"forced_choices":["rightarrow","rightarrow","rightarrow","leftarrow"],"right_color":"lightblue","left_color":"orange","left_mu":40,"right_mu":60,"left_numbers":[34,51,44,44,36],"right_numbers":[65,57,67,61,61],"points_earned":294,"phase":"task","trial_type":"horizons-task","trial_index":61,"time_elapsed":781681,"internal_node_id":"0.0-57.0","task_version":"0.2"},{"response_times":[809,328,305,311,1512.0000000001164],"keys_pressed":["leftarrow","rightarrow","leftarrow","rightarrow","leftarrow"],"horizon":5,"forced_choices":["leftarrow","rightarrow","leftarrow","rightarrow"],"right_color":"lightblue","left_color":"orange","left_mu":40,"right_mu":28,"left_numbers":[30,44,23,47,37],"right_numbers":[41,22,15,25,16],"points_earned":137,"phase":"task","trial_type":"horizons-task","trial_index":62,"time_elapsed":786448,"internal_node_id":"0.0-58.0","task_version":"0.2"},{"response_times":[409,672,352,696,767,352,496,328,488,648.0000000001164],"keys_pressed":["rightarrow","rightarrow","rightarrow","leftarrow","rightarrow","rightarrow","rightarrow","rightarrow","leftarrow","rightarrow"],"horizon":10,"forced_choices":["rightarrow","rightarrow","rightarrow","leftarrow"],"right_color":"lightblue","left_color":"orange","left_mu":40,"right_mu":60,"left_numbers":[38,35,52,44,41,33,36,43,46,58],"right_numbers":[58,83,72,77,53,46,51,57,65,59],"points_earned":569,"phase":"task","trial_type":"horizons-task","trial_index":63,"time_elapsed":793161,"internal_node_id":"0.0-59.0","task_version":"0.2"},{"response_times":[737.0000000001164,314.9999999998836,509,664,1616,168,456,184,528,592],"keys_pressed":["rightarrow","rightarrow","leftarrow","leftarrow","rightarrow","rightarrow","rightarrow","rightarrow","leftarrow","rightarrow"],"horizon":10,"forced_choices":["rightarrow","rightarrow","leftarrow","leftarrow"],"right_color":"lightblue","left_color":"orange","left_mu":40,"right_mu":60,"left_numbers":[29,40,37,35,43,40,26,44,37,48],"right_numbers":[64,54,76,61,59,58,59,72,61,47],"points_earned":522,"phase":"task","trial_type":"horizons-task","trial_index":64,"time_elapsed":800433,"internal_node_id":"0.0-60.0","task_version":"0.2"},{"response_times":[977,528,480,456.0000000001164,1024,199.99999999988358,208,168,152,408],"keys_pressed":["rightarrow","leftarrow","leftarrow","rightarrow","rightarrow","rightarrow","rightarrow","rightarrow","rightarrow","rightarrow"],"horizon":10,"forced_choices":["rightarrow","leftarrow","leftarrow","rightarrow"],"right_color":"lightblue","left_color":"orange","left_mu":60,"right_mu":64,"left_numbers":[65,55,59,63,49,42,54,56,70,70],"right_numbers":[64,66,57,65,69,72,66,62,61,48],"points_earned":621,"phase":"task","trial_type":"horizons-task","trial_index":65,"time_elapsed":806537,"internal_node_id":"0.0-61.0","task_version":"0.2"},{"response_times":[672,616.0000000001164,639.9999999998836,1208,1216],"keys_pressed":["leftarrow","rightarrow","leftarrow","rightarrow","leftarrow"],"horizon":5,"forced_choices":["leftarrow","rightarrow","leftarrow","rightarrow"],"right_color":"orange","left_color":"lightblue","left_mu":60,"right_mu":56,"left_numbers":[56,67,55,61,63],"right_numbers":[46,40,66,57,57],"points_earned":271,"phase":"task","trial_type":"horizons-task","trial_index":66,"time_elapsed":812393,"internal_node_id":"0.0-62.0","task_version":"0.2"},{"response_times":[608,415,472,456,1120],"keys_pressed":["leftarrow","leftarrow","rightarrow","rightarrow","leftarrow"],"horizon":5,"forced_choices":["leftarrow","leftarrow","rightarrow","rightarrow"],"right_color":"orange","left_color":"lightblue","left_mu":60,"right_mu":48,"left_numbers":[67,51,41,67,60],"right_numbers":[36,33,44,49,57],"points_earned":271,"phase":"task","trial_type":"horizons-task","trial_index":67,"time_elapsed":816970,"internal_node_id":"0.0-63.0","task_version":"0.2"},{"response_times":[735.0000000001164,423.9999999998836,384,1392,824.0000000001164],"keys_pressed":["leftarrow","rightarrow","leftarrow","leftarrow","leftarrow"],"horizon":5,"forced_choices":["leftarrow","rightarrow","leftarrow","leftarrow"],"right_color":"orange","left_color":"lightblue","left_mu":60,"right_mu":56,"left_numbers":[65,68,66,62,66],"right_numbers":[66,47,57,42,62],"points_earned":306,"phase":"task","trial_type":"horizons-task","trial_index":68,"time_elapsed":822233,"internal_node_id":"0.0-64.0","task_version":"0.2"},{"response_times":[537,384,456,824,673],"keys_pressed":["rightarrow","leftarrow","rightarrow","rightarrow","rightarrow"],"horizon":5,"forced_choices":["rightarrow","leftarrow","rightarrow","rightarrow"],"right_color":"lightblue","left_color":"orange","left_mu":60,"right_mu":68,"left_numbers":[73,67,65,53,63],"right_numbers":[63,69,80,77,61],"points_earned":348,"phase":"task","trial_type":"horizons-task","trial_index":69,"time_elapsed":826609,"internal_node_id":"0.0-65.0","task_version":"0.2"},{"response_times":[624,432,368,520,1856,408,320,232,240,224],"keys_pressed":["leftarrow","rightarrow","leftarrow","rightarrow","leftarrow","leftarrow","leftarrow","leftarrow","leftarrow","leftarrow"],"horizon":10,"forced_choices":["leftarrow","rightarrow","leftarrow","rightarrow"],"right_color":"orange","left_color":"lightblue","left_mu":60,"right_mu":56,"left_numbers":[70,55,81,56,61,68,60,47,65,51],"right_numbers":[50,51,53,63,45,49,53,54,45,62],"points_earned":617,"phase":"task","trial_type":"horizons-task","trial_index":70,"time_elapsed":833337,"internal_node_id":"0.0-66.0","task_version":"0.2"},{"response_times":[569,415,576.0000000001164,639.9999999998836,792,320,288,296,224,240],"keys_pressed":["rightarrow","leftarrow","leftarrow","leftarrow","leftarrow","leftarrow","leftarrow","leftarrow","leftarrow","leftarrow"],"horizon":10,"forced_choices":["rightarrow","leftarrow","leftarrow","leftarrow"],"right_color":"lightblue","left_color":"orange","left_mu":60,"right_mu":40,"left_numbers":[52,53,57,60,62,67,55,61,38,61],"right_numbers":[29,40,30,38,22,50,19,45,47,30],"points_earned":543,"phase":"task","trial_type":"horizons-task","trial_index":71,"time_elapsed":839201,"internal_node_id":"0.0-67.0","task_version":"0.2"},{"response_times":[745,591.9999999998836,592,760,664],"keys_pressed":["rightarrow","leftarrow","leftarrow","leftarrow","leftarrow"],"horizon":5,"forced_choices":["rightarrow","leftarrow","leftarrow","leftarrow"],"right_color":"orange","left_color":"lightblue","left_mu":60,"right_mu":48,"left_numbers":[65,66,56,69,63],"right_numbers":[45,55,63,49,53],"points_earned":299,"phase":"task","trial_type":"horizons-task","trial_index":72,"time_elapsed":844057,"internal_node_id":"0.0-68.0","task_version":"0.2"},{"response_times":[560,472,768,544,1072],"keys_pressed":["leftarrow","rightarrow","rightarrow","rightarrow","rightarrow"],"horizon":5,"forced_choices":["leftarrow","rightarrow","rightarrow","rightarrow"],"right_color":"lightblue","left_color":"orange","left_mu":60,"right_mu":64,"left_numbers":[59,64,57,71,64],"right_numbers":[72,48,59,71,56],"points_earned":293,"phase":"task","trial_type":"horizons-task","trial_index":73,"time_elapsed":848977,"internal_node_id":"0.0-69.0","task_version":"0.2"},{"response_times":[553,367.0000000001164,639.9999999998836,384.0000000001164,671.9999999998836],"keys_pressed":["rightarrow","rightarrow","leftarrow","leftarrow","rightarrow"],"horizon":5,"forced_choices":["rightarrow","rightarrow","leftarrow","leftarrow"],"right_color":"lightblue","left_color":"orange","left_mu":40,"right_mu":60,"left_numbers":[48,36,33,36,50],"right_numbers":[55,50,58,65,66],"points_earned":240,"phase":"task","trial_type":"horizons-task","trial_index":74,"time_elapsed":853097,"internal_node_id":"0.0-70.0","task_version":"0.2"},{"response_times":[553,456,456,408.0000000001164,567.9999999998836,216.00000000011642,479.9999999998836,200,216,473],"keys_pressed":["rightarrow","leftarrow","leftarrow","rightarrow","leftarrow","leftarrow","leftarrow","leftarrow","leftarrow","leftarrow"],"horizon":10,"forced_choices":["rightarrow","leftarrow","leftarrow","rightarrow"],"right_color":"orange","left_color":"lightblue","left_mu":60,"right_mu":30,"left_numbers":[57,45,67,68,70,49,59,55,64,55],"right_numbers":[29,37,28,12,22,17,32,21,39,44],"points_earned":505,"phase":"task","trial_type":"horizons-task","trial_index":75,"time_elapsed":858625,"internal_node_id":"0.0-71.0","task_version":"0.2"},{"response_times":[543,360,464.0000000001164,503.9999999998836,1296,360,312,240.00000000011642,711.9999999998836,200],"keys_pressed":["rightarrow","leftarrow","leftarrow","rightarrow","rightarrow","rightarrow","rightarrow","rightarrow","rightarrow","rightarrow"],"horizon":10,"forced_choices":["rightarrow","leftarrow","leftarrow","rightarrow"],"right_color":"lightblue","left_color":"orange","left_mu":60,"right_mu":68,"left_numbers":[72,54,48,52,58,62,68,58,61,54],"right_numbers":[61,56,86,54,68,60,60,64,60,91],"points_earned":620,"phase":"task","trial_type":"horizons-task","trial_index":76,"time_elapsed":865120,"internal_node_id":"0.0-72.0","task_version":"0.2"},{"response_times":[593,504,560.0000000001164,599.9999999998836,600],"keys_pressed":["rightarrow","leftarrow","leftarrow","rightarrow","leftarrow"],"horizon":5,"forced_choices":["rightarrow","leftarrow","leftarrow","rightarrow"],"right_color":"orange","left_color":"lightblue","left_mu":60,"right_mu":30,"left_numbers":[47,53,51,43,66],"right_numbers":[31,25,22,29,21],"points_earned":230,"phase":"task","trial_type":"horizons-task","trial_index":77,"time_elapsed":869481,"internal_node_id":"0.0-73.0","task_version":"0.2"},{"response_times":[849,680,424,456,1480],"keys_pressed":["leftarrow","leftarrow","rightarrow","rightarrow","leftarrow"],"horizon":5,"forced_choices":["leftarrow","leftarrow","rightarrow","rightarrow"],"right_color":"lightblue","left_color":"orange","left_mu":40,"right_mu":20,"left_numbers":[26,30,53,51,36],"right_numbers":[24,28,23,18,24],"points_earned":133,"phase":"task","trial_type":"horizons-task","trial_index":78,"time_elapsed":874873,"internal_node_id":"0.0-74.0","task_version":"0.2"},{"response_times":[417,336,808,1472,600],"keys_pressed":["rightarrow","rightarrow","leftarrow","rightarrow","leftarrow"],"horizon":5,"forced_choices":["rightarrow","rightarrow","leftarrow","rightarrow"],"right_color":"orange","left_color":"lightblue","left_mu":60,"right_mu":52,"left_numbers":[62,67,70,59,54],"right_numbers":[37,47,50,52,55],"points_earned":260,"phase":"task","trial_type":"horizons-task","trial_index":79,"time_elapsed":880009,"internal_node_id":"0.0-75.0","task_version":"0.2"},{"response_times":[592.9999999998836,680,400.0000000001164,471.9999999998836,3936],"keys_pressed":["rightarrow","leftarrow","rightarrow","leftarrow","leftarrow"],"horizon":5,"forced_choices":["rightarrow","leftarrow","rightarrow","leftarrow"],"right_color":"orange","left_color":"lightblue","left_mu":40,"right_mu":32,"left_numbers":[39,35,35,46,32],"right_numbers":[41,43,33,33,36],"points_earned":187,"phase":"task","trial_type":"horizons-task","trial_index":80,"time_elapsed":887594,"internal_node_id":"0.0-76.0","task_version":"0.2"},{"response_times":[456,424,288,328,616.0000000001164],"keys_pressed":["rightarrow","leftarrow","rightarrow","leftarrow","rightarrow"],"horizon":5,"forced_choices":["rightarrow","leftarrow","rightarrow","leftarrow"],"right_color":"lightblue","left_color":"orange","left_mu":60,"right_mu":72,"left_numbers":[65,55,69,58,52],"right_numbers":[71,77,78,68,79],"points_earned":341,"phase":"task","trial_type":"horizons-task","trial_index":81,"time_elapsed":891209,"internal_node_id":"0.0-77.0","task_version":"0.2"},{"response_times":[601,448,296,512,1640.0000000001164,455.9999999998836,392,784,456,352],"keys_pressed":["rightarrow","leftarrow","rightarrow","rightarrow","rightarrow","rightarrow","leftarrow","leftarrow","leftarrow","leftarrow"],"horizon":10,"forced_choices":["rightarrow","leftarrow","rightarrow","rightarrow"],"right_color":"lightblue","left_color":"orange","left_mu":60,"right_mu":68,"left_numbers":[46,69,56,57,55,63,67,66,59,52],"right_numbers":[77,82,53,83,77,63,67,75,65,81],"points_earned":666,"phase":"task","trial_type":"horizons-task","trial_index":82,"time_elapsed":898649,"internal_node_id":"0.0-78.0","task_version":"0.2"},{"response_times":[577,608,702,408.0000000001164,399.9999999998836,344,248,224,184,360.0000000001164],"keys_pressed":["leftarrow","rightarrow","rightarrow","leftarrow","rightarrow","rightarrow","rightarrow","rightarrow","rightarrow","rightarrow"],"horizon":10,"forced_choices":["leftarrow","rightarrow","rightarrow","leftarrow"],"right_color":"lightblue","left_color":"orange","left_mu":40,"right_mu":70,"left_numbers":[45,38,39,24,34,43,35,44,35,38],"right_numbers":[91,84,71,76,76,58,66,67,79,70],"points_earned":640,"phase":"task","trial_type":"horizons-task","trial_index":83,"time_elapsed":904209,"internal_node_id":"0.0-79.0","task_version":"0.2"},{"response_times":[576,384,680.0000000001164,455.9999999998836,392,288,224,184,192,184],"keys_pressed":["leftarrow","rightarrow","rightarrow","leftarrow","rightarrow","rightarrow","rightarrow","rightarrow","rightarrow","rightarrow"],"horizon":10,"forced_choices":["leftarrow","rightarrow","rightarrow","leftarrow"],"right_color":"orange","left_color":"lightblue","left_mu":60,"right_mu":80,"left_numbers":[64,77,54,56,63,61,54,51,67,61],"right_numbers":[81,82,85,77,75,86,99,84,75,84],"points_earned":790,"phase":"task","trial_type":"horizons-task","trial_index":84,"time_elapsed":909273,"internal_node_id":"0.0-80.0","task_version":"0.2"},{"response_times":[520,336,296,375,3087.9999999998836,840.0000000001164,863.9999999998836,776,408.0000000001164,415.9999999998836],"keys_pressed":["rightarrow","leftarrow","rightarrow","leftarrow","rightarrow","rightarrow","leftarrow","leftarrow","rightarrow","rightarrow"],"horizon":10,"forced_choices":["rightarrow","leftarrow","rightarrow","leftarrow"],"right_color":"orange","left_color":"lightblue","left_mu":40,"right_mu":32,"left_numbers":[28,32,23,31,40,39,21,27,27,47],"right_numbers":[32,37,31,31,44,22,45,26,38,39],"points_earned":317,"phase":"task","trial_type":"horizons-task","trial_index":85,"time_elapsed":918697,"internal_node_id":"0.0-81.0","task_version":"0.2"},{"response_times":[993,433,591,464,664],"keys_pressed":["leftarrow","leftarrow","rightarrow","rightarrow","rightarrow"],"horizon":5,"forced_choices":["leftarrow","leftarrow","rightarrow","rightarrow"],"right_color":"orange","left_color":"lightblue","left_mu":40,"right_mu":52,"left_numbers":[34,47,36,48,39],"right_numbers":[52,60,45,59,41],"points_earned":226,"phase":"task","trial_type":"horizons-task","trial_index":86,"time_elapsed":923345,"internal_node_id":"0.0-82.0","task_version":"0.2"},{"response_times":[592.9999999998836,576,456.0000000001164,440.9999999998836,3191,688,256,208.00000000011642,199.99999999988358,224],"keys_pressed":["leftarrow","leftarrow","rightarrow","rightarrow","leftarrow","leftarrow","leftarrow","leftarrow","leftarrow","leftarrow"],"horizon":10,"forced_choices":["leftarrow","leftarrow","rightarrow","rightarrow"],"right_color":"orange","left_color":"lightblue","left_mu":60,"right_mu":48,"left_numbers":[60,46,55,56,69,59,67,42,62,75],"right_numbers":[40,37,59,41,33,34,48,43,63,40],"points_earned":580,"phase":"task","trial_type":"horizons-task","trial_index":87,"time_elapsed":931681,"internal_node_id":"0.0-83.0","task_version":"0.2"},{"response_times":[601,368,559,488,1664,504,712,672,448,152.00000000011642],"keys_pressed":["leftarrow","rightarrow","rightarrow","rightarrow","rightarrow","leftarrow","leftarrow","rightarrow","rightarrow","rightarrow"],"horizon":10,"forced_choices":["leftarrow","rightarrow","rightarrow","rightarrow"],"right_color":"lightblue","left_color":"orange","left_mu":60,"right_mu":64,"left_numbers":[72,57,42,63,60,57,59,71,52,55],"right_numbers":[63,52,59,69,65,65,53,71,71,59],"points_earned":634,"phase":"task","trial_type":"horizons-task","trial_index":88,"time_elapsed":939352,"internal_node_id":"0.0-84.0","task_version":"0.2"},{"response_times":[497.0000000001164,455.9999999998836,552,808,1008],"keys_pressed":["rightarrow","leftarrow","leftarrow","leftarrow","leftarrow"],"horizon":5,"forced_choices":["rightarrow","leftarrow","leftarrow","leftarrow"],"right_color":"lightblue","left_color":"orange","left_mu":60,"right_mu":40,"left_numbers":[59,72,46,76,70],"right_numbers":[25,32,35,35,51],"points_earned":289,"phase":"task","trial_type":"horizons-task","trial_index":89,"time_elapsed":944177,"internal_node_id":"0.0-85.0","task_version":"0.2"},{"response_times":[472.9999999998836,424,624,504,1080,512,872,464,160,328],"keys_pressed":["leftarrow","rightarrow","rightarrow","rightarrow","leftarrow","rightarrow","rightarrow","leftarrow","leftarrow","leftarrow"],"horizon":10,"forced_choices":["leftarrow","rightarrow","rightarrow","rightarrow"],"right_color":"lightblue","left_color":"orange","left_mu":40,"right_mu":10,"left_numbers":[32,33,46,38,52,37,37,56,30,28],"right_numbers":[5,9,12,0,0,22,10,25,4,10],"points_earned":251,"phase":"task","trial_type":"horizons-task","trial_index":90,"time_elapsed":951120,"internal_node_id":"0.0-86.0","task_version":"0.2"},{"response_times":[649,353,583.0000000001164,503.9999999998836,704,184,200,176,184.00000000011642,271.9999999998836],"keys_pressed":["leftarrow","leftarrow","rightarrow","leftarrow","leftarrow","leftarrow","leftarrow","leftarrow","leftarrow","leftarrow"],"horizon":10,"forced_choices":["leftarrow","leftarrow","rightarrow","leftarrow"],"right_color":"orange","left_color":"lightblue","left_mu":40,"right_mu":32,"left_numbers":[46,41,37,36,35,58,30,47,43,39],"right_numbers":[43,36,38,36,13,29,25,33,40,38],"points_earned":413,"phase":"task","trial_type":"horizons-task","trial_index":91,"time_elapsed":956433,"internal_node_id":"0.0-87.0","task_version":"0.2"},{"rt":19756,"responses":{"age":"20","gender-categorical":"Male","gender-free-response":"","ethnicity":"Not Hispanic or Latino","race":["Asian"],"language":"Yes","fluency":"Very well"},"survey":"demographics","trial_type":"survey-demo","trial_index":92,"time_elapsed":976192,"internal_node_id":"0.0-88.0","task_version":"0.2"},{"rt":101673,"responses":{"difficulty":"5","fun":"4","clarity":"5","strategy":"find the average between the numbers on each given machine. It was simple, especially for the 5-game machines since the first 4 are chosen for you, making it quite easy to determine the average.","feedback":"It was quite enjoyable."},"survey":"debrief","trial_type":"survey-debrief","trial_index":93,"time_elapsed":1077867,"internal_node_id":"0.0-89.0","task_version":"0.2","interactions":"[]"}]