[{"view_history":"[{\"page_index\":0,\"viewing_time\":4111.2050000811}]","rt":4113.505000015721,"trial_type":"instructions","trial_index":0,"time_elapsed":4145,"internal_node_id":"0.0-0.0","task_version":"0.2"},{"item_order":[6,5,12,2,1,8,11,15,10,0,7,13,3,14,9,4],"responses":{"Q07":"3","Q06":"4","Q13":"3","Q03":"3","Q02":"3","Q09":"3","Q12":"3","Q16":"5","Q11":"4","Q01":"4","Q08":"3","Q14":"3","Q04":"3","Q15":"4","Q10":"2","Q05":"2"},"radio_events":[6366.32999998983,12397.980000008829,21663.484999909997,28305.69499998819,34257.8649999341,39235.27499998454,47023.58999999706,54839.18000000995,55909.29999994114,60505.675000022165,67209.54999991227,70816.69000000693,76273.79999996629,85240.94499996863,92019.46500001941,98803.76999999862,105694.19999991078],"key_events":[],"mouse_events":[0.23499992676079273,6366.32999998983,12397.980000008829,15725.749999983236,21663.484999909997,28305.69499998819,34257.8649999341,39235.27499998454,46232.80499991961,47023.58999999706,54079.945000004955,54839.18000000995,55909.29999994114,60505.675000022165,67209.54999991227,70816.69000000693,74567.37499998417,76273.79999996629,85240.94499996863,91551.06500000693,92019.46500001941,93487.68499994185,98803.76999999862,104872.08999996074,105694.19999991078,108871.70499993954],"rt":108879.16999997105,"survey":"nfc","trial_type":"survey-template","trial_index":1,"time_elapsed":113039,"internal_node_id":"0.0-1.0","task_version":"0.2"},{"item_order":[7,1,16,11,3,9,8,4,0,10,2,14,15,13,6,5,12],"responses":{"Q08":"2","Q02":"2","Q17":"0","Q12":"1","Q04":"3","Q10":"4","Q09":"1","Q05":"3","Q01":"3","Q11":"3","Q03":"4","Q15":"1","Q16":"2","Q14":"1","Q07":"2","Q06":"3","Q13":"3"},"radio_events":[9398.920000065118,11290.430000051856,14114.460000069812,21352.524999994785,24772.43500004988,28368.684999994002,36942.47999996878,40752.65000003856,49817.10500002373,60386.69000007212,64790.26999999769,68312.15000001248,76098.49500004202,80078.66999995895,84512.31999997981,90938.62500006799,96718.5949999839],"key_events":[],"mouse_events":[9398.920000065118,11290.430000051856,14114.460000069812,21352.524999994785,24772.43500004988,27886.045000050217,28368.684999994002,33290.32000002917,36942.47999996878,40752.65000003856,49817.10500002373,60386.69000007212,64790.26999999769,68312.15000001248,76098.49500004202,80078.66999995895,84512.31999997981,90938.62500006799,96107.90000006091,96718.5949999839,97212.68500003498,98519.07499996014],"rt":98525.7050000364,"survey":"pswq","trial_type":"survey-template","trial_index":2,"time_elapsed":211583,"internal_node_id":"0.0-2.0","task_version":"0.2"},{"item_order":[11,10,12,3,4,5,8,1,6,7,2,0,9],"responses":{"Q12":"1","Q11":"2","Q13":"4","Q04":"2","Q05":"1","Q06":"2","Q09":"1","Q02":"2","Q07":"2","Q08":"2","Q03":"2","Q01":"1","Q10":"1"},"radio_events":[5366.464999970049,10960.175000014715,12312.544999993406,19050.38999998942,24446.45499996841,30730.26999994181,35200.39499993436,40086.32999996189,42962.100000004284,47572.55000004079,52112.24000004586,55360.319999977946,59188.39499994647],"key_events":[],"mouse_events":[5366.464999970049,10960.175000014715,12312.544999993406,19050.38999998942,24446.45499996841,30730.26999994181,34518.535000039265,35200.39499993436,39220.39499995299,40086.32999996189,42962.100000004284,47572.55000004079,52112.24000004586,54654.38500000164,55360.319999977946,59188.39499994647,60172.57499997504],"rt":60177.46999999508,"survey":"ius12","trial_type":"survey-template","trial_index":3,"time_elapsed":271778,"internal_node_id":"0.0-3.0","task_version":"0.2"},{"view_history":"[{\"page_index\":0,\"viewing_time\":6403.684999910183},{\"page_index\":1,\"viewing_time\":6100.740000023507},{\"page_index\":2,\"viewing_time\":11843.055000063032},{\"page_index\":3,\"viewing_time\":11130.43999997899},{\"page_index\":4,\"viewing_time\":8427.279999945313},{\"page_index\":5,\"viewing_time\":5024.455000064336},{\"page_index\":6,\"viewing_time\":12386.204999987967},{\"page_index\":7,\"viewing_time\":11291.699999943376},{\"page_index\":8,\"viewing_time\":19968.09000009671},{\"page_index\":9,\"viewing_time\":6862.964999978431}]","rt":99439.10999991931,"trial_type":"instructions","trial_index":4,"time_elapsed":371227,"internal_node_id":"0.0-4.0-0.0","task_version":"0.2"},{"response_times":[1967.7649999503046,1324.9549999600276,798.354999977164,975.2050000242889,38055.39999995381],"keys_pressed":["rightarrow","leftarrow","rightarrow","rightarrow","leftarrow"],"horizon":5,"forced_choices":["rightarrow","leftarrow","rightarrow","rightarrow"],"right_color":"lightblue","left_color":"orange","left_mu":40,"right_mu":20,"left_numbers":[29,36,33,43,37],"right_numbers":[16,12,9,31,12],"points_earned":129,"phase":"practice","trial_type":"horizons-task","trial_index":5,"time_elapsed":415871,"internal_node_id":"0.0-4.0-1.0","task_version":"0.2"},{"response_times":[1703.2050000270829,814.1849999083206,725.7399999070913,758.0900000175461,10080.379999941215,3259.8200000356883,4327.545000007376,4620.120000094175,1587.2550000203773,36672.08499996923],"keys_pressed":["leftarrow","leftarrow","rightarrow","rightarrow","rightarrow","leftarrow","leftarrow","rightarrow","leftarrow","rightarrow"],"horizon":10,"forced_choices":["leftarrow","leftarrow","rightarrow","rightarrow"],"right_color":"orange","left_color":"lightblue","left_mu":60,"right_mu":70,"left_numbers":[61,47,61,58,59,78,54,69,77,59],"right_numbers":[73,66,77,76,63,87,66,74,66,72],"points_earned":679,"phase":"practice","trial_type":"horizons-task","trial_index":6,"time_elapsed":481924,"internal_node_id":"0.0-4.0-2.0","task_version":"0.2"},{"view_history":"[{\"page_index\":0,\"viewing_time\":2887.155000003986},{\"page_index\":1,\"viewing_time\":3218.2449999963865},{\"page_index\":2,\"viewing_time\":6251.8300000811},{\"page_index\":3,\"viewing_time\":2560.789999901317}]","rt":14918.405000003986,"trial_type":"instructions","trial_index":7,"time_elapsed":496845,"internal_node_id":"0.0-4.0-3.0","task_version":"0.2"},{"responses":["true","false","true"],"num_errors":0,"rt":13167.06000000704,"trial_type":"horizons-comprehension","trial_index":8,"time_elapsed":510045,"internal_node_id":"0.0-4.0-4.0","task_version":"0.2"},{"trial_type":"call-function","trial_index":9,"time_elapsed":510062,"internal_node_id":"0.0-5.0","task_version":"0.2"},{"view_history":"[{\"page_index\":0,\"viewing_time\":2609.9649999523535},{\"page_index\":1,\"viewing_time\":5730.700000072829}]","rt":8341.365000000224,"trial_type":"instructions","trial_index":10,"time_elapsed":518405,"internal_node_id":"0.0-6.0","task_version":"0.2"},{"response_times":[884.4849999295548,810.9050000784919,874.2400000337511,731.9600000046194,4081.6300000296906,2807.6350000919774,1446.8999999808148,2138.7200000463054,3878.815000061877,5592.029999941587],"keys_pressed":["rightarrow","leftarrow","leftarrow","leftarrow","rightarrow","rightarrow","leftarrow","rightarrow","leftarrow","rightarrow"],"horizon":10,"forced_choices":["rightarrow","leftarrow","leftarrow","leftarrow"],"right_color":"lightblue","left_color":"orange","left_mu":60,"right_mu":80,"left_numbers":[67,54,70,56,64,64,62,50,43,75],"right_numbers":[81,84,76,76,88,82,73,78,72,71],"points_earned":685,"phase":"task","trial_type":"horizons-task","trial_index":11,"time_elapsed":543168,"internal_node_id":"0.0-7.0","task_version":"0.2"},{"response_times":[1346.4350000722334,854.8200000077486,1007.6099999714643,893.2750000385568,1234.375,2490.525000030175,620.0449999887496,582.4850000208244,700.4250000463799,1200.5200000712648],"keys_pressed":["leftarrow","rightarrow","rightarrow","rightarrow","leftarrow","rightarrow","leftarrow","leftarrow","leftarrow","leftarrow"],"horizon":10,"forced_choices":["leftarrow","rightarrow","rightarrow","rightarrow"],"right_color":"orange","left_color":"lightblue","left_mu":40,"right_mu":20,"left_numbers":[37,41,40,37,25,35,41,40,35,57],"right_numbers":[26,11,9,6,32,25,14,16,13,33],"points_earned":286,"phase":"task","trial_type":"horizons-task","trial_index":12,"time_elapsed":555604,"internal_node_id":"0.0-8.0","task_version":"0.2"},{"response_times":[899.6650000335649,913.7549999868497,772.2550000762567,1422.069999971427,1761.7699999827892,4720.035000005737,1014.8649999173358,7715.474999975413,1144.730000058189,514.1799999400973],"keys_pressed":["leftarrow","rightarrow","leftarrow","leftarrow","rightarrow","leftarrow","rightarrow","rightarrow","rightarrow","rightarrow"],"horizon":10,"forced_choices":["leftarrow","rightarrow","leftarrow","leftarrow"],"right_color":"orange","left_color":"lightblue","left_mu":60,"right_mu":56,"left_numbers":[56,59,49,73,54,66,54,56,71,55],"right_numbers":[59,69,60,52,74,56,63,53,55,48],"points_earned":606,"phase":"task","trial_type":"horizons-task","trial_index":13,"time_elapsed":577988,"internal_node_id":"0.0-9.0","task_version":"0.2"},{"response_times":[944.0400000894442,558.7899999227375,970.8099999697879,922.0099999802187,2191.194999963045,1587.3999999603257,665.7650000415742,1077.629999956116,844.2999999970198,718.2800000300631],"keys_pressed":["leftarrow","rightarrow","rightarrow","rightarrow","leftarrow","rightarrow","leftarrow","leftarrow","leftarrow","leftarrow"],"horizon":10,"forced_choices":["leftarrow","rightarrow","rightarrow","rightarrow"],"right_color":"orange","left_color":"lightblue","left_mu":60,"right_mu":52,"left_numbers":[58,55,65,46,62,64,59,63,64,48],"right_numbers":[66,50,58,51,40,46,39,54,61,29],"points_earned":559,"phase":"task","trial_type":"horizons-task","trial_index":14,"time_elapsed":589973,"internal_node_id":"0.0-10.0","task_version":"0.2"},{"response_times":[900.8349999785423,626.700000022538,642.0250000664964,802.7749999891967,3118.400000035763,1364.875000086613,742.0850000344217,538.5399999795482,521.2400000309572,2067.280000075698],"keys_pressed":["rightarrow","leftarrow","rightarrow","rightarrow","leftarrow","rightarrow","rightarrow","rightarrow","rightarrow","rightarrow"],"horizon":10,"forced_choices":["rightarrow","leftarrow","rightarrow","rightarrow"],"right_color":"orange","left_color":"lightblue","left_mu":40,"right_mu":52,"left_numbers":[37,41,52,46,42,37,43,31,37,31],"right_numbers":[62,57,53,52,42,54,50,54,53,48],"points_earned":509,"phase":"task","trial_type":"horizons-task","trial_index":15,"time_elapsed":602804,"internal_node_id":"0.0-11.0","task_version":"0.2"},{"response_times":[747.220000019297,626.5499999281019,914.1499999677762,1073.8000000128523,14575.30000002589],"keys_pressed":["leftarrow","rightarrow","rightarrow","leftarrow","rightarrow"],"horizon":5,"forced_choices":["leftarrow","rightarrow","rightarrow","leftarrow"],"right_color":"lightblue","left_color":"orange","left_mu":60,"right_mu":64,"left_numbers":[69,56,56,50,62],"right_numbers":[50,60,60,57,66],"points_earned":305,"phase":"task","trial_type":"horizons-task","trial_index":16,"time_elapsed":622246,"internal_node_id":"0.0-12.0","task_version":"0.2"},{"response_times":[832.0600000442937,725.014999974519,581.1149999499321,903.4450000617653,3568.394999951124,1570.3000000212342,654.0950000053272,421.51999997440726,363.13999991398305,414.4899999955669],"keys_pressed":["rightarrow","rightarrow","leftarrow","rightarrow","leftarrow","rightarrow","rightarrow","rightarrow","rightarrow","rightarrow"],"horizon":10,"forced_choices":["rightarrow","rightarrow","leftarrow","rightarrow"],"right_color":"orange","left_color":"lightblue","left_mu":40,"right_mu":70,"left_numbers":[47,35,40,43,53,36,48,28,45,37],"right_numbers":[73,63,63,74,64,68,75,81,79,74],"points_earned":680,"phase":"task","trial_type":"horizons-task","trial_index":17,"time_elapsed":633784,"internal_node_id":"0.0-13.0","task_version":"0.2"},{"response_times":[1009.1999999713153,687.9099999787286,834.1149999760091,625.2549999626353,1802.1799999987707,1190.1450000004843,2403.4250000258908,1977.584999985993,364.2900000559166,489.7699999855831],"keys_pressed":["leftarrow","leftarrow","leftarrow","rightarrow","rightarrow","leftarrow","leftarrow","leftarrow","leftarrow","leftarrow"],"horizon":10,"forced_choices":["leftarrow","leftarrow","leftarrow","rightarrow"],"right_color":"lightblue","left_color":"orange","left_mu":40,"right_mu":32,"left_numbers":[33,34,42,27,45,40,40,40,44,44],"right_numbers":[32,23,32,25,25,33,39,29,23,38],"points_earned":367,"phase":"task","trial_type":"horizons-task","trial_index":18,"time_elapsed":646673,"internal_node_id":"0.0-14.0","task_version":"0.2"},{"response_times":[2183.089999947697,884.470000048168,653.6100000375882,1002.600000007078,1160.924999974668,798.0599999427795,472.6200000150129,1401.0299999499694,299.63499994482845,340.0849999161437],"keys_pressed":["rightarrow","rightarrow","leftarrow","leftarrow","rightarrow","leftarrow","leftarrow","leftarrow","leftarrow","leftarrow"],"horizon":10,"forced_choices":["rightarrow","rightarrow","leftarrow","leftarrow"],"right_color":"orange","left_color":"lightblue","left_mu":40,"right_mu":10,"left_numbers":[31,41,49,42,23,29,50,49,38,47],"right_numbers":[10,7,11,8,15,1,19,17,6,15],"points_earned":336,"phase":"task","trial_type":"horizons-task","trial_index":19,"time_elapsed":657374,"internal_node_id":"0.0-15.0","task_version":"0.2"},{"response_times":[1971.7449999880046,576.1649999767542,767.0700000599027,2128.6000000545755,7264.699999941513],"keys_pressed":["leftarrow","rightarrow","leftarrow","leftarrow","leftarrow"],"horizon":5,"forced_choices":["leftarrow","rightarrow","leftarrow","leftarrow"],"right_color":"orange","left_color":"lightblue","left_mu":60,"right_mu":56,"left_numbers":[55,60,62,58,60],"right_numbers":[50,44,51,52,56],"points_earned":279,"phase":"task","trial_type":"horizons-task","trial_index":20,"time_elapsed":671587,"internal_node_id":"0.0-16.0","task_version":"0.2"},{"response_times":[649.6700000716373,686.8750000139698,607.700000051409,1200.5950000602752,5542.750000022352],"keys_pressed":["leftarrow","leftarrow","rightarrow","rightarrow","rightarrow"],"horizon":5,"forced_choices":["leftarrow","leftarrow","rightarrow","rightarrow"],"right_color":"lightblue","left_color":"orange","left_mu":60,"right_mu":72,"left_numbers":[72,66,58,54,56],"right_numbers":[67,73,82,69,74],"points_earned":363,"phase":"task","trial_type":"horizons-task","trial_index":21,"time_elapsed":681780,"internal_node_id":"0.0-17.0","task_version":"0.2"},{"response_times":[730.4149999981746,544.6849999716505,554.4649999355897,535.8000000705943,4895.019999938086,825.4149999702349,5778.16999994684,513.7899999972433,412.88499999791384,322.23499997053295],"keys_pressed":["rightarrow","leftarrow","leftarrow","rightarrow","leftarrow","rightarrow","rightarrow","rightarrow","rightarrow","rightarrow"],"horizon":10,"forced_choices":["rightarrow","leftarrow","leftarrow","rightarrow"],"right_color":"orange","left_color":"lightblue","left_mu":60,"right_mu":56,"left_numbers":[46,41,60,60,52,36,56,63,55,55],"right_numbers":[52,45,55,61,43,53,65,69,51,50],"points_earned":554,"phase":"task","trial_type":"horizons-task","trial_index":22,"time_elapsed":698397,"internal_node_id":"0.0-18.0","task_version":"0.2"},{"response_times":[830.2299999631941,641.1700000753626,700.6850000470877,822.4149999441579,6302.649999968708],"keys_pressed":["leftarrow","leftarrow","rightarrow","rightarrow","rightarrow"],"horizon":5,"forced_choices":["leftarrow","leftarrow","rightarrow","rightarrow"],"right_color":"lightblue","left_color":"orange","left_mu":60,"right_mu":80,"left_numbers":[57,70,49,49,65],"right_numbers":[77,80,84,90,83],"points_earned":384,"phase":"task","trial_type":"horizons-task","trial_index":23,"time_elapsed":709199,"internal_node_id":"0.0-19.0","task_version":"0.2"},{"response_times":[700.7250000024214,716.6699999943376,612.0499999960884,565.5500000575557,3114.5950000500306,539.3499999772757,1307.314999983646,355.99500010721385,265.7749999780208,522.8300000308082],"keys_pressed":["rightarrow","leftarrow","leftarrow","rightarrow","leftarrow","rightarrow","rightarrow","rightarrow","rightarrow","rightarrow"],"horizon":10,"forced_choices":["rightarrow","leftarrow","leftarrow","rightarrow"],"right_color":"orange","left_color":"lightblue","left_mu":40,"right_mu":44,"left_numbers":[35,34,41,41,34,45,44,47,32,49],"right_numbers":[51,47,39,47,39,48,32,39,44,34],"points_earned":404,"phase":"task","trial_type":"horizons-task","trial_index":24,"time_elapsed":719404,"internal_node_id":"0.0-20.0","task_version":"0.2"},{"response_times":[555.2850000094622,558.7999999988824,568.4899999760091,576.5900000697002,2536.9649999774992,1236.8950000964105,6918.9799999585375,922.5749999750406,301.43500003032386,341.6800000704825],"keys_pressed":["leftarrow","rightarrow","leftarrow","rightarrow","leftarrow","rightarrow","rightarrow","rightarrow","rightarrow","rightarrow"],"horizon":10,"forced_choices":["leftarrow","rightarrow","leftarrow","rightarrow"],"right_color":"orange","left_color":"lightblue","left_mu":60,"right_mu":68,"left_numbers":[56,58,57,44,63,51,62,58,58,54],"right_numbers":[74,68,76,57,74,64,51,68,68,53],"points_earned":605,"phase":"task","trial_type":"horizons-task","trial_index":25,"time_elapsed":735427,"internal_node_id":"0.0-21.0","task_version":"0.2"},{"response_times":[767.7550000371411,1877.2949998965487,653.844999964349,707.8099999343976,3375.7550000445917,4894.860000000335,1074.324999935925,36063.17499990109,11652.219999930821,33628.18999995943],"keys_pressed":["leftarrow","leftarrow","rightarrow","leftarrow","rightarrow","leftarrow","rightarrow","rightarrow","leftarrow","leftarrow"],"horizon":10,"forced_choices":["leftarrow","leftarrow","rightarrow","leftarrow"],"right_color":"orange","left_color":"lightblue","left_mu":40,"right_mu":44,"left_numbers":[38,44,54,50,53,51,33,33,40,45],"right_numbers":[61,50,50,49,35,39,53,36,49,32],"points_earned":442,"phase":"task","trial_type":"horizons-task","trial_index":26,"time_elapsed":831628,"internal_node_id":"0.0-22.0","task_version":"0.2"},{"response_times":[1122.1199999563396,790.3549999464303,654.0850000455976,1141.1749999970198,6350.5049999803305],"keys_pressed":["leftarrow","rightarrow","leftarrow","leftarrow","leftarrow"],"horizon":5,"forced_choices":["leftarrow","rightarrow","leftarrow","leftarrow"],"right_color":"lightblue","left_color":"orange","left_mu":60,"right_mu":30,"left_numbers":[49,65,55,52,79],"right_numbers":[32,40,43,28,18],"points_earned":275,"phase":"task","trial_type":"horizons-task","trial_index":27,"time_elapsed":843192,"internal_node_id":"0.0-23.0","task_version":"0.2"},{"response_times":[807.6600000495091,917.6050000824034,1213.2999999448657,1098.839999991469,5736.659999936819],"keys_pressed":["rightarrow","rightarrow","leftarrow","leftarrow","leftarrow"],"horizon":5,"forced_choices":["rightarrow","rightarrow","leftarrow","leftarrow"],"right_color":"orange","left_color":"lightblue","left_mu":40,"right_mu":10,"left_numbers":[43,41,45,38,34],"right_numbers":[18,0,2,24,16],"points_earned":135,"phase":"task","trial_type":"horizons-task","trial_index":28,"time_elapsed":854472,"internal_node_id":"0.0-24.0","task_version":"0.2"},{"response_times":[1433.9799999725074,781.3200000673532,1051.75500002224,665.500000002794,54480.09500000626],"keys_pressed":["leftarrow","leftarrow","rightarrow","rightarrow","leftarrow"],"horizon":5,"forced_choices":["leftarrow","leftarrow","rightarrow","rightarrow"],"right_color":"lightblue","left_color":"orange","left_mu":40,"right_mu":36,"left_numbers":[33,44,48,36,44],"right_numbers":[31,39,27,40,33],"points_earned":188,"phase":"task","trial_type":"horizons-task","trial_index":29,"time_elapsed":914388,"internal_node_id":"0.0-25.0","task_version":"0.2"},{"response_times":[4988.194999983534,805.0300000468269,613.7200000230223,565.3600000077859,5119.580000056885,823.1949999462813,5713.920000009239,1168.0949999717996,9725.529999937862,703.7399999098852],"keys_pressed":["rightarrow","rightarrow","leftarrow","leftarrow","leftarrow","rightarrow","leftarrow","rightarrow","rightarrow","rightarrow"],"horizon":10,"forced_choices":["rightarrow","rightarrow","leftarrow","leftarrow"],"right_color":"orange","left_color":"lightblue","left_mu":40,"right_mu":60,"left_numbers":[36,26,30,51,49,38,48,40,34,38],"right_numbers":[51,65,59,72,69,62,59,53,58,52],"points_earned":519,"phase":"task","trial_type":"horizons-task","trial_index":30,"time_elapsed":946119,"internal_node_id":"0.0-26.0","task_version":"0.2"},{"response_times":[735.5349999852479,599.0200000815094,758.9750000042841,1022.4750000052154,19758.02000006661],"keys_pressed":["rightarrow","leftarrow","rightarrow","rightarrow","leftarrow"],"horizon":5,"forced_choices":["rightarrow","leftarrow","rightarrow","rightarrow"],"right_color":"orange","left_color":"lightblue","left_mu":40,"right_mu":28,"left_numbers":[46,32,54,45,47],"right_numbers":[35,41,17,8,23],"points_earned":139,"phase":"task","trial_type":"horizons-task","trial_index":31,"time_elapsed":970497,"internal_node_id":"0.0-27.0","task_version":"0.2"},{"response_times":[774.6749999932945,842.0550000155345,710.5999999912456,811.9900000747293,1590.3599999146536,2244.5349999470636,928.429999970831,1901.0849999031052,6263.024999992922,33774.4899999816],"keys_pressed":["rightarrow","rightarrow","rightarrow","leftarrow","leftarrow","leftarrow","rightarrow","leftarrow","rightarrow","leftarrow"],"horizon":10,"forced_choices":["rightarrow","rightarrow","rightarrow","leftarrow"],"right_color":"lightblue","left_color":"orange","left_mu":60,"right_mu":64,"left_numbers":[61,55,65,57,68,69,54,64,60,47],"right_numbers":[63,69,70,55,59,74,57,61,43,59],"points_earned":607,"phase":"task","trial_type":"horizons-task","trial_index":32,"time_elapsed":1021843,"internal_node_id":"0.0-28.0","task_version":"0.2"},{"response_times":[1078.2000001054257,448.80000001285225,584.6700000111014,1377.6749999960884,3315.610000048764,1004.3450000230223,2032.3649999918416,1236.3950000144541,1753.9199999300763,501.67999998666346],"keys_pressed":["leftarrow","rightarrow","rightarrow","leftarrow","leftarrow","rightarrow","leftarrow","rightarrow","rightarrow","rightarrow"],"horizon":10,"forced_choices":["leftarrow","rightarrow","rightarrow","leftarrow"],"right_color":"lightblue","left_color":"orange","left_mu":40,"right_mu":48,"left_numbers":[34,50,33,37,37,49,43,28,49,41],"right_numbers":[54,53,49,42,45,40,44,43,45,45],"points_earned":426,"phase":"task","trial_type":"horizons-task","trial_index":33,"time_elapsed":1036683,"internal_node_id":"0.0-29.0","task_version":"0.2"},{"response_times":[806.4449999947101,1006.6449999576434,1412.4200000660494,1013.2699999958277,5571.155000012368],"keys_pressed":["rightarrow","rightarrow","leftarrow","rightarrow","leftarrow"],"horizon":5,"forced_choices":["rightarrow","rightarrow","leftarrow","rightarrow"],"right_color":"lightblue","left_color":"orange","left_mu":40,"right_mu":48,"left_numbers":[39,48,52,34,38],"right_numbers":[33,43,46,39,45],"points_earned":205,"phase":"task","trial_type":"horizons-task","trial_index":34,"time_elapsed":1047997,"internal_node_id":"0.0-30.0","task_version":"0.2"},{"response_times":[930.2900000475347,732.4200000148267,681.6899999976158,1122.235000017099,8857.440000050701],"keys_pressed":["rightarrow","rightarrow","rightarrow","leftarrow","rightarrow"],"horizon":5,"forced_choices":["rightarrow","rightarrow","rightarrow","leftarrow"],"right_color":"lightblue","left_color":"orange","left_mu":60,"right_mu":64,"left_numbers":[60,52,58,60,66],"right_numbers":[54,61,67,38,58],"points_earned":300,"phase":"task","trial_type":"horizons-task","trial_index":35,"time_elapsed":1061827,"internal_node_id":"0.0-31.0","task_version":"0.2"},{"response_times":[1146.930000046268,635.8250000048429,872.1450000302866,779.9699999159202,5452.485000016168],"keys_pressed":["leftarrow","rightarrow","rightarrow","rightarrow","leftarrow"],"horizon":5,"forced_choices":["leftarrow","rightarrow","rightarrow","rightarrow"],"right_color":"orange","left_color":"lightblue","left_mu":60,"right_mu":52,"left_numbers":[61,49,62,50,56],"right_numbers":[40,41,54,51,51],"points_earned":263,"phase":"task","trial_type":"horizons-task","trial_index":36,"time_elapsed":1072219,"internal_node_id":"0.0-32.0","task_version":"0.2"},{"response_times":[711.2949999282137,1143.3650000253692,898.2450000476092,724.6850000228733,1948.9899999462068,2800.5300000077114,2531.5700001083314,3117.06000007689,575.524999992922,372.6899999892339],"keys_pressed":["rightarrow","leftarrow","leftarrow","leftarrow","rightarrow","rightarrow","leftarrow","rightarrow","rightarrow","rightarrow"],"horizon":10,"forced_choices":["rightarrow","leftarrow","leftarrow","leftarrow"],"right_color":"orange","left_color":"lightblue","left_mu":60,"right_mu":68,"left_numbers":[72,67,59,66,49,70,59,54,54,52],"right_numbers":[59,63,68,68,70,74,75,67,70,79],"points_earned":670,"phase":"task","trial_type":"horizons-task","trial_index":37,"time_elapsed":1088547,"internal_node_id":"0.0-33.0","task_version":"0.2"},{"response_times":[835.8800000278279,642.6199999405071,709.2249999986961,876.9450000254437,3967.3199999378994],"keys_pressed":["rightarrow","rightarrow","leftarrow","rightarrow","leftarrow"],"horizon":5,"forced_choices":["rightarrow","rightarrow","leftarrow","rightarrow"],"right_color":"lightblue","left_color":"orange","left_mu":60,"right_mu":40,"left_numbers":[69,53,66,56,40],"right_numbers":[50,34,40,33,42],"points_earned":223,"phase":"task","trial_type":"horizons-task","trial_index":38,"time_elapsed":1097084,"internal_node_id":"0.0-34.0","task_version":"0.2"},{"response_times":[647.2350000403821,975.330000044778,685.2750000543892,1159.0200000209734,42960.69999993779],"keys_pressed":["rightarrow","leftarrow","rightarrow","leftarrow","leftarrow"],"horizon":5,"forced_choices":["rightarrow","leftarrow","rightarrow","leftarrow"],"right_color":"lightblue","left_color":"orange","left_mu":60,"right_mu":40,"left_numbers":[64,52,72,56,59],"right_numbers":[45,43,54,53,50],"points_earned":266,"phase":"task","trial_type":"horizons-task","trial_index":39,"time_elapsed":1145017,"internal_node_id":"0.0-35.0","task_version":"0.2"},{"response_times":[1985.1000000489876,619.0349999815226,495.5349999945611,592.8250000579283,2234.1799999121577,705.6350000202656,650.5600000964478,328.9799999911338,396.44000004045665,556.1699999962002],"keys_pressed":["leftarrow","leftarrow","rightarrow","leftarrow","rightarrow","leftarrow","leftarrow","leftarrow","leftarrow","leftarrow"],"horizon":10,"forced_choices":["leftarrow","leftarrow","rightarrow","leftarrow"],"right_color":"orange","left_color":"lightblue","left_mu":40,"right_mu":10,"left_numbers":[34,39,39,39,35,37,42,39,34,32],"right_numbers":[7,0,13,0,6,3,0,5,10,19],"points_earned":315,"phase":"task","trial_type":"horizons-task","trial_index":40,"time_elapsed":1155087,"internal_node_id":"0.0-36.0","task_version":"0.2"},{"response_times":[621.6450000647455,525.0049999449402,524.4349999120459,1063.6250000679865,1127.7349999872968,2042.035000049509,1395.3350000083447,18953.95999995526,1668.184999958612,467.7699999883771],"keys_pressed":["rightarrow","leftarrow","rightarrow","rightarrow","leftarrow","rightarrow","leftarrow","leftarrow","leftarrow","leftarrow"],"horizon":10,"forced_choices":["rightarrow","leftarrow","rightarrow","rightarrow"],"right_color":"orange","left_color":"lightblue","left_mu":40,"right_mu":28,"left_numbers":[39,27,53,22,60,57,37,39,37,57],"right_numbers":[14,22,30,32,30,34,50,26,32,41],"points_earned":367,"phase":"task","trial_type":"horizons-task","trial_index":41,"time_elapsed":1184982,"internal_node_id":"0.0-37.0","task_version":"0.2"},{"response_times":[1026.6500000143424,425.93999998643994,528.1600001035258,530.2849999861792,2286.48999996949,628.5049999132752,1552.4549999972805,388.81999999284744,333.17999995779246,422.6300000445917],"keys_pressed":["leftarrow","rightarrow","leftarrow","rightarrow","leftarrow","rightarrow","leftarrow","leftarrow","leftarrow","leftarrow"],"horizon":10,"forced_choices":["leftarrow","rightarrow","leftarrow","rightarrow"],"right_color":"lightblue","left_color":"orange","left_mu":60,"right_mu":30,"left_numbers":[48,51,62,64,67,59,60,60,46,46],"right_numbers":[29,29,26,32,39,37,31,22,30,30],"points_earned":487,"phase":"task","trial_type":"horizons-task","trial_index":42,"time_elapsed":1194611,"internal_node_id":"0.0-38.0","task_version":"0.2"},{"response_times":[935.59499992989,675.954999984242,602.379999938421,611.2849999917671,6706.1899999389425],"keys_pressed":["leftarrow","leftarrow","leftarrow","rightarrow","rightarrow"],"horizon":5,"forced_choices":["leftarrow","leftarrow","leftarrow","rightarrow"],"right_color":"lightblue","left_color":"orange","left_mu":60,"right_mu":90,"left_numbers":[67,71,58,58,59],"right_numbers":[86,84,85,81,110],"points_earned":387,"phase":"task","trial_type":"horizons-task","trial_index":43,"time_elapsed":1205646,"internal_node_id":"0.0-39.0","task_version":"0.2"},{"response_times":[996.7799999285489,519.2600000882521,656.3699999824166,874.5199999539182,8184.6049999585375],"keys_pressed":["leftarrow","rightarrow","leftarrow","rightarrow","rightarrow"],"horizon":5,"forced_choices":["leftarrow","rightarrow","leftarrow","rightarrow"],"right_color":"orange","left_color":"lightblue","left_mu":40,"right_mu":52,"left_numbers":[46,31,40,45,29],"right_numbers":[52,59,55,58,52],"points_earned":255,"phase":"task","trial_type":"horizons-task","trial_index":44,"time_elapsed":1218382,"internal_node_id":"0.0-40.0","task_version":"0.2"},{"response_times":[1021.3600000133738,469.60999991279095,851.8049999838695,727.8700000606477,10272.984999930486],"keys_pressed":["leftarrow","rightarrow","rightarrow","rightarrow","leftarrow"],"horizon":5,"forced_choices":["leftarrow","rightarrow","rightarrow","rightarrow"],"right_color":"lightblue","left_color":"orange","left_mu":60,"right_mu":72,"left_numbers":[73,68,62,61,72],"right_numbers":[66,65,65,59,69],"points_earned":334,"phase":"task","trial_type":"horizons-task","trial_index":45,"time_elapsed":1233229,"internal_node_id":"0.0-41.0","task_version":"0.2"},{"response_times":[834.5350000308827,515.0699999649078,582.9999999841675,596.1450000759214,2256.389999995008,601.9800000358373,687.9249999765307,550.5100000882521,282.1450000628829,624.5900000212714],"keys_pressed":["leftarrow","rightarrow","leftarrow","rightarrow","leftarrow","rightarrow","rightarrow","rightarrow","rightarrow","rightarrow"],"horizon":10,"forced_choices":["leftarrow","rightarrow","leftarrow","rightarrow"],"right_color":"orange","left_color":"lightblue","left_mu":40,"right_mu":52,"left_numbers":[41,38,44,26,33,45,41,32,46,36],"right_numbers":[45,52,57,58,45,64,54,38,58,51],"points_earned":493,"phase":"task","trial_type":"horizons-task","trial_index":46,"time_elapsed":1242266,"internal_node_id":"0.0-42.0","task_version":"0.2"},{"response_times":[619.8099999455735,686.6849999642,609.2100000241771,967.9699999978766,2675.2350000897422,1937.7850000746548,319.05000004917383,239.99999999068677,217.0099999057129,355.0149999791756],"keys_pressed":["leftarrow","leftarrow","leftarrow","rightarrow","rightarrow","rightarrow","rightarrow","rightarrow","rightarrow","rightarrow"],"horizon":10,"forced_choices":["leftarrow","leftarrow","leftarrow","rightarrow"],"right_color":"lightblue","left_color":"orange","left_mu":60,"right_mu":90,"left_numbers":[62,44,56,50,51,64,43,59,40,64],"right_numbers":[78,90,83,86,87,81,84,74,94,83],"points_earned":751,"phase":"task","trial_type":"horizons-task","trial_index":47,"time_elapsed":1252399,"internal_node_id":"0.0-43.0","task_version":"0.2"},{"response_times":[862.5250000040978,587.8549999324605,916.289999964647,2521.9949999591336,4995.175000047311],"keys_pressed":["rightarrow","leftarrow","leftarrow","leftarrow","leftarrow"],"horizon":5,"forced_choices":["rightarrow","leftarrow","leftarrow","leftarrow"],"right_color":"lightblue","left_color":"orange","left_mu":60,"right_mu":48,"left_numbers":[65,64,49,63,39],"right_numbers":[49,53,46,54,61],"points_earned":264,"phase":"task","trial_type":"horizons-task","trial_index":48,"time_elapsed":1263787,"internal_node_id":"0.0-44.0","task_version":"0.2"},{"response_times":[972.4500000011176,559.6799999475479,708.7850000243634,990.4749999986961,16083.884999970905],"keys_pressed":["leftarrow","rightarrow","rightarrow","leftarrow","leftarrow"],"horizon":5,"forced_choices":["leftarrow","rightarrow","rightarrow","leftarrow"],"right_color":"lightblue","left_color":"orange","left_mu":60,"right_mu":48,"left_numbers":[65,67,57,53,59],"right_numbers":[40,47,52,59,48],"points_earned":276,"phase":"task","trial_type":"horizons-task","trial_index":49,"time_elapsed":1284608,"internal_node_id":"0.0-45.0","task_version":"0.2"},{"response_times":[4177.999999956228,474.3950000265613,648.4500000951812,1300.1550000626594,6404.650000040419],"keys_pressed":["rightarrow","leftarrow","leftarrow","leftarrow","rightarrow"],"horizon":5,"forced_choices":["rightarrow","leftarrow","leftarrow","leftarrow"],"right_color":"lightblue","left_color":"orange","left_mu":60,"right_mu":80,"left_numbers":[53,58,54,66,49],"right_numbers":[71,74,69,76,76],"points_earned":325,"phase":"task","trial_type":"horizons-task","trial_index":50,"time_elapsed":1299117,"internal_node_id":"0.0-46.0","task_version":"0.2"},{"view_history":"[{\"page_index\":0,\"viewing_time\":6372.319999965839},{\"page_index\":1,\"viewing_time\":2608.7200000183657}]","rt":8981.900000013411,"trial_type":"instructions","trial_index":51,"time_elapsed":1308101,"internal_node_id":"0.0-47.0","task_version":"0.2"},{"response_times":[1023.0049999663606,662.9699999466538,745.7100000465289,727.9600000474602,5463.365000090562],"keys_pressed":["rightarrow","rightarrow","leftarrow","rightarrow","rightarrow"],"horizon":5,"forced_choices":["rightarrow","rightarrow","leftarrow","rightarrow"],"right_color":"orange","left_color":"lightblue","left_mu":40,"right_mu":70,"left_numbers":[40,42,53,31,38],"right_numbers":[53,68,65,71,68],"points_earned":313,"phase":"task","trial_type":"horizons-task","trial_index":52,"time_elapsed":1318241,"internal_node_id":"0.0-48.0","task_version":"0.2"},{"response_times":[640.0499999290332,555.4550000233576,503.36499989498407,793.7249999959022,2214.8599999491125,3819.2000000271946,1406.3099999912083,11913.12000004109,14814.335000002757,2272.1349999774247],"keys_pressed":["rightarrow","rightarrow","rightarrow","leftarrow","leftarrow","leftarrow","rightarrow","leftarrow","leftarrow","leftarrow"],"horizon":10,"forced_choices":["rightarrow","rightarrow","rightarrow","leftarrow"],"right_color":"lightblue","left_color":"orange","left_mu":40,"right_mu":36,"left_numbers":[21,41,48,43,30,40,48,48,40,35],"right_numbers":[16,35,42,30,39,29,38,35,30,45],"points_earned":367,"phase":"task","trial_type":"horizons-task","trial_index":53,"time_elapsed":1358678,"internal_node_id":"0.0-49.0","task_version":"0.2"},{"response_times":[650.2400001045316,704.7599999932572,511.7200000677258,635.4999999748543,1714.4450000487268,1414.3199999816716,5663.135000038892,541.7699998943135,1758.2750000292435,455.85000002756715],"keys_pressed":["leftarrow","leftarrow","rightarrow","rightarrow","leftarrow","rightarrow","leftarrow","rightarrow","rightarrow","rightarrow"],"horizon":10,"forced_choices":["leftarrow","leftarrow","rightarrow","rightarrow"],"right_color":"lightblue","left_color":"orange","left_mu":60,"right_mu":72,"left_numbers":[66,59,69,67,56,51,57,68,77,52],"right_numbers":[73,64,59,75,60,58,63,62,75,58],"points_earned":625,"phase":"task","trial_type":"horizons-task","trial_index":54,"time_elapsed":1374233,"internal_node_id":"0.0-50.0","task_version":"0.2"},{"response_times":[680.2700000116602,569.9599999934435,724.9999999767169,704.1249999310821,7780.985000077635],"keys_pressed":["rightarrow","rightarrow","rightarrow","leftarrow","leftarrow"],"horizon":5,"forced_choices":["rightarrow","rightarrow","rightarrow","leftarrow"],"right_color":"lightblue","left_color":"orange","left_mu":40,"right_mu":36,"left_numbers":[47,34,38,51,47],"right_numbers":[23,33,39,42,24],"points_earned":193,"phase":"task","trial_type":"horizons-task","trial_index":55,"time_elapsed":1386197,"internal_node_id":"0.0-51.0","task_version":"0.2"},{"response_times":[548.160000005737,701.3750000623986,425.09500007145107,963.8300000224262,1677.214999916032],"keys_pressed":["rightarrow","leftarrow","rightarrow","leftarrow","leftarrow"],"horizon":5,"forced_choices":["rightarrow","leftarrow","rightarrow","leftarrow"],"right_color":"orange","left_color":"lightblue","left_mu":40,"right_mu":20,"left_numbers":[35,32,40,42,30],"right_numbers":[23,11,17,15,28],"points_earned":144,"phase":"task","trial_type":"horizons-task","trial_index":56,"time_elapsed":1392016,"internal_node_id":"0.0-52.0","task_version":"0.2"},{"response_times":[619.4700000341982,528.5099999746308,516.1100000841543,612.5949999550357,1786.3150000339374,3182.9150000121444,1563.3349999552593,443.7450000550598,543.4200000017881,568.28000000678],"keys_pressed":["rightarrow","rightarrow","leftarrow","rightarrow","leftarrow","leftarrow","leftarrow","leftarrow","leftarrow","leftarrow"],"horizon":10,"forced_choices":["rightarrow","rightarrow","leftarrow","rightarrow"],"right_color":"lightblue","left_color":"orange","left_mu":60,"right_mu":40,"left_numbers":[58,53,63,57,57,58,67,52,63,65],"right_numbers":[40,43,23,47,29,44,38,63,36,38],"points_earned":555,"phase":"task","trial_type":"horizons-task","trial_index":57,"time_elapsed":1403887,"internal_node_id":"0.0-53.0","task_version":"0.2"},{"response_times":[916.374999913387,671.7700000153854,489.1300000017509,596.1499999975786,1938.4050000226125,1282.2499999310821,437.1550000505522,342.960000038147,330.92500001657754,396.9299999298528],"keys_pressed":["leftarrow","leftarrow","rightarrow","leftarrow","rightarrow","leftarrow","rightarrow","rightarrow","rightarrow","rightarrow"],"horizon":10,"forced_choices":["leftarrow","leftarrow","rightarrow","leftarrow"],"right_color":"orange","left_color":"lightblue","left_mu":40,"right_mu":60,"left_numbers":[37,34,36,43,43,33,50,45,37,34],"right_numbers":[65,53,63,51,58,58,55,43,58,59],"points_earned":483,"phase":"task","trial_type":"horizons-task","trial_index":58,"time_elapsed":1412794,"internal_node_id":"0.0-54.0","task_version":"0.2"},{"response_times":[684.9850000580773,443.85999999940395,520.3850000398234,596.6000000480562,887.9500000039116],"keys_pressed":["leftarrow","rightarrow","leftarrow","rightarrow","leftarrow"],"horizon":5,"forced_choices":["leftarrow","rightarrow","leftarrow","rightarrow"],"right_color":"lightblue","left_color":"orange","left_mu":60,"right_mu":30,"left_numbers":[68,62,57,62,54],"right_numbers":[30,34,42,32,39],"points_earned":245,"phase":"task","trial_type":"horizons-task","trial_index":59,"time_elapsed":1417432,"internal_node_id":"0.0-55.0","task_version":"0.2"},{"response_times":[486.58999998588115,437.87499994505197,603.8599999155849,437.29500006884336,2064.4999999785796,609.3049999326468,582.2499999776483,365.80000002868474,245.85999990813434,326.8950000638142],"keys_pressed":["rightarrow","leftarrow","leftarrow","rightarrow","leftarrow","rightarrow","rightarrow","rightarrow","rightarrow","rightarrow"],"horizon":10,"forced_choices":["rightarrow","leftarrow","leftarrow","rightarrow"],"right_color":"orange","left_color":"lightblue","left_mu":40,"right_mu":70,"left_numbers":[38,45,51,28,47,37,34,33,33,43],"right_numbers":[64,69,69,74,80,68,79,64,69,71],"points_earned":632,"phase":"task","trial_type":"horizons-task","trial_index":60,"time_elapsed":1425097,"internal_node_id":"0.0-56.0","task_version":"0.2"},{"response_times":[491.4750000461936,532.6499999500811,845.7850000122562,964.3100000685081,25563.52500000503],"keys_pressed":["rightarrow","leftarrow","leftarrow","rightarrow","leftarrow"],"horizon":5,"forced_choices":["rightarrow","leftarrow","leftarrow","rightarrow"],"right_color":"orange","left_color":"lightblue","left_mu":60,"right_mu":52,"left_numbers":[55,62,64,67,73],"right_numbers":[47,50,64,63,47],"points_earned":309,"phase":"task","trial_type":"horizons-task","trial_index":61,"time_elapsed":1454999,"internal_node_id":"0.0-57.0","task_version":"0.2"},{"response_times":[1048.2099999208003,461.2050000578165,658.1500000320375,792.3500000033528,1043.7750000273809],"keys_pressed":["leftarrow","rightarrow","rightarrow","leftarrow","rightarrow"],"horizon":5,"forced_choices":["leftarrow","rightarrow","rightarrow","leftarrow"],"right_color":"lightblue","left_color":"orange","left_mu":40,"right_mu":48,"left_numbers":[21,15,45,33,38],"right_numbers":[67,49,43,48,43],"points_earned":189,"phase":"task","trial_type":"horizons-task","trial_index":62,"time_elapsed":1460507,"internal_node_id":"0.0-58.0","task_version":"0.2"},{"response_times":[698.5700000077486,401.8200000282377,551.3049999717623,611.5400000708178,1513.3499999064952],"keys_pressed":["leftarrow","rightarrow","leftarrow","rightarrow","rightarrow"],"horizon":5,"forced_choices":["leftarrow","rightarrow","leftarrow","rightarrow"],"right_color":"lightblue","left_color":"orange","left_mu":60,"right_mu":90,"left_numbers":[49,68,61,49,61],"right_numbers":[96,82,83,92,82],"points_earned":366,"phase":"task","trial_type":"horizons-task","trial_index":63,"time_elapsed":1465790,"internal_node_id":"0.0-59.0","task_version":"0.2"},{"response_times":[529.8049999400973,520.2699999790639,561.1500000813976,1073.6249999608845,1557.3050000239164],"keys_pressed":["leftarrow","leftarrow","rightarrow","leftarrow","leftarrow"],"horizon":5,"forced_choices":["leftarrow","leftarrow","rightarrow","leftarrow"],"right_color":"orange","left_color":"lightblue","left_mu":40,"right_mu":10,"left_numbers":[41,50,32,45,36],"right_numbers":[10,16,21,18,14],"points_earned":193,"phase":"task","trial_type":"horizons-task","trial_index":64,"time_elapsed":1471538,"internal_node_id":"0.0-60.0","task_version":"0.2"},{"response_times":[676.2400000588968,562.1599999722093,500.8449999149889,526.0199999902397,3319.535000016913,658.8800000026822,741.1299999803305,533.2599999383092,765.0849999627098,471.23999998439103],"keys_pressed":["rightarrow","rightarrow","leftarrow","leftarrow","rightarrow","leftarrow","leftarrow","leftarrow","leftarrow","leftarrow"],"horizon":10,"forced_choices":["rightarrow","rightarrow","leftarrow","leftarrow"],"right_color":"lightblue","left_color":"orange","left_mu":40,"right_mu":32,"left_numbers":[32,27,36,32,43,38,38,45,53,39],"right_numbers":[38,27,30,38,19,28,40,38,36,45],"points_earned":365,"phase":"task","trial_type":"horizons-task","trial_index":65,"time_elapsed":1481798,"internal_node_id":"0.0-61.0","task_version":"0.2"},{"response_times":[541.8500000378117,677.4699999950826,614.670000039041,856.1600000830367,10369.270000024699],"keys_pressed":["rightarrow","leftarrow","leftarrow","rightarrow","leftarrow"],"horizon":5,"forced_choices":["rightarrow","leftarrow","leftarrow","rightarrow"],"right_color":"orange","left_color":"lightblue","left_mu":60,"right_mu":56,"left_numbers":[56,62,55,50,69],"right_numbers":[50,48,69,57,63],"points_earned":293,"phase":"task","trial_type":"horizons-task","trial_index":66,"time_elapsed":1496362,"internal_node_id":"0.0-62.0","task_version":"0.2"},{"response_times":[436.02000002283603,551.3250000076368,496.6599999461323,852.7400000020862,767.035000026226],"keys_pressed":["rightarrow","rightarrow","leftarrow","leftarrow","rightarrow"],"horizon":5,"forced_choices":["rightarrow","rightarrow","leftarrow","leftarrow"],"right_color":"orange","left_color":"lightblue","left_mu":40,"right_mu":60,"left_numbers":[47,44,32,48,45],"right_numbers":[62,59,66,51,56],"points_earned":257,"phase":"task","trial_type":"horizons-task","trial_index":67,"time_elapsed":1500970,"internal_node_id":"0.0-63.0","task_version":"0.2"},{"response_times":[1960.3199999546632,615.870000096038,588.3400000166148,638.4450000477955,3801.7649999819696],"keys_pressed":["rightarrow","leftarrow","leftarrow","rightarrow","leftarrow"],"horizon":5,"forced_choices":["rightarrow","leftarrow","leftarrow","rightarrow"],"right_color":"orange","left_color":"lightblue","left_mu":40,"right_mu":44,"left_numbers":[50,31,48,41,41],"right_numbers":[35,53,43,32,40],"points_earned":187,"phase":"task","trial_type":"horizons-task","trial_index":68,"time_elapsed":1510079,"internal_node_id":"0.0-64.0","task_version":"0.2"},{"response_times":[613.9050000347197,451.87499991152436,504.7149999300018,568.1199999526143,2357.6299999840558,584.5500000286847,2165.625000023283,2589.3999999389052,708.6249999701977,746.0749999154359],"keys_pressed":["rightarrow","leftarrow","rightarrow","leftarrow","leftarrow","rightarrow","leftarrow","rightarrow","leftarrow","leftarrow"],"horizon":10,"forced_choices":["rightarrow","leftarrow","rightarrow","leftarrow"],"right_color":"orange","left_color":"lightblue","left_mu":40,"right_mu":28,"left_numbers":[39,27,40,45,47,47,30,46,30,31],"right_numbers":[27,25,37,19,21,28,38,36,38,29],"points_earned":338,"phase":"task","trial_type":"horizons-task","trial_index":69,"time_elapsed":1522874,"internal_node_id":"0.0-65.0","task_version":"0.2"},{"response_times":[765.0949999224395,395.8150000544265,447.9849999770522,533.8400000473484,541.315000038594,911.1499999416992,473.1550000142306,293.9199999673292,279.2749999789521,432.4499999638647],"keys_pressed":["leftarrow","rightarrow","leftarrow","leftarrow","rightarrow","leftarrow","leftarrow","leftarrow","leftarrow","leftarrow"],"horizon":10,"forced_choices":["leftarrow","rightarrow","leftarrow","leftarrow"],"right_color":"lightblue","left_color":"orange","left_mu":60,"right_mu":30,"left_numbers":[53,63,76,66,52,70,56,44,71,61],"right_numbers":[29,23,27,43,13,31,32,35,32,21],"points_earned":533,"phase":"task","trial_type":"horizons-task","trial_index":70,"time_elapsed":1529453,"internal_node_id":"0.0-66.0","task_version":"0.2"},{"response_times":[591.1949999863282,690.9149999264628,459.79500003159046,1359.3099999707192,2607.064999989234],"keys_pressed":["leftarrow","leftarrow","rightarrow","leftarrow","rightarrow"],"horizon":5,"forced_choices":["leftarrow","leftarrow","rightarrow","leftarrow"],"right_color":"orange","left_color":"lightblue","left_mu":40,"right_mu":60,"left_numbers":[28,34,47,34,40],"right_numbers":[64,54,64,51,66],"points_earned":226,"phase":"task","trial_type":"horizons-task","trial_index":71,"time_elapsed":1536666,"internal_node_id":"0.0-67.0","task_version":"0.2"},{"response_times":[800.2299999352545,451.11000002361834,695.7649999530986,537.6300000352785,2316.4949999190867,561.0549999400973,7609.080000082031,450.77500003390014,224.989999900572,342.13000000454485],"keys_pressed":["leftarrow","rightarrow","rightarrow","leftarrow","leftarrow","rightarrow","rightarrow","rightarrow","rightarrow","rightarrow"],"horizon":10,"forced_choices":["leftarrow","rightarrow","rightarrow","leftarrow"],"right_color":"lightblue","left_color":"orange","left_mu":60,"right_mu":64,"left_numbers":[48,60,62,67,52,63,78,65,54,60],"right_numbers":[71,52,64,67,56,70,59,61,60,69],"points_earned":602,"phase":"task","trial_type":"horizons-task","trial_index":72,"time_elapsed":1552160,"internal_node_id":"0.0-68.0","task_version":"0.2"},{"response_times":[479.6199999982491,629.2299999622628,528.4900000551715,625.0400000717491,22113.38499991689],"keys_pressed":["rightarrow","leftarrow","leftarrow","leftarrow","rightarrow"],"horizon":5,"forced_choices":["rightarrow","leftarrow","leftarrow","leftarrow"],"right_color":"orange","left_color":"lightblue","left_mu":60,"right_mu":68,"left_numbers":[60,57,42,47,70],"right_numbers":[54,64,63,54,95],"points_earned":295,"phase":"task","trial_type":"horizons-task","trial_index":73,"time_elapsed":1578040,"internal_node_id":"0.0-69.0","task_version":"0.2"},{"response_times":[622.5950000807643,676.3300000457093,460.5100000044331,646.6500000096858,3897.480000043288,740.7449999591336,475.32999992836267,284.85499997623265,294.8249999899417,383.79500003065914],"keys_pressed":["rightarrow","leftarrow","rightarrow","leftarrow","leftarrow","leftarrow","leftarrow","leftarrow","leftarrow","leftarrow"],"horizon":10,"forced_choices":["rightarrow","leftarrow","rightarrow","leftarrow"],"right_color":"lightblue","left_color":"orange","left_mu":60,"right_mu":40,"left_numbers":[63,63,55,64,63,71,64,69,66,48],"right_numbers":[43,39,30,37,36,45,41,33,50,44],"points_earned":581,"phase":"task","trial_type":"horizons-task","trial_index":74,"time_elapsed":1588028,"internal_node_id":"0.0-70.0","task_version":"0.2"},{"response_times":[620.6999999703839,444.1400000359863,645.2649999409914,865.8950000535697,6335.699999937788],"keys_pressed":["leftarrow","rightarrow","rightarrow","rightarrow","leftarrow"],"horizon":5,"forced_choices":["leftarrow","rightarrow","rightarrow","rightarrow"],"right_color":"orange","left_color":"lightblue","left_mu":40,"right_mu":20,"left_numbers":[37,24,36,49,44],"right_numbers":[12,38,12,21,19],"points_earned":152,"phase":"task","trial_type":"horizons-task","trial_index":75,"time_elapsed":1598445,"internal_node_id":"0.0-71.0","task_version":"0.2"},{"response_times":[624.9250000109896,360.4950000299141,404.7749999444932,434.3750000698492,1343.3100000256673,368.95000003278255,221.40999999828637,240.05000002216548,220.33000004012138,330.7600000407547],"keys_pressed":["leftarrow","rightarrow","leftarrow","rightarrow","rightarrow","rightarrow","rightarrow","rightarrow","rightarrow","rightarrow"],"horizon":10,"forced_choices":["leftarrow","rightarrow","leftarrow","rightarrow"],"right_color":"lightblue","left_color":"orange","left_mu":60,"right_mu":90,"left_numbers":[54,70,55,53,40,64,66,52,57,52],"right_numbers":[79,89,82,93,73,75,91,93,89,89],"points_earned":801,"phase":"task","trial_type":"horizons-task","trial_index":76,"time_elapsed":1604499,"internal_node_id":"0.0-72.0","task_version":"0.2"},{"response_times":[741.1099999444559,463.5850000195205,750.1700000138953,869.13500004448,2199.9099999666214,1964.5350000355393,1471.0150000173599,291.1800000583753,255.08499995339662,279.70499999355525],"keys_pressed":["rightarrow","leftarrow","leftarrow","leftarrow","rightarrow","leftarrow","leftarrow","leftarrow","leftarrow","leftarrow"],"horizon":10,"forced_choices":["rightarrow","leftarrow","leftarrow","leftarrow"],"right_color":"lightblue","left_color":"orange","left_mu":60,"right_mu":48,"left_numbers":[58,61,67,52,56,57,55,64,65,58],"right_numbers":[51,44,49,58,55,36,31,49,39,34],"points_earned":585,"phase":"task","trial_type":"horizons-task","trial_index":77,"time_elapsed":1615290,"internal_node_id":"0.0-73.0","task_version":"0.2"},{"response_times":[630.2500000456348,574.8199999798089,568.1450000265613,625.3700000233948,1855.5450000567362],"keys_pressed":["rightarrow","rightarrow","leftarrow","leftarrow","leftarrow"],"horizon":5,"forced_choices":["rightarrow","rightarrow","leftarrow","leftarrow"],"right_color":"lightblue","left_color":"orange","left_mu":40,"right_mu":32,"left_numbers":[31,35,44,28,40],"right_numbers":[27,28,38,46,32],"points_earned":167,"phase":"task","trial_type":"horizons-task","trial_index":78,"time_elapsed":1621049,"internal_node_id":"0.0-74.0","task_version":"0.2"},{"response_times":[497.3100000061095,386.5549999754876,616.6400000220165,449.2499999469146,1792.7399999462068,1474.7900000074878,1529.7049999935552,257.3600000469014,258.475000038743,274.20500002335757],"keys_pressed":["leftarrow","rightarrow","rightarrow","leftarrow","leftarrow","rightarrow","leftarrow","leftarrow","leftarrow","leftarrow"],"horizon":10,"forced_choices":["leftarrow","rightarrow","rightarrow","leftarrow"],"right_color":"lightblue","left_color":"orange","left_mu":60,"right_mu":48,"left_numbers":[51,48,57,56,66,58,53,61,64,52],"right_numbers":[43,53,40,62,61,52,51,51,44,49],"points_earned":548,"phase":"task","trial_type":"horizons-task","trial_index":79,"time_elapsed":1630091,"internal_node_id":"0.0-75.0","task_version":"0.2"},{"response_times":[529.1450000368059,412.0600000023842,624.7750000329688,508.67999996989965,1033.6399999214336],"keys_pressed":["rightarrow","leftarrow","leftarrow","rightarrow","rightarrow"],"horizon":5,"forced_choices":["rightarrow","leftarrow","leftarrow","rightarrow"],"right_color":"orange","left_color":"lightblue","left_mu":40,"right_mu":70,"left_numbers":[44,34,32,52,36],"right_numbers":[63,65,80,73,66],"points_earned":268,"phase":"task","trial_type":"horizons-task","trial_index":80,"time_elapsed":1634704,"internal_node_id":"0.0-76.0","task_version":"0.2"},{"response_times":[646.5499999467283,509.6899999771267,508.8900000555441,806.9150000810623,11373.800000059418],"keys_pressed":["rightarrow","leftarrow","rightarrow","leftarrow","leftarrow"],"horizon":5,"forced_choices":["rightarrow","leftarrow","rightarrow","leftarrow"],"right_color":"orange","left_color":"lightblue","left_mu":40,"right_mu":28,"left_numbers":[29,30,50,51,51],"right_numbers":[19,21,30,27,30],"points_earned":181,"phase":"task","trial_type":"horizons-task","trial_index":81,"time_elapsed":1650054,"internal_node_id":"0.0-77.0","task_version":"0.2"},{"response_times":[642.5349999917671,568.2799998903647,497.1299999160692,613.454999984242,2163.414999959059,691.2849999498576,822.9500000597909,278.8450000807643,240.67500000819564,292.42499999236315],"keys_pressed":["rightarrow","rightarrow","leftarrow","rightarrow","leftarrow","rightarrow","rightarrow","rightarrow","rightarrow","rightarrow"],"horizon":10,"forced_choices":["rightarrow","rightarrow","leftarrow","rightarrow"],"right_color":"lightblue","left_color":"orange","left_mu":40,"right_mu":48,"left_numbers":[26,29,35,36,30,32,46,54,47,52],"right_numbers":[42,49,52,53,50,55,51,32,50,59],"points_earned":456,"phase":"task","trial_type":"horizons-task","trial_index":82,"time_elapsed":1658370,"internal_node_id":"0.0-78.0","task_version":"0.2"},{"response_times":[602.7250000042841,502.3199999704957,462.59000001009554,539.1450000461191,3295.035000075586,550.4000000655651,433.68500005453825,240.4300000052899,319.954999955371,316.4849999593571],"keys_pressed":["rightarrow","leftarrow","rightarrow","leftarrow","rightarrow","leftarrow","leftarrow","leftarrow","leftarrow","leftarrow"],"horizon":10,"forced_choices":["rightarrow","leftarrow","rightarrow","leftarrow"],"right_color":"orange","left_color":"lightblue","left_mu":40,"right_mu":20,"left_numbers":[46,47,36,44,48,46,47,44,32,31],"right_numbers":[26,32,27,7,14,20,24,16,13,32],"points_earned":358,"phase":"task","trial_type":"horizons-task","trial_index":83,"time_elapsed":1667137,"internal_node_id":"0.0-79.0","task_version":"0.2"},{"response_times":[524.2200000211596,439.8450000444427,458.8950000470504,974.0799999563023,1499.5199999539182],"keys_pressed":["rightarrow","leftarrow","rightarrow","rightarrow","rightarrow"],"horizon":5,"forced_choices":["rightarrow","leftarrow","rightarrow","rightarrow"],"right_color":"orange","left_color":"lightblue","left_mu":40,"right_mu":52,"left_numbers":[34,38,48,34,43],"right_numbers":[49,42,56,60,66],"points_earned":269,"phase":"task","trial_type":"horizons-task","trial_index":84,"time_elapsed":1672539,"internal_node_id":"0.0-80.0","task_version":"0.2"},{"response_times":[798.6950000049546,397.8099999949336,682.8850000165403,766.7849999852479,1259.970000013709,3988.825000007637,2978.705000015907,21565.659999963827,2103.6199999507517,324.8250000178814],"keys_pressed":["leftarrow","rightarrow","rightarrow","rightarrow","leftarrow","leftarrow","rightarrow","rightarrow","rightarrow","rightarrow"],"horizon":10,"forced_choices":["leftarrow","rightarrow","rightarrow","rightarrow"],"right_color":"lightblue","left_color":"orange","left_mu":60,"right_mu":72,"left_numbers":[84,72,59,60,63,61,57,53,66,54],"right_numbers":[81,59,81,75,75,49,58,73,87,69],"points_earned":710,"phase":"task","trial_type":"horizons-task","trial_index":85,"time_elapsed":1708912,"internal_node_id":"0.0-81.0","task_version":"0.2"},{"response_times":[1327.419999986887,2216.340000042692,847.8200000245124,2344.664999982342,3549.349999986589,474.95000006165355,221.44999995362014,218.7849999172613,214.69499997328967,328.4799999091774],"keys_pressed":["leftarrow","leftarrow","rightarrow","rightarrow","rightarrow","rightarrow","rightarrow","rightarrow","rightarrow","rightarrow"],"horizon":10,"forced_choices":["leftarrow","leftarrow","rightarrow","rightarrow"],"right_color":"lightblue","left_color":"orange","left_mu":60,"right_mu":80,"left_numbers":[64,52,48,62,52,54,56,63,58,58],"right_numbers":[74,73,80,70,79,83,72,83,79,81],"points_earned":743,"phase":"task","trial_type":"horizons-task","trial_index":86,"time_elapsed":1722162,"internal_node_id":"0.0-82.0","task_version":"0.2"},{"response_times":[803.4650000045076,571.6900000115857,677.460000035353,502.36499996390194,2485.814999905415,716.0649999277666,22575.12999989558,5315.605000010692,346.7549999477342,293.2400000281632],"keys_pressed":["leftarrow","leftarrow","rightarrow","rightarrow","leftarrow","rightarrow","leftarrow","leftarrow","leftarrow","leftarrow"],"horizon":10,"forced_choices":["leftarrow","leftarrow","rightarrow","rightarrow"],"right_color":"lightblue","left_color":"orange","left_mu":40,"right_mu":36,"left_numbers":[55,34,39,35,31,49,44,42,45,60],"right_numbers":[30,34,40,37,39,42,46,48,35,48],"points_earned":430,"phase":"task","trial_type":"horizons-task","trial_index":87,"time_elapsed":1757954,"internal_node_id":"0.0-83.0","task_version":"0.2"},{"response_times":[875.5400000372902,545.6449999473989,635.4800000553951,504.5950000640005,2401.8099999520928,1660.6700000120327,1767.6699999719858,224.76500004995614,199.6150000486523,210.85500007029623],"keys_pressed":["rightarrow","leftarrow","leftarrow","rightarrow","leftarrow","rightarrow","leftarrow","leftarrow","leftarrow","leftarrow"],"horizon":10,"forced_choices":["rightarrow","leftarrow","leftarrow","rightarrow"],"right_color":"orange","left_color":"lightblue","left_mu":60,"right_mu":52,"left_numbers":[58,72,63,67,49,70,56,64,49,64],"right_numbers":[46,44,41,40,53,31,57,55,55,45],"points_earned":534,"phase":"task","trial_type":"horizons-task","trial_index":88,"time_elapsed":1768485,"internal_node_id":"0.0-84.0","task_version":"0.2"},{"response_times":[642.5850000232458,542.5999999279156,461.2900000065565,556.3850000035018,2504.755000001751],"keys_pressed":["leftarrow","leftarrow","rightarrow","leftarrow","rightarrow"],"horizon":5,"forced_choices":["leftarrow","leftarrow","rightarrow","leftarrow"],"right_color":"orange","left_color":"lightblue","left_mu":40,"right_mu":44,"left_numbers":[34,28,33,34,42],"right_numbers":[51,26,41,41,60],"points_earned":197,"phase":"task","trial_type":"horizons-task","trial_index":89,"time_elapsed":1774697,"internal_node_id":"0.0-85.0","task_version":"0.2"},{"response_times":[518.7249999726191,453.9349999977276,533.7349999463186,525.6749999243766,3547.275000018999],"keys_pressed":["leftarrow","leftarrow","leftarrow","rightarrow","leftarrow"],"horizon":5,"forced_choices":["leftarrow","leftarrow","leftarrow","rightarrow"],"right_color":"lightblue","left_color":"orange","left_mu":40,"right_mu":32,"left_numbers":[43,38,38,55,21],"right_numbers":[40,36,7,32,36],"points_earned":172,"phase":"task","trial_type":"horizons-task","trial_index":90,"time_elapsed":1781780,"internal_node_id":"0.0-86.0","task_version":"0.2"},{"response_times":[624.7049999656156,503.8199999835342,545.4450000543147,703.0749999685213,3323.5599999316037],"keys_pressed":["leftarrow","rightarrow","leftarrow","rightarrow","rightarrow"],"horizon":5,"forced_choices":["leftarrow","rightarrow","leftarrow","rightarrow"],"right_color":"orange","left_color":"lightblue","left_mu":60,"right_mu":68,"left_numbers":[61,54,65,61,61],"right_numbers":[68,68,68,75,70],"points_earned":339,"phase":"task","trial_type":"horizons-task","trial_index":91,"time_elapsed":1788985,"internal_node_id":"0.0-87.0","task_version":"0.2"},{"rt":18774.940000032075,"responses":{"age":"28","gender-categorical":"Male","gender-free-response":"","ethnicity":"Not Hispanic or Latino","race":["Asian"],"language":"Yes","fluency":"Very well"},"survey":"demographics","trial_type":"survey-demo","trial_index":92,"time_elapsed":1807769,"internal_node_id":"0.0-88.0","task_version":"0.2"},{"rt":35452.14000006672,"responses":{"difficulty":"3","fun":"4","clarity":"4","strategy":"Calculated averages","feedback":""},"survey":"debrief","trial_type":"survey-debrief","trial_index":93,"time_elapsed":1843244,"internal_node_id":"0.0-89.0","task_version":"0.2","interactions":"[]"}]