[{"view_history":"[{\"page_index\":0,\"viewing_time\":1678.2950001070276}]","rt":1678.6100000608712,"trial_type":"instructions","trial_index":0,"time_elapsed":1684,"internal_node_id":"0.0-0.0","task_version":"0.2"},{"item_order":[4,1,7,2,11,0,3,12,5,8,10,9,6],"responses":{"Q05":"4","Q02":"3","Q08":"1","Q03":"4","Q12":"3","Q01":"3","Q04":"3","Q13":"4","Q06":"4","Q09":"4","Q11":"3","Q10":"3","Q07":"4"},"radio_events":[4980.905000003986,7524.600000004284,10644.39500006847,14884.480000007898,15692.585000069812,18636.440000031143,20860.444999998435,25228.2600000035,33204.58999997936,34956.34500007145,38788.490000064485,39796.63500003517,43724.39500002656],"key_events":[],"mouse_events":[0.059999991208314896,4980.905000003986,7524.600000004284,10644.39500006847,12748.48499998916,14884.480000007898,15692.585000069812,18636.440000031143,20860.444999998435,25228.2600000035,33204.58999997936,34956.34500007145,37428.27500007115,38788.490000064485,39796.63500003517,43724.39500002656,45268.385000061244],"rt":45270.52999997977,"survey":"ius12","trial_type":"survey-template","trial_index":1,"time_elapsed":46958,"internal_node_id":"0.0-1.0","task_version":"0.2"},{"item_order":[11,15,12,0,9,5,1,4,3,10,6,14,2,8,16,7,13],"responses":{"Q12":"4","Q16":"4","Q13":"3","Q01":"2","Q10":"4","Q06":"3","Q02":"4","Q05":"4","Q04":"4","Q11":"4","Q07":"4","Q15":"4","Q03":"4","Q09":"2","Q17":"0","Q08":"3","Q14":"3"},"radio_events":[4911.785000003874,5960.145000019111,8616.199999931268,12855.849999934435,15511.964999954216,19079.69000004232,25143.86499999091,27720.130000030622,30223.96500001196,33167.84499993082,34783.895000000484,71351.87999997288,74463.88499997556,77975.81999993417,80815.76499994844,83903.87499995995,86216.06000000611,91663.77999994438,94999.76000003517,101191.58500002231],"key_events":[],"mouse_events":[3599.9099999899045,4911.785000003874,5960.145000019111,8616.199999931268,12048.225000035018,12855.849999934435,15511.964999954216,17560.289999935776,18231.640000012703,19079.69000004232,24448.11999995727,24799.70999993384,25143.86499999091,27240.035000024363,27720.130000030622,30223.96500001196,33167.84499993082,34783.895000000484,71351.87999997288,74463.88499997556,77975.81999993417,80815.76499994844,82599.90499995183,83903.87499995995,86216.06000000611,91663.77999994438,94999.76000003517,100671.8300000066,101191.58500002231,106015.86000004318],"rt":106018.29999999609,"survey":"pswq","trial_type":"survey-template","trial_index":2,"time_elapsed":152983,"internal_node_id":"0.0-2.0","task_version":"0.2"},{"item_order":[11,3,0,2,6,12,14,15,9,7,13,8,4,10,1,5],"responses":{"Q12":"5","Q04":"3","Q01":"5","Q03":"5","Q07":"4","Q13":"5","Q15":"5","Q16":"5","Q10":"3","Q08":"4","Q14":"5","Q09":"5","Q05":"1","Q11":"0","Q02":"1","Q06":"5"},"radio_events":[424119.10999997053,429151.2450000737,431896.1600000039,437727.25500003435,440759.48500004597,442583.4850000683,445799.3349999888,447863.3850000333,456319.31499997154,463663.215000066,472079.2300000321,477599.4499999797,481263.35999998264,487119.2049999954,488431.3199999742,493383.10500001535],"key_events":[],"mouse_events":[424119.10999997053,429151.2450000737,431896.1600000039,437727.25500003435,440759.48500004597,442583.4850000683,445799.3349999888,447863.3850000333,456319.31499997154,463663.215000066,472079.2300000321,477599.4499999797,481263.35999998264,486159.3349999748,487119.2049999954,488431.3199999742,493383.10500001535,495287.4600000214],"rt":495290.234999964,"survey":"nfc","trial_type":"survey-template","trial_index":3,"time_elapsed":648279,"internal_node_id":"0.0-3.0","task_version":"0.2"},{"view_history":"[{\"page_index\":0,\"viewing_time\":2280.129999970086},{\"page_index\":1,\"viewing_time\":8471.829999936745},{\"page_index\":2,\"viewing_time\":8247.889999998733},{\"page_index\":3,\"viewing_time\":11040.150000015274},{\"page_index\":4,\"viewing_time\":5439.95500006713},{\"page_index\":5,\"viewing_time\":7823.860000004061},{\"page_index\":6,\"viewing_time\":6664.09500001464},{\"page_index\":7,\"viewing_time\":8904.11000000313},{\"page_index\":8,\"viewing_time\":8615.86499994155},{\"page_index\":9,\"viewing_time\":6856.034999946132}]","rt":74344.52499996405,"trial_type":"instructions","trial_index":4,"time_elapsed":722627,"internal_node_id":"0.0-4.0-0.0","task_version":"0.2"},{"response_times":[1705.9750000480562,943.9649999840185,608.1400000257418,631.8949999986216,1952.2600000491366],"keys_pressed":["rightarrow","leftarrow","rightarrow","rightarrow","leftarrow"],"horizon":5,"forced_choices":["rightarrow","leftarrow","rightarrow","rightarrow"],"right_color":"lightblue","left_color":"orange","left_mu":40,"right_mu":20,"left_numbers":[45,39,40,46,44],"right_numbers":[20,9,17,16,23],"points_earned":136,"phase":"practice","trial_type":"horizons-task","trial_index":5,"time_elapsed":729980,"internal_node_id":"0.0-4.0-1.0","task_version":"0.2"},{"response_times":[1071.6300000203773,848.4999999636784,511.49000006262213,648.2199999736622,2848.9599999738857,2983.394999988377,1400.179999996908,1776.274999952875,544.6549999760464,783.5949999280274],"keys_pressed":["leftarrow","leftarrow","rightarrow","rightarrow","rightarrow","rightarrow","rightarrow","rightarrow","rightarrow","rightarrow"],"horizon":10,"forced_choices":["leftarrow","leftarrow","rightarrow","rightarrow"],"right_color":"orange","left_color":"lightblue","left_mu":60,"right_mu":70,"left_numbers":[55,54,77,56,59,58,53,73,49,64],"right_numbers":[55,64,78,71,48,85,69,71,77,68],"points_earned":676,"phase":"practice","trial_type":"horizons-task","trial_index":6,"time_elapsed":744901,"internal_node_id":"0.0-4.0-2.0","task_version":"0.2"},{"view_history":"[{\"page_index\":0,\"viewing_time\":291.12499998882413},{\"page_index\":1,\"viewing_time\":1607.979999971576},{\"page_index\":0,\"viewing_time\":1112.0100000407547},{\"page_index\":1,\"viewing_time\":3912.679999950342},{\"page_index\":2,\"viewing_time\":3568.3400001144037},{\"page_index\":3,\"viewing_time\":1360.1949999574572}]","rt":11852.459999965504,"trial_type":"instructions","trial_index":7,"time_elapsed":756754,"internal_node_id":"0.0-4.0-3.0","task_version":"0.2"},{"responses":["true","false","true"],"num_errors":0,"rt":9712.320000049658,"trial_type":"horizons-comprehension","trial_index":8,"time_elapsed":766474,"internal_node_id":"0.0-4.0-4.0","task_version":"0.2"},{"trial_type":"call-function","trial_index":9,"time_elapsed":766481,"internal_node_id":"0.0-5.0","task_version":"0.2"},{"view_history":"[{\"page_index\":0,\"viewing_time\":3169.329999946058},{\"page_index\":1,\"viewing_time\":5424.035000032745}]","rt":8593.609999981709,"trial_type":"instructions","trial_index":10,"time_elapsed":775075,"internal_node_id":"0.0-6.0","task_version":"0.2"},{"response_times":[1386.47500006482,2016.6500000050291,1696.1850000079721,1311.6350000491366,1176.1049999622628],"keys_pressed":["leftarrow","leftarrow","rightarrow","rightarrow","leftarrow"],"horizon":5,"forced_choices":["leftarrow","leftarrow","rightarrow","rightarrow"],"right_color":"orange","left_color":"lightblue","left_mu":40,"right_mu":10,"left_numbers":[27,52,40,42,42],"right_numbers":[8,15,11,14,15],"points_earned":146,"phase":"task","trial_type":"horizons-task","trial_index":11,"time_elapsed":784169,"internal_node_id":"0.0-7.0","task_version":"0.2"},{"response_times":[2016.8100000591949,864.0699998941272,1255.9249999467283,784.1649999609217,4872.354999999516],"keys_pressed":["leftarrow","rightarrow","leftarrow","leftarrow","leftarrow"],"horizon":5,"forced_choices":["leftarrow","rightarrow","leftarrow","leftarrow"],"right_color":"lightblue","left_color":"orange","left_mu":60,"right_mu":80,"left_numbers":[75,62,61,61,67],"right_numbers":[70,77,84,74,89],"points_earned":341,"phase":"task","trial_type":"horizons-task","trial_index":12,"time_elapsed":795466,"internal_node_id":"0.0-8.0","task_version":"0.2"},{"response_times":[688.3249999955297,2096.4350000722334,1040.0800000643358,896.0400000214577,1031.8950000219047],"keys_pressed":["rightarrow","leftarrow","rightarrow","rightarrow","rightarrow"],"horizon":5,"forced_choices":["rightarrow","leftarrow","rightarrow","rightarrow"],"right_color":"orange","left_color":"lightblue","left_mu":60,"right_mu":90,"left_numbers":[54,63,53,47,55],"right_numbers":[95,91,78,92,83],"points_earned":411,"phase":"task","trial_type":"horizons-task","trial_index":13,"time_elapsed":802724,"internal_node_id":"0.0-9.0","task_version":"0.2"},{"response_times":[1943.4899999760091,824.1100000450388,11377.335000084713,832.0799999637529,1928.6499998997897,991.4449999341741,848.2349999248981,1056.1549999983981,447.94500002171844,976.1650000000373],"keys_pressed":["rightarrow","leftarrow","rightarrow","rightarrow","rightarrow","leftarrow","rightarrow","leftarrow","rightarrow","rightarrow"],"horizon":10,"forced_choices":["rightarrow","leftarrow","rightarrow","rightarrow"],"right_color":"orange","left_color":"lightblue","left_mu":60,"right_mu":90,"left_numbers":[58,63,49,58,66,55,60,70,49,76],"right_numbers":[80,95,98,87,94,94,93,100,86,84],"points_earned":810,"phase":"task","trial_type":"horizons-task","trial_index":14,"time_elapsed":825454,"internal_node_id":"0.0-10.0","task_version":"0.2"},{"response_times":[1008.4900000365451,1144.3750000325963,487.7500000875443,552.0449999021366,496.15499994251877],"keys_pressed":["rightarrow","rightarrow","rightarrow","leftarrow","rightarrow"],"horizon":5,"forced_choices":["rightarrow","rightarrow","rightarrow","leftarrow"],"right_color":"orange","left_color":"lightblue","left_mu":40,"right_mu":44,"left_numbers":[35,25,53,41,37],"right_numbers":[53,45,49,46,44],"points_earned":232,"phase":"task","trial_type":"horizons-task","trial_index":15,"time_elapsed":830647,"internal_node_id":"0.0-11.0","task_version":"0.2"},{"response_times":[743.4049999574199,488.08000003919005,576.0899999877438,543.8849999336526,736.1950000049546,807.9050000524148,440.10000000707805,543.9999999944121,471.9749999931082,416.1499999463558],"keys_pressed":["rightarrow","rightarrow","leftarrow","rightarrow","leftarrow","leftarrow","rightarrow","leftarrow","rightarrow","leftarrow"],"horizon":10,"forced_choices":["rightarrow","rightarrow","leftarrow","rightarrow"],"right_color":"lightblue","left_color":"orange","left_mu":40,"right_mu":32,"left_numbers":[45,44,34,37,35,31,39,40,31,46],"right_numbers":[28,36,28,36,23,25,46,34,34,37],"points_earned":366,"phase":"task","trial_type":"horizons-task","trial_index":16,"time_elapsed":837920,"internal_node_id":"0.0-12.0","task_version":"0.2"},{"response_times":[768.0600000312552,63.81000007968396,896.1049999343231,623.8600000506267,1688.4149999823421],"keys_pressed":["rightarrow","rightarrow","leftarrow","rightarrow","rightarrow"],"horizon":5,"forced_choices":["rightarrow","rightarrow","leftarrow","rightarrow"],"right_color":"orange","left_color":"lightblue","left_mu":40,"right_mu":10,"left_numbers":[55,44,23,28,41],"right_numbers":[7,16,8,6,17],"points_earned":69,"phase":"task","trial_type":"horizons-task","trial_index":17,"time_elapsed":843464,"internal_node_id":"0.0-13.0","task_version":"0.2"},{"response_times":[680.1050000358373,616.3800000213087,887.6900000032037,824.2949999403208,935.6449999613687,1216.3100000470877,711.9299999903888,1056.014999980107,232.15499997604638,1472.1349999308586],"keys_pressed":["rightarrow","leftarrow","leftarrow","rightarrow","rightarrow","rightarrow","leftarrow","leftarrow","rightarrow","rightarrow"],"horizon":10,"forced_choices":["rightarrow","leftarrow","leftarrow","rightarrow"],"right_color":"orange","left_color":"lightblue","left_mu":40,"right_mu":48,"left_numbers":[49,42,54,43,52,36,55,43,43,39],"right_numbers":[37,47,35,53,46,31,58,55,42,43],"points_earned":446,"phase":"task","trial_type":"horizons-task","trial_index":18,"time_elapsed":853601,"internal_node_id":"0.0-14.0","task_version":"0.2"},{"response_times":[666.2299999734387,784.0149999829009,680.0599999260157,672.2900000168011,1240.019999910146],"keys_pressed":["leftarrow","rightarrow","rightarrow","rightarrow","leftarrow"],"horizon":5,"forced_choices":["leftarrow","rightarrow","rightarrow","rightarrow"],"right_color":"orange","left_color":"lightblue","left_mu":60,"right_mu":64,"left_numbers":[62,48,59,71,70],"right_numbers":[63,63,65,71,65],"points_earned":331,"phase":"task","trial_type":"horizons-task","trial_index":19,"time_elapsed":859154,"internal_node_id":"0.0-15.0","task_version":"0.2"},{"response_times":[928.0450000660494,496.0649999557063,575.855000060983,920.3149999957532,1240.0849999394268],"keys_pressed":["leftarrow","rightarrow","rightarrow","rightarrow","leftarrow"],"horizon":5,"forced_choices":["leftarrow","rightarrow","rightarrow","rightarrow"],"right_color":"orange","left_color":"lightblue","left_mu":40,"right_mu":60,"left_numbers":[39,48,46,26,29],"right_numbers":[79,44,50,70,71],"points_earned":232,"phase":"task","trial_type":"horizons-task","trial_index":20,"time_elapsed":864819,"internal_node_id":"0.0-16.0","task_version":"0.2"},{"response_times":[759.8450001096353,792.6799999549985,703.6500000394881,1152.8300000354648,503.0900000128895,960.3750000242144,855.9200000017881,432.4600000400096,751.6599999507889,720.0000000884756],"keys_pressed":["leftarrow","leftarrow","rightarrow","leftarrow","rightarrow","rightarrow","rightarrow","leftarrow","leftarrow","rightarrow"],"horizon":10,"forced_choices":["leftarrow","leftarrow","rightarrow","leftarrow"],"right_color":"orange","left_color":"lightblue","left_mu":40,"right_mu":48,"left_numbers":[49,45,35,34,48,39,32,46,45,49],"right_numbers":[58,44,56,39,44,39,51,52,35,30],"points_earned":439,"phase":"task","trial_type":"horizons-task","trial_index":21,"time_elapsed":873956,"internal_node_id":"0.0-17.0","task_version":"0.2"},{"response_times":[743.929999996908,760.0200000451878,472.08500001579523,1120.1750000473112,896.1649999255314,976.0499999392778,928.1949999276549,607.8650000272319,584.1050000162795,407.8999999910593],"keys_pressed":["leftarrow","leftarrow","rightarrow","rightarrow","leftarrow","leftarrow","leftarrow","leftarrow","leftarrow","leftarrow"],"horizon":10,"forced_choices":["leftarrow","leftarrow","rightarrow","rightarrow"],"right_color":"orange","left_color":"lightblue","left_mu":40,"right_mu":10,"left_numbers":[28,37,37,39,31,41,29,31,43,33],"right_numbers":[12,5,6,0,13,12,5,7,8,19],"points_earned":279,"phase":"task","trial_type":"horizons-task","trial_index":22,"time_elapsed":882957,"internal_node_id":"0.0-18.0","task_version":"0.2"},{"response_times":[864.5000000251457,791.8899999931455,1360.2149999933317,960.069999913685,1136.2349999835715,1311.9699999224395,568.4099999489263,1063.979999977164,527.8999999864027,888.1100000580773],"keys_pressed":["rightarrow","leftarrow","leftarrow","rightarrow","leftarrow","leftarrow","rightarrow","rightarrow","leftarrow","leftarrow"],"horizon":10,"forced_choices":["rightarrow","leftarrow","leftarrow","rightarrow"],"right_color":"lightblue","left_color":"orange","left_mu":40,"right_mu":20,"left_numbers":[42,36,55,39,51,36,34,41,32,38],"right_numbers":[16,16,41,28,18,23,14,20,15,24],"points_earned":326,"phase":"task","trial_type":"horizons-task","trial_index":23,"time_elapsed":893934,"internal_node_id":"0.0-19.0","task_version":"0.2"},{"response_times":[687.9350000526756,631.7549999803305,1232.2900000726804,399.76499998010695,976.0050000622869],"keys_pressed":["rightarrow","leftarrow","leftarrow","rightarrow","leftarrow"],"horizon":5,"forced_choices":["rightarrow","leftarrow","leftarrow","rightarrow"],"right_color":"lightblue","left_color":"orange","left_mu":60,"right_mu":56,"left_numbers":[49,54,68,67,63],"right_numbers":[56,47,44,45,61],"points_earned":286,"phase":"task","trial_type":"horizons-task","trial_index":24,"time_elapsed":899367,"internal_node_id":"0.0-20.0","task_version":"0.2"},{"response_times":[720.314999925904,903.7549999775365,888.0849999841303,848.2150000054389,1000.08499994874],"keys_pressed":["rightarrow","rightarrow","leftarrow","leftarrow","leftarrow"],"horizon":5,"forced_choices":["rightarrow","rightarrow","leftarrow","leftarrow"],"right_color":"lightblue","left_color":"orange","left_mu":60,"right_mu":52,"left_numbers":[65,65,70,52,68],"right_numbers":[51,56,58,47,64],"points_earned":297,"phase":"task","trial_type":"horizons-task","trial_index":25,"time_elapsed":905231,"internal_node_id":"0.0-21.0","task_version":"0.2"},{"response_times":[559.9200000287965,928.260000073351,512.0649999007583,488.0000000121072,984.0349999722093],"keys_pressed":["leftarrow","leftarrow","leftarrow","rightarrow","rightarrow"],"horizon":5,"forced_choices":["leftarrow","leftarrow","leftarrow","rightarrow"],"right_color":"lightblue","left_color":"orange","left_mu":60,"right_mu":68,"left_numbers":[54,53,73,54,60],"right_numbers":[73,74,72,66,68],"points_earned":314,"phase":"task","trial_type":"horizons-task","trial_index":26,"time_elapsed":910208,"internal_node_id":"0.0-22.0","task_version":"0.2"},{"response_times":[791.6999999433756,672.4150000372902,879.4350000098348,880.1799999782816,1056.2349999090657,1344.0199999604374,1119.9999999953434,1272.2700000740588,1128.000000026077,568.3399999979883],"keys_pressed":["rightarrow","leftarrow","leftarrow","leftarrow","rightarrow","leftarrow","rightarrow","leftarrow","rightarrow","leftarrow"],"horizon":10,"forced_choices":["rightarrow","leftarrow","leftarrow","leftarrow"],"right_color":"lightblue","left_color":"orange","left_mu":60,"right_mu":52,"left_numbers":[61,71,62,63,54,51,43,67,62,52],"right_numbers":[60,40,49,50,47,48,44,49,47,54],"points_earned":564,"phase":"task","trial_type":"horizons-task","trial_index":27,"time_elapsed":921425,"internal_node_id":"0.0-23.0","task_version":"0.2"},{"response_times":[648.2200000900775,615.8599999034777,808.1549999769777,608.0249999649823,792.0699999667704,720.0250000460073,671.9949999824166,568.6799999093637,775.5500000203028,567.9249999811873],"keys_pressed":["leftarrow","leftarrow","leftarrow","rightarrow","rightarrow","leftarrow","leftarrow","rightarrow","rightarrow","leftarrow"],"horizon":10,"forced_choices":["leftarrow","leftarrow","leftarrow","rightarrow"],"right_color":"lightblue","left_color":"orange","left_mu":60,"right_mu":56,"left_numbers":[60,62,66,64,64,57,66,72,49,50],"right_numbers":[52,58,65,45,45,53,58,56,36,64],"points_earned":543,"phase":"task","trial_type":"horizons-task","trial_index":28,"time_elapsed":929707,"internal_node_id":"0.0-24.0","task_version":"0.2"},{"response_times":[664.2099999589846,687.7249999670312,591.9300001114607,536.1649999395013,879.8500000266358,472.040000022389,583.9649999979883,576.2650000397116,607.9650000901893,503.8500000955537],"keys_pressed":["rightarrow","leftarrow","leftarrow","rightarrow","rightarrow","leftarrow","leftarrow","rightarrow","rightarrow","leftarrow"],"horizon":10,"forced_choices":["rightarrow","leftarrow","leftarrow","rightarrow"],"right_color":"lightblue","left_color":"orange","left_mu":40,"right_mu":28,"left_numbers":[55,54,26,42,38,37,54,23,36,32],"right_numbers":[27,33,33,21,16,19,18,19,36,19],"points_earned":322,"phase":"task","trial_type":"horizons-task","trial_index":29,"time_elapsed":937315,"internal_node_id":"0.0-25.0","task_version":"0.2"},{"response_times":[664.0049999114126,888.135000015609,616.1550000542775,696.034999913536,1656.0349999926984],"keys_pressed":["leftarrow","leftarrow","leftarrow","rightarrow","rightarrow"],"horizon":5,"forced_choices":["leftarrow","leftarrow","leftarrow","rightarrow"],"right_color":"lightblue","left_color":"orange","left_mu":60,"right_mu":56,"left_numbers":[57,49,62,65,50],"right_numbers":[57,61,48,62,45],"points_earned":275,"phase":"task","trial_type":"horizons-task","trial_index":30,"time_elapsed":943339,"internal_node_id":"0.0-26.0","task_version":"0.2"},{"response_times":[744.6849999250844,1016.0949999699369,775.9099999675527,912.1300000697374,1088.0050000268966,792.2900000121444,776.0199999902397,968.0200000293553,720.160000026226,736.0249999910593],"keys_pressed":["leftarrow","leftarrow","rightarrow","leftarrow","leftarrow","rightarrow","leftarrow","leftarrow","rightarrow","leftarrow"],"horizon":10,"forced_choices":["leftarrow","leftarrow","rightarrow","leftarrow"],"right_color":"lightblue","left_color":"orange","left_mu":40,"right_mu":28,"left_numbers":[44,31,41,44,36,36,38,32,42,41],"right_numbers":[42,21,39,25,36,27,24,32,13,23],"points_earned":345,"phase":"task","trial_type":"horizons-task","trial_index":31,"time_elapsed":953373,"internal_node_id":"0.0-27.0","task_version":"0.2"},{"response_times":[767.8600000217557,767.6650000503287,704.2199999559671,904.2500000214204,959.9350000498816],"keys_pressed":["rightarrow","rightarrow","leftarrow","rightarrow","leftarrow"],"horizon":5,"forced_choices":["rightarrow","rightarrow","leftarrow","rightarrow"],"right_color":"lightblue","left_color":"orange","left_mu":40,"right_mu":20,"left_numbers":[38,39,39,25,40],"right_numbers":[28,15,33,6,13],"points_earned":128,"phase":"task","trial_type":"horizons-task","trial_index":32,"time_elapsed":958982,"internal_node_id":"0.0-28.0","task_version":"0.2"},{"response_times":[807.0600000210106,743.9349999185652,856.6749999299645,623.4399999957532,2256.5099999774247],"keys_pressed":["leftarrow","leftarrow","rightarrow","rightarrow","rightarrow"],"horizon":5,"forced_choices":["leftarrow","leftarrow","rightarrow","rightarrow"],"right_color":"orange","left_color":"lightblue","left_mu":60,"right_mu":72,"left_numbers":[51,70,59,55,67],"right_numbers":[71,82,51,69,61],"points_earned":302,"phase":"task","trial_type":"horizons-task","trial_index":33,"time_elapsed":965774,"internal_node_id":"0.0-29.0","task_version":"0.2"},{"response_times":[661.060000071302,699.3899999652058,807.8199999872595,1224.3849999504164,815.8350000157952],"keys_pressed":["leftarrow","rightarrow","rightarrow","rightarrow","leftarrow"],"horizon":5,"forced_choices":["leftarrow","rightarrow","rightarrow","rightarrow"],"right_color":"orange","left_color":"lightblue","left_mu":60,"right_mu":30,"left_numbers":[42,55,48,50,63],"right_numbers":[24,20,34,38,22],"points_earned":197,"phase":"task","trial_type":"horizons-task","trial_index":34,"time_elapsed":971487,"internal_node_id":"0.0-30.0","task_version":"0.2"},{"response_times":[848.4300000127405,663.9900000300258,720.1050000730902,743.9899999881163,808.0250000348315,864.144999999553,895.9249999606982,648.1449999846518,648.1350000249222,1056.0750000877306],"keys_pressed":["leftarrow","leftarrow","rightarrow","leftarrow","rightarrow","rightarrow","leftarrow","rightarrow","leftarrow","rightarrow"],"horizon":10,"forced_choices":["leftarrow","leftarrow","rightarrow","leftarrow"],"right_color":"orange","left_color":"lightblue","left_mu":60,"right_mu":40,"left_numbers":[49,53,69,38,51,57,72,52,60,67],"right_numbers":[38,40,48,42,43,34,52,46,43,34],"points_earned":477,"phase":"task","trial_type":"horizons-task","trial_index":35,"time_elapsed":980887,"internal_node_id":"0.0-31.0","task_version":"0.2"},{"response_times":[720.6899999873713,1056.0850000474602,487.859999993816,792.1649999916553,944.1699999151751,655.8700000168756,1056.0699999332428,576.1650000931695,592.0049999840558,503.95500008016825],"keys_pressed":["leftarrow","leftarrow","rightarrow","rightarrow","leftarrow","rightarrow","leftarrow","rightarrow","leftarrow","rightarrow"],"horizon":10,"forced_choices":["leftarrow","leftarrow","rightarrow","rightarrow"],"right_color":"orange","left_color":"lightblue","left_mu":60,"right_mu":72,"left_numbers":[64,56,58,59,45,64,62,52,54,49],"right_numbers":[66,74,68,91,71,64,67,75,72,76],"points_earned":655,"phase":"task","trial_type":"horizons-task","trial_index":36,"time_elapsed":989777,"internal_node_id":"0.0-32.0","task_version":"0.2"},{"response_times":[880.4449999006465,584.0099999913946,863.9099999563769,632.175000035204,736.100000096485,639.8650000337511,688.205000013113,464.2100000055507,663.704999955371,368.1499999947846],"keys_pressed":["rightarrow","leftarrow","leftarrow","rightarrow","rightarrow","leftarrow","leftarrow","rightarrow","rightarrow","leftarrow"],"horizon":10,"forced_choices":["rightarrow","leftarrow","leftarrow","rightarrow"],"right_color":"lightblue","left_color":"orange","left_mu":60,"right_mu":56,"left_numbers":[65,66,63,52,64,55,69,74,65,63],"right_numbers":[55,68,64,52,45,46,37,52,57,51],"points_earned":577,"phase":"task","trial_type":"horizons-task","trial_index":37,"time_elapsed":997802,"internal_node_id":"0.0-33.0","task_version":"0.2"},{"response_times":[639.9649999802932,552.0499999402091,736.0299999127164,424.1349999792874,576.2050000485033,431.7700000246987,648.2199999736622,511.8650000076741,568.1650000624359,1568.2449999731034],"keys_pressed":["leftarrow","rightarrow","rightarrow","leftarrow","leftarrow","rightarrow","rightarrow","leftarrow","leftarrow","rightarrow"],"horizon":10,"forced_choices":["leftarrow","rightarrow","rightarrow","leftarrow"],"right_color":"orange","left_color":"lightblue","left_mu":60,"right_mu":48,"left_numbers":[75,59,60,56,58,76,65,68,68,34],"right_numbers":[47,55,36,54,56,59,50,48,60,40],"points_earned":565,"phase":"task","trial_type":"horizons-task","trial_index":38,"time_elapsed":1005963,"internal_node_id":"0.0-34.0","task_version":"0.2"},{"response_times":[543.9500000793487,696.0950000211596,688.0200000014156,864.0749999321997,407.86000003572553,720.1249999925494,631.9600000279024,640.0600000051782,624.1750000044703,1104.1499999118969],"keys_pressed":["rightarrow","leftarrow","leftarrow","leftarrow","rightarrow","rightarrow","rightarrow","leftarrow","leftarrow","rightarrow"],"horizon":10,"forced_choices":["rightarrow","leftarrow","leftarrow","leftarrow"],"right_color":"lightblue","left_color":"orange","left_mu":40,"right_mu":52,"left_numbers":[31,28,37,38,44,39,28,38,42,50],"right_numbers":[44,70,55,48,56,63,65,53,57,64],"points_earned":475,"phase":"task","trial_type":"horizons-task","trial_index":39,"time_elapsed":1014388,"internal_node_id":"0.0-35.0","task_version":"0.2"},{"response_times":[720.1500000664964,744.2049999954179,704.2750000255182,743.7650000210851,743.9149999991059],"keys_pressed":["rightarrow","leftarrow","leftarrow","rightarrow","leftarrow"],"horizon":5,"forced_choices":["rightarrow","leftarrow","leftarrow","rightarrow"],"right_color":"orange","left_color":"lightblue","left_mu":40,"right_mu":48,"left_numbers":[36,42,44,50,41],"right_numbers":[52,46,41,54,36],"points_earned":233,"phase":"task","trial_type":"horizons-task","trial_index":40,"time_elapsed":1019548,"internal_node_id":"0.0-36.0","task_version":"0.2"},{"response_times":[618.9200000371784,792.0399999711663,672.2799999406561,671.9549999106675,568.0500000016764],"keys_pressed":["rightarrow","rightarrow","leftarrow","leftarrow","leftarrow"],"horizon":5,"forced_choices":["rightarrow","rightarrow","leftarrow","leftarrow"],"right_color":"orange","left_color":"lightblue","left_mu":60,"right_mu":40,"left_numbers":[52,70,72,59,62],"right_numbers":[51,32,43,40,44],"points_earned":276,"phase":"task","trial_type":"horizons-task","trial_index":41,"time_elapsed":1024381,"internal_node_id":"0.0-37.0","task_version":"0.2"},{"response_times":[968.4299998916686,640.0499999290332,1215.6449999893084,600.525000016205,592.0600000536069],"keys_pressed":["leftarrow","leftarrow","rightarrow","leftarrow","leftarrow"],"horizon":5,"forced_choices":["leftarrow","leftarrow","rightarrow","leftarrow"],"right_color":"orange","left_color":"lightblue","left_mu":60,"right_mu":40,"left_numbers":[51,62,71,68,55],"right_numbers":[35,45,46,38,33],"points_earned":282,"phase":"task","trial_type":"horizons-task","trial_index":42,"time_elapsed":1029901,"internal_node_id":"0.0-38.0","task_version":"0.2"},{"response_times":[528.3800000324845,880.1300000632182,1360.2200000314042,1256.0349999694154,568.1299999123439],"keys_pressed":["leftarrow","leftarrow","rightarrow","leftarrow","rightarrow"],"horizon":5,"forced_choices":["leftarrow","leftarrow","rightarrow","leftarrow"],"right_color":"lightblue","left_color":"orange","left_mu":40,"right_mu":28,"left_numbers":[38,42,29,37,39],"right_numbers":[41,19,16,38,44],"points_earned":177,"phase":"task","trial_type":"horizons-task","trial_index":43,"time_elapsed":1035999,"internal_node_id":"0.0-39.0","task_version":"0.2"},{"response_times":[575.7300000404939,744.6800000034273,783.3600000012666,992.2599999699742,999.9550000065938],"keys_pressed":["rightarrow","leftarrow","rightarrow","leftarrow","leftarrow"],"horizon":5,"forced_choices":["rightarrow","leftarrow","rightarrow","leftarrow"],"right_color":"orange","left_color":"lightblue","left_mu":40,"right_mu":44,"left_numbers":[59,33,40,41,34],"right_numbers":[32,43,51,35,30],"points_earned":191,"phase":"task","trial_type":"horizons-task","trial_index":44,"time_elapsed":1041599,"internal_node_id":"0.0-40.0","task_version":"0.2"},{"response_times":[512.470000074245,1456.194999977015,720.0899999588728,1239.890000084415,3336.5950000006706],"keys_pressed":["leftarrow","rightarrow","leftarrow","rightarrow","rightarrow"],"horizon":5,"forced_choices":["leftarrow","rightarrow","leftarrow","rightarrow"],"right_color":"orange","left_color":"lightblue","left_mu":60,"right_mu":64,"left_numbers":[60,66,68,58,53],"right_numbers":[64,74,71,51,66],"points_earned":319,"phase":"task","trial_type":"horizons-task","trial_index":45,"time_elapsed":1050368,"internal_node_id":"0.0-41.0","task_version":"0.2"},{"response_times":[976.3100000564009,768.0349999573082,911.8749999906868,688.1450000219047,1104.204999981448],"keys_pressed":["rightarrow","rightarrow","rightarrow","leftarrow","rightarrow"],"horizon":5,"forced_choices":["rightarrow","rightarrow","rightarrow","leftarrow"],"right_color":"lightblue","left_color":"orange","left_mu":40,"right_mu":70,"left_numbers":[45,35,50,37,61],"right_numbers":[64,64,57,78,74],"points_earned":296,"phase":"task","trial_type":"horizons-task","trial_index":46,"time_elapsed":1056321,"internal_node_id":"0.0-42.0","task_version":"0.2"},{"response_times":[743.8400000100955,688.1450000219047,792.174999951385,832.2000000625849,1711.890000035055,2768.3149999938905,671.9899999443442,888.8899999437854,615.2949999086559,1160.2249999996275],"keys_pressed":["leftarrow","rightarrow","leftarrow","rightarrow","rightarrow","rightarrow","rightarrow","rightarrow","rightarrow","rightarrow"],"horizon":10,"forced_choices":["leftarrow","rightarrow","leftarrow","rightarrow"],"right_color":"orange","left_color":"lightblue","left_mu":40,"right_mu":60,"left_numbers":[35,33,35,33,35,51,36,41,37,34],"right_numbers":[64,52,48,55,59,69,55,54,55,59],"points_earned":528,"phase":"task","trial_type":"horizons-task","trial_index":47,"time_elapsed":1068698,"internal_node_id":"0.0-43.0","task_version":"0.2"},{"response_times":[608.5500000044703,664.0249999472871,640.1049999985844,688.4850000496954,1287.6499999547377,695.9949999582022,720.2650000108406,1055.9549999888986,688.0700000328943,791.9599999440834],"keys_pressed":["rightarrow","leftarrow","rightarrow","leftarrow","rightarrow","leftarrow","rightarrow","leftarrow","rightarrow","rightarrow"],"horizon":10,"forced_choices":["rightarrow","leftarrow","rightarrow","leftarrow"],"right_color":"orange","left_color":"lightblue","left_mu":40,"right_mu":44,"left_numbers":[30,53,42,49,40,48,34,50,55,43],"right_numbers":[34,46,48,35,34,29,40,42,46,46],"points_earned":448,"phase":"task","trial_type":"horizons-task","trial_index":48,"time_elapsed":1078043,"internal_node_id":"0.0-44.0","task_version":"0.2"},{"response_times":[784.029999980703,672.1499999985099,752.2299999836832,767.7700000349432,968.2899999897927,823.9049999974668,600.3799999598414,399.55500001087785,416.2550000473857,424.08000002615154],"keys_pressed":["rightarrow","rightarrow","rightarrow","leftarrow","leftarrow","leftarrow","leftarrow","rightarrow","rightarrow","rightarrow"],"horizon":10,"forced_choices":["rightarrow","rightarrow","rightarrow","leftarrow"],"right_color":"lightblue","left_color":"orange","left_mu":40,"right_mu":70,"left_numbers":[37,55,42,41,36,35,24,33,31,44],"right_numbers":[75,56,74,63,68,75,79,77,61,84],"points_earned":563,"phase":"task","trial_type":"horizons-task","trial_index":49,"time_elapsed":1086157,"internal_node_id":"0.0-45.0","task_version":"0.2"},{"response_times":[494.9749999213964,472.06000005826354,471.9849999528378,424.1799999726936,559.9099999526516],"keys_pressed":["leftarrow","rightarrow","leftarrow","rightarrow","rightarrow"],"horizon":5,"forced_choices":["leftarrow","rightarrow","leftarrow","rightarrow"],"right_color":"lightblue","left_color":"orange","left_mu":60,"right_mu":68,"left_numbers":[48,64,57,55,52],"right_numbers":[68,69,64,72,70],"points_earned":316,"phase":"task","trial_type":"horizons-task","trial_index":50,"time_elapsed":1090084,"internal_node_id":"0.0-46.0","task_version":"0.2"},{"view_history":"[{\"page_index\":0,\"viewing_time\":579789.6750000073},{\"page_index\":1,\"viewing_time\":1791.484999936074}]","rt":581581.494999933,"trial_type":"instructions","trial_index":51,"time_elapsed":1671666,"internal_node_id":"0.0-47.0","task_version":"0.2"},{"response_times":[2050.12499995064,751.7900000093505,648.6750000622123,615.5649999855086,2072.1299999859184,832.1699999505654,511.8849999271333,736.2199999624863,1320.1800000388175,231.9300000090152],"keys_pressed":["rightarrow","rightarrow","rightarrow","leftarrow","leftarrow","leftarrow","rightarrow","rightarrow","rightarrow","leftarrow"],"horizon":10,"forced_choices":["rightarrow","rightarrow","rightarrow","leftarrow"],"right_color":"orange","left_color":"lightblue","left_mu":40,"right_mu":44,"left_numbers":[53,40,53,49,42,32,43,44,30,28],"right_numbers":[41,59,49,33,38,41,40,32,48,39],"points_earned":420,"phase":"task","trial_type":"horizons-task","trial_index":52,"time_elapsed":1682945,"internal_node_id":"0.0-48.0","task_version":"0.2"},{"response_times":[640.5549999326468,583.90500000678,512.1150000486523,423.9999999990687,536.4549999358132,687.5550000695512,2280.2799999481067,480.04000005312264,560.0799999665469,576.1100000236183],"keys_pressed":["leftarrow","leftarrow","leftarrow","rightarrow","rightarrow","leftarrow","rightarrow","rightarrow","leftarrow","rightarrow"],"horizon":10,"forced_choices":["leftarrow","leftarrow","leftarrow","rightarrow"],"right_color":"lightblue","left_color":"orange","left_mu":60,"right_mu":68,"left_numbers":[56,64,54,57,61,72,69,57,61,58],"right_numbers":[58,64,68,69,62,77,74,63,75,87],"points_earned":662,"phase":"task","trial_type":"horizons-task","trial_index":53,"time_elapsed":1691730,"internal_node_id":"0.0-49.0","task_version":"0.2"},{"response_times":[1144.4449999835342,527.8450000332668,664.1949999611825,552.0499999402091,760.0849999580532,368.0349999340251,440.0450000539422,784.2050000326708,263.8300000689924,344.0150000387803],"keys_pressed":["leftarrow","rightarrow","rightarrow","leftarrow","leftarrow","rightarrow","rightarrow","leftarrow","leftarrow","rightarrow"],"horizon":10,"forced_choices":["leftarrow","rightarrow","rightarrow","leftarrow"],"right_color":"orange","left_color":"lightblue","left_mu":60,"right_mu":30,"left_numbers":[53,67,64,56,71,43,56,47,58,49],"right_numbers":[39,30,40,33,19,25,29,15,25,36],"points_earned":445,"phase":"task","trial_type":"horizons-task","trial_index":54,"time_elapsed":1699083,"internal_node_id":"0.0-50.0","task_version":"0.2"},{"response_times":[632.2600001003593,432.12000001221895,368.05499996989965,559.7449999768287,432.29500006418675],"keys_pressed":["rightarrow","rightarrow","leftarrow","rightarrow","leftarrow"],"horizon":5,"forced_choices":["rightarrow","rightarrow","leftarrow","rightarrow"],"right_color":"lightblue","left_color":"orange","left_mu":40,"right_mu":32,"left_numbers":[42,44,29,41,44],"right_numbers":[44,39,18,36,35],"points_earned":192,"phase":"task","trial_type":"horizons-task","trial_index":55,"time_elapsed":1703011,"internal_node_id":"0.0-51.0","task_version":"0.2"},{"response_times":[736.6949999704957,471.7650000238791,455.94999997410923,831.9350000238046,536.3549999892712,375.8799999486655,400.02499998081475,575.9799999650568,256.09999999869615,431.97500007227063],"keys_pressed":["rightarrow","leftarrow","rightarrow","leftarrow","leftarrow","rightarrow","rightarrow","rightarrow","leftarrow","leftarrow"],"horizon":10,"forced_choices":["rightarrow","leftarrow","rightarrow","leftarrow"],"right_color":"lightblue","left_color":"orange","left_mu":40,"right_mu":36,"left_numbers":[35,51,31,36,41,42,33,29,47,36],"right_numbers":[32,47,29,39,49,15,30,41,28,62],"points_earned":358,"phase":"task","trial_type":"horizons-task","trial_index":56,"time_elapsed":1709588,"internal_node_id":"0.0-52.0","task_version":"0.2"},{"response_times":[719.6949999779463,535.9050000552088,584.0650000609457,1864.0949999680743,656.2549999216571],"keys_pressed":["rightarrow","leftarrow","leftarrow","leftarrow","rightarrow"],"horizon":5,"forced_choices":["rightarrow","leftarrow","leftarrow","leftarrow"],"right_color":"lightblue","left_color":"orange","left_mu":40,"right_mu":36,"left_numbers":[25,38,32,40,30],"right_numbers":[42,35,34,43,23],"points_earned":175,"phase":"task","trial_type":"horizons-task","trial_index":57,"time_elapsed":1715452,"internal_node_id":"0.0-53.0","task_version":"0.2"},{"response_times":[736.2100000027567,719.8400000343099,640.0950000388548,528.0250000068918,712.0199999772012,848.2250000815839,551.9449999555945,608.0250000813976,472.1849999623373,816.054999944754],"keys_pressed":["leftarrow","rightarrow","rightarrow","rightarrow","leftarrow","leftarrow","rightarrow","rightarrow","leftarrow","leftarrow"],"horizon":10,"forced_choices":["leftarrow","rightarrow","rightarrow","rightarrow"],"right_color":"orange","left_color":"lightblue","left_mu":60,"right_mu":30,"left_numbers":[65,55,69,45,61,51,58,65,67,58],"right_numbers":[31,34,41,32,29,41,17,31,40,35],"points_earned":457,"phase":"task","trial_type":"horizons-task","trial_index":58,"time_elapsed":1723590,"internal_node_id":"0.0-54.0","task_version":"0.2"},{"response_times":[623.6750000389293,600.1649999525398,519.9649999849498,775.9099999675527,472.0900000538677,528.0450000427663,527.9350000200793,408.28999993391335,616.1150000989437,383.8150000665337],"keys_pressed":["rightarrow","rightarrow","leftarrow","leftarrow","rightarrow","rightarrow","rightarrow","leftarrow","leftarrow","rightarrow"],"horizon":10,"forced_choices":["rightarrow","rightarrow","leftarrow","leftarrow"],"right_color":"lightblue","left_color":"orange","left_mu":60,"right_mu":52,"left_numbers":[74,65,63,57,71,66,55,65,64,53],"right_numbers":[41,43,50,50,54,38,54,43,51,59],"points_earned":538,"phase":"task","trial_type":"horizons-task","trial_index":59,"time_elapsed":1730551,"internal_node_id":"0.0-55.0","task_version":"0.2"},{"response_times":[671.7949999729171,503.97499999962747,448.29999993089586,400.0600000144914,799.8650000663474],"keys_pressed":["rightarrow","leftarrow","leftarrow","rightarrow","leftarrow"],"horizon":5,"forced_choices":["rightarrow","leftarrow","leftarrow","rightarrow"],"right_color":"lightblue","left_color":"orange","left_mu":40,"right_mu":20,"left_numbers":[28,35,42,34,34],"right_numbers":[17,25,20,30,26],"points_earned":158,"phase":"task","trial_type":"horizons-task","trial_index":60,"time_elapsed":1734879,"internal_node_id":"0.0-56.0","task_version":"0.2"},{"response_times":[478.9800000144169,455.8399999514222,527.985000051558,632.0950000081211,687.9200000548735,576.2600000016391,471.95999999530613,696.1600000504404,471.8550000106916,528.139999951236],"keys_pressed":["leftarrow","rightarrow","leftarrow","rightarrow","leftarrow","leftarrow","rightarrow","leftarrow","rightarrow","leftarrow"],"horizon":10,"forced_choices":["leftarrow","rightarrow","leftarrow","rightarrow"],"right_color":"lightblue","left_color":"orange","left_mu":40,"right_mu":32,"left_numbers":[30,21,26,35,44,42,27,26,45,27],"right_numbers":[44,28,32,14,24,19,41,35,23,33],"points_earned":301,"phase":"task","trial_type":"horizons-task","trial_index":61,"time_elapsed":1741912,"internal_node_id":"0.0-57.0","task_version":"0.2"},{"response_times":[551.560000050813,496.0649999557063,607.895000022836,560.0750000448897,616.6199999861419,591.5849999291822,576.0499999159947,527.9650000156835,504.0600000647828,416.0200000042096],"keys_pressed":["leftarrow","rightarrow","leftarrow","rightarrow","leftarrow","rightarrow","leftarrow","rightarrow","rightarrow","leftarrow"],"horizon":10,"forced_choices":["leftarrow","rightarrow","leftarrow","rightarrow"],"right_color":"lightblue","left_color":"orange","left_mu":60,"right_mu":68,"left_numbers":[45,52,52,62,70,58,54,56,61,49],"right_numbers":[74,66,61,72,56,65,83,73,67,60],"points_earned":613,"phase":"task","trial_type":"horizons-task","trial_index":62,"time_elapsed":1748865,"internal_node_id":"0.0-58.0","task_version":"0.2"},{"response_times":[591.8350000865757,455.8399999514222,456.2300000106916,631.9999999832362,455.8449999894947,592.2250000294298,1127.915000077337,552.0249999826774,336.2150000175461,400.1050000078976],"keys_pressed":["rightarrow","leftarrow","rightarrow","rightarrow","leftarrow","leftarrow","rightarrow","rightarrow","leftarrow","leftarrow"],"horizon":10,"forced_choices":["rightarrow","leftarrow","rightarrow","rightarrow"],"right_color":"orange","left_color":"lightblue","left_mu":60,"right_mu":48,"left_numbers":[61,64,56,60,59,75,79,66,58,59],"right_numbers":[44,59,44,46,45,50,36,48,32,40],"points_earned":533,"phase":"task","trial_type":"horizons-task","trial_index":63,"time_elapsed":1755970,"internal_node_id":"0.0-59.0","task_version":"0.2"},{"response_times":[584.3449999811128,463.86999997776,511.9399999966845,456.0950000304729,2160.289999912493],"keys_pressed":["leftarrow","rightarrow","rightarrow","leftarrow","leftarrow"],"horizon":5,"forced_choices":["leftarrow","rightarrow","rightarrow","leftarrow"],"right_color":"orange","left_color":"lightblue","left_mu":60,"right_mu":30,"left_numbers":[50,66,60,65,65],"right_numbers":[29,32,35,30,20],"points_earned":247,"phase":"task","trial_type":"horizons-task","trial_index":64,"time_elapsed":1761650,"internal_node_id":"0.0-60.0","task_version":"0.2"},{"response_times":[591.9849999481812,632.0899999700487,583.9100000448525,952.1100000711158,624.030000064522,616.124999942258,655.8550000190735,2016.4349999977276,1000.0800000270829,279.89000000525266],"keys_pressed":["rightarrow","leftarrow","rightarrow","leftarrow","rightarrow","rightarrow","rightarrow","leftarrow","leftarrow","rightarrow"],"horizon":10,"forced_choices":["rightarrow","leftarrow","rightarrow","leftarrow"],"right_color":"orange","left_color":"lightblue","left_mu":60,"right_mu":90,"left_numbers":[53,70,60,53,56,70,57,71,61,47],"right_numbers":[98,90,82,86,84,84,92,77,98,92],"points_earned":787,"phase":"task","trial_type":"horizons-task","trial_index":65,"time_elapsed":1771107,"internal_node_id":"0.0-61.0","task_version":"0.2"},{"response_times":[848.7499998882413,560.0349999731407,544.1049999790266,632.0099999429658,512.0149999856949],"keys_pressed":["leftarrow","rightarrow","leftarrow","leftarrow","rightarrow"],"horizon":5,"forced_choices":["leftarrow","rightarrow","leftarrow","leftarrow"],"right_color":"orange","left_color":"lightblue","left_mu":60,"right_mu":72,"left_numbers":[62,53,49,66,61],"right_numbers":[72,77,68,77,75],"points_earned":329,"phase":"task","trial_type":"horizons-task","trial_index":66,"time_elapsed":1775707,"internal_node_id":"0.0-62.0","task_version":"0.2"},{"response_times":[639.9000000674278,552.1799999987707,519.8899999959394,544.0549999475479,760.1849999045953,584.084999980405,463.8750000158325,520.0150000164285,448.6599999945611,543.3949999278411],"keys_pressed":["leftarrow","rightarrow","leftarrow","leftarrow","rightarrow","rightarrow","leftarrow","leftarrow","rightarrow","rightarrow"],"horizon":10,"forced_choices":["leftarrow","rightarrow","leftarrow","leftarrow"],"right_color":"orange","left_color":"lightblue","left_mu":60,"right_mu":72,"left_numbers":[63,71,71,65,46,46,50,55,63,58],"right_numbers":[70,79,75,79,85,65,68,74,70,77],"points_earned":680,"phase":"task","trial_type":"horizons-task","trial_index":67,"time_elapsed":1782788,"internal_node_id":"0.0-63.0","task_version":"0.2"},{"response_times":[568.2450000895187,535.924999974668,536.1650000559166,535.9900000039488,680.0849999999627,520.0999999651685,527.9400000581518,432.1050000144169,487.8500000340864,584.2449999181554],"keys_pressed":["leftarrow","rightarrow","leftarrow","rightarrow","leftarrow","leftarrow","rightarrow","rightarrow","leftarrow","leftarrow"],"horizon":10,"forced_choices":["leftarrow","rightarrow","leftarrow","rightarrow"],"right_color":"orange","left_color":"lightblue","left_mu":60,"right_mu":64,"left_numbers":[61,68,52,61,61,75,65,55,44,72],"right_numbers":[53,63,61,70,54,62,77,69,60,67],"points_earned":644,"phase":"task","trial_type":"horizons-task","trial_index":68,"time_elapsed":1789701,"internal_node_id":"0.0-64.0","task_version":"0.2"},{"response_times":[511.8149999761954,408.21499994490296,527.5799999944866,511.9999999878928,464.1250000568107,519.9049999937415,744.109999970533,472.0550000201911,496.199999935925,575.7600000360981],"keys_pressed":["rightarrow","rightarrow","leftarrow","leftarrow","rightarrow","rightarrow","leftarrow","leftarrow","rightarrow","leftarrow"],"horizon":10,"forced_choices":["rightarrow","rightarrow","leftarrow","leftarrow"],"right_color":"lightblue","left_color":"orange","left_mu":60,"right_mu":80,"left_numbers":[63,60,44,59,64,65,61,60,63,58],"right_numbers":[79,92,88,94,78,76,85,67,77,72],"points_earned":684,"phase":"task","trial_type":"horizons-task","trial_index":69,"time_elapsed":1796438,"internal_node_id":"0.0-65.0","task_version":"0.2"},{"response_times":[463.6849999660626,480.2200000267476,536.0899999504909,567.9300000192598,559.9899999797344],"keys_pressed":["rightarrow","leftarrow","leftarrow","leftarrow","rightarrow"],"horizon":5,"forced_choices":["rightarrow","leftarrow","leftarrow","leftarrow"],"right_color":"lightblue","left_color":"orange","left_mu":60,"right_mu":52,"left_numbers":[56,58,74,60,49],"right_numbers":[43,49,46,56,67],"points_earned":302,"phase":"task","trial_type":"horizons-task","trial_index":70,"time_elapsed":1800551,"internal_node_id":"0.0-66.0","task_version":"0.2"},{"response_times":[566.9650000054389,439.75500005763024,536.2249999307096,440.0350000942126,792.1199999982491],"keys_pressed":["leftarrow","rightarrow","rightarrow","leftarrow","leftarrow"],"horizon":5,"forced_choices":["leftarrow","rightarrow","rightarrow","leftarrow"],"right_color":"lightblue","left_color":"orange","left_mu":40,"right_mu":52,"left_numbers":[45,34,37,32,32],"right_numbers":[50,43,46,62,43],"points_earned":198,"phase":"task","trial_type":"horizons-task","trial_index":71,"time_elapsed":1804831,"internal_node_id":"0.0-67.0","task_version":"0.2"},{"response_times":[504.4200000120327,455.96000005025417,487.88000002969056,488.2000000216067,367.9750000592321],"keys_pressed":["rightarrow","rightarrow","leftarrow","leftarrow","rightarrow"],"horizon":5,"forced_choices":["rightarrow","rightarrow","leftarrow","leftarrow"],"right_color":"lightblue","left_color":"orange","left_mu":60,"right_mu":80,"left_numbers":[55,54,63,70,71],"right_numbers":[79,77,67,69,84],"points_earned":373,"phase":"task","trial_type":"horizons-task","trial_index":72,"time_elapsed":1808639,"internal_node_id":"0.0-68.0","task_version":"0.2"},{"response_times":[623.9100000821054,471.9749999931082,464.46500008460134,495.60000002384186,1136.2499999813735,911.8750001071021,287.8649999620393,456.2149998964742,936.0749999759719,1144.1349999513477],"keys_pressed":["leftarrow","leftarrow","rightarrow","rightarrow","leftarrow","leftarrow","rightarrow","rightarrow","leftarrow","rightarrow"],"horizon":10,"forced_choices":["leftarrow","leftarrow","rightarrow","rightarrow"],"right_color":"lightblue","left_color":"orange","left_mu":40,"right_mu":70,"left_numbers":[53,29,34,41,33,51,30,41,46,40],"right_numbers":[72,64,75,83,70,64,69,71,72,64],"points_earned":574,"phase":"task","trial_type":"horizons-task","trial_index":73,"time_elapsed":1817073,"internal_node_id":"0.0-69.0","task_version":"0.2"},{"response_times":[599.8249999247491,607.8449999913573,591.870000003837,584.1350000118837,999.9800000805408],"keys_pressed":["leftarrow","rightarrow","leftarrow","rightarrow","rightarrow"],"horizon":5,"forced_choices":["leftarrow","rightarrow","leftarrow","rightarrow"],"right_color":"orange","left_color":"lightblue","left_mu":40,"right_mu":60,"left_numbers":[39,26,48,45,43],"right_numbers":[62,58,57,62,56],"points_earned":263,"phase":"task","trial_type":"horizons-task","trial_index":74,"time_elapsed":1821961,"internal_node_id":"0.0-70.0","task_version":"0.2"},{"response_times":[560.59499992989,887.870000093244,704.0950000518933,560.0499999709427,415.9050000598654,632.1200000820681,511.95499999448657,712.0550000108778,512.8650000551715,447.2950000781566],"keys_pressed":["leftarrow","rightarrow","leftarrow","leftarrow","rightarrow","rightarrow","leftarrow","leftarrow","rightarrow","leftarrow"],"horizon":10,"forced_choices":["leftarrow","rightarrow","leftarrow","leftarrow"],"right_color":"lightblue","left_color":"orange","left_mu":60,"right_mu":80,"left_numbers":[71,63,70,54,62,59,69,73,58,63],"right_numbers":[70,75,81,76,76,82,78,81,67,63],"points_earned":700,"phase":"task","trial_type":"horizons-task","trial_index":75,"time_elapsed":1829410,"internal_node_id":"0.0-71.0","task_version":"0.2"},{"response_times":[631.6050000023097,584.000000031665,552.060000016354,792.7299999864772,519.289999967441,624.4100000476465,463.8199999462813,792.0000000158325,264.009999926202,431.9099999265745],"keys_pressed":["rightarrow","rightarrow","leftarrow","leftarrow","rightarrow","rightarrow","leftarrow","leftarrow","rightarrow","rightarrow"],"horizon":10,"forced_choices":["rightarrow","rightarrow","leftarrow","leftarrow"],"right_color":"orange","left_color":"lightblue","left_mu":60,"right_mu":40,"left_numbers":[67,76,62,65,66,56,66,55,59,49],"right_numbers":[40,35,47,29,52,44,35,45,48,41],"points_earned":508,"phase":"task","trial_type":"horizons-task","trial_index":76,"time_elapsed":1836571,"internal_node_id":"0.0-72.0","task_version":"0.2"},{"response_times":[559.984999941662,792.005000053905,488.15500002820045,696.0699999472126,488.0600000033155],"keys_pressed":["leftarrow","leftarrow","rightarrow","rightarrow","leftarrow"],"horizon":5,"forced_choices":["leftarrow","leftarrow","rightarrow","rightarrow"],"right_color":"lightblue","left_color":"orange","left_mu":40,"right_mu":70,"left_numbers":[43,35,28,46,37],"right_numbers":[74,65,61,52,66],"points_earned":228,"phase":"task","trial_type":"horizons-task","trial_index":77,"time_elapsed":1841099,"internal_node_id":"0.0-73.0","task_version":"0.2"},{"response_times":[623.9599999971688,519.9750000610948,488.17999998573214,864.1800000332296,703.9549999171868,544.0299999900162,592.1150000067428,848.0299999937415,455.93499997630715,376.02500000502914],"keys_pressed":["rightarrow","rightarrow","leftarrow","rightarrow","leftarrow","rightarrow","rightarrow","rightarrow","leftarrow","leftarrow"],"horizon":10,"forced_choices":["rightarrow","rightarrow","leftarrow","rightarrow"],"right_color":"orange","left_color":"lightblue","left_mu":40,"right_mu":10,"left_numbers":[30,44,29,32,30,26,44,42,44,40],"right_numbers":[17,3,15,9,11,21,18,0,14,4],"points_earned":211,"phase":"task","trial_type":"horizons-task","trial_index":78,"time_elapsed":1848620,"internal_node_id":"0.0-74.0","task_version":"0.2"},{"response_times":[648.4199999831617,559.9100000690669,640.1700000278652,552.0950000500306,1800.5899999989197],"keys_pressed":["leftarrow","rightarrow","rightarrow","leftarrow","rightarrow"],"horizon":5,"forced_choices":["leftarrow","rightarrow","rightarrow","leftarrow"],"right_color":"orange","left_color":"lightblue","left_mu":60,"right_mu":48,"left_numbers":[72,55,61,62,53],"right_numbers":[60,55,65,55,48],"points_earned":302,"phase":"task","trial_type":"horizons-task","trial_index":79,"time_elapsed":1854325,"internal_node_id":"0.0-75.0","task_version":"0.2"},{"response_times":[4336.024999967776,639.7349999751896,671.9650001032278,640.2199999429286,447.89499999023974,520.0950000435114,456.1049999902025,760.0550000788644,608.0650000367314,383.9949999237433],"keys_pressed":["rightarrow","leftarrow","leftarrow","leftarrow","rightarrow","rightarrow","rightarrow","leftarrow","leftarrow","rightarrow"],"horizon":10,"forced_choices":["rightarrow","leftarrow","leftarrow","leftarrow"],"right_color":"lightblue","left_color":"orange","left_mu":40,"right_mu":36,"left_numbers":[43,56,48,26,32,30,36,35,50,39],"right_numbers":[40,45,29,43,38,41,34,18,38,20],"points_earned":388,"phase":"task","trial_type":"horizons-task","trial_index":80,"time_elapsed":1865294,"internal_node_id":"0.0-76.0","task_version":"0.2"},{"response_times":[472.3900000099093,551.8099999753758,576.2699999613687,295.90000002644956,736.0949999419972],"keys_pressed":["rightarrow","leftarrow","leftarrow","rightarrow","rightarrow"],"horizon":5,"forced_choices":["rightarrow","leftarrow","leftarrow","rightarrow"],"right_color":"lightblue","left_color":"orange","left_mu":40,"right_mu":28,"left_numbers":[31,42,46,27,50],"right_numbers":[41,13,41,23,27],"points_earned":179,"phase":"task","trial_type":"horizons-task","trial_index":81,"time_elapsed":1869431,"internal_node_id":"0.0-77.0","task_version":"0.2"},{"response_times":[695.9349999669939,839.7699999623001,1144.3499999586493,784.0850000502542,1127.9750000685453],"keys_pressed":["leftarrow","leftarrow","rightarrow","leftarrow","rightarrow"],"horizon":5,"forced_choices":["leftarrow","leftarrow","rightarrow","leftarrow"],"right_color":"orange","left_color":"lightblue","left_mu":40,"right_mu":48,"left_numbers":[32,33,50,38,31],"right_numbers":[41,59,51,57,58],"points_earned":212,"phase":"task","trial_type":"horizons-task","trial_index":82,"time_elapsed":1875527,"internal_node_id":"0.0-78.0","task_version":"0.2"},{"response_times":[904.09000008367,680.0649999640882,704.0600000182167,664.0349999070168,688.2949999999255],"keys_pressed":["rightarrow","leftarrow","leftarrow","leftarrow","rightarrow"],"horizon":5,"forced_choices":["rightarrow","leftarrow","leftarrow","leftarrow"],"right_color":"lightblue","left_color":"orange","left_mu":40,"right_mu":52,"left_numbers":[57,33,37,41,27],"right_numbers":[45,53,60,52,31],"points_earned":187,"phase":"task","trial_type":"horizons-task","trial_index":83,"time_elapsed":1880673,"internal_node_id":"0.0-79.0","task_version":"0.2"},{"response_times":[655.5599999846891,543.7449999153614,552.0900000119582,544.0249999519438,808.2049998920411],"keys_pressed":["leftarrow","rightarrow","leftarrow","rightarrow","rightarrow"],"horizon":5,"forced_choices":["leftarrow","rightarrow","leftarrow","rightarrow"],"right_color":"lightblue","left_color":"orange","left_mu":40,"right_mu":32,"left_numbers":[39,31,40,40,42],"right_numbers":[30,33,30,38,15],"points_earned":165,"phase":"task","trial_type":"horizons-task","trial_index":84,"time_elapsed":1885281,"internal_node_id":"0.0-80.0","task_version":"0.2"},{"response_times":[567.9050000617281,527.9499999014661,504.24999999813735,544.0249999519438,1040.1050000218675,551.9700000295416,495.89499994181097,392.2300001140684,432.109999936074,655.8000000659376],"keys_pressed":["leftarrow","rightarrow","rightarrow","rightarrow","leftarrow","leftarrow","rightarrow","rightarrow","leftarrow","leftarrow"],"horizon":10,"forced_choices":["leftarrow","rightarrow","rightarrow","rightarrow"],"right_color":"orange","left_color":"lightblue","left_mu":60,"right_mu":64,"left_numbers":[56,78,63,64,65,54,58,66,58,53],"right_numbers":[60,62,66,65,68,70,59,65,64,65],"points_earned":603,"phase":"task","trial_type":"horizons-task","trial_index":85,"time_elapsed":1892497,"internal_node_id":"0.0-81.0","task_version":"0.2"},{"response_times":[624.805000028573,583.8549999753013,592.5450000213459,847.5949999410659,704.1050000116229],"keys_pressed":["rightarrow","leftarrow","rightarrow","leftarrow","rightarrow"],"horizon":5,"forced_choices":["rightarrow","leftarrow","rightarrow","leftarrow"],"right_color":"orange","left_color":"lightblue","left_mu":60,"right_mu":90,"left_numbers":[64,61,64,63,48],"right_numbers":[95,100,91,85,82],"points_earned":392,"phase":"task","trial_type":"horizons-task","trial_index":86,"time_elapsed":1897354,"internal_node_id":"0.0-82.0","task_version":"0.2"},{"response_times":[568.1549999862909,535.8049999922514,728.2350000459701,423.8500000210479,1000.3250000299886],"keys_pressed":["rightarrow","leftarrow","rightarrow","leftarrow","rightarrow"],"horizon":5,"forced_choices":["rightarrow","leftarrow","rightarrow","leftarrow"],"right_color":"lightblue","left_color":"orange","left_mu":40,"right_mu":36,"left_numbers":[25,31,47,30,27],"right_numbers":[39,37,36,38,33],"points_earned":169,"phase":"task","trial_type":"horizons-task","trial_index":87,"time_elapsed":1902114,"internal_node_id":"0.0-83.0","task_version":"0.2"},{"response_times":[688.5750000365078,568.0649999994785,528.1700000632554,640.1499999919906,807.8199999872595,463.92499993089586,648.1699999421835,463.82000006269664,776.3300000224262,151.79000003263354],"keys_pressed":["rightarrow","rightarrow","leftarrow","rightarrow","leftarrow","rightarrow","rightarrow","leftarrow","leftarrow","rightarrow"],"horizon":10,"forced_choices":["rightarrow","rightarrow","leftarrow","rightarrow"],"right_color":"lightblue","left_color":"orange","left_mu":40,"right_mu":20,"left_numbers":[36,35,39,56,43,49,43,42,26,43],"right_numbers":[14,13,28,16,26,16,14,27,12,39],"points_earned":262,"phase":"task","trial_type":"horizons-task","trial_index":88,"time_elapsed":1909355,"internal_node_id":"0.0-84.0","task_version":"0.2"},{"response_times":[768.404999980703,568.0950001114979,480.0449999747798,983.9950000168756,520.2000000281259,672.0000000204891,664.1750000417233,535.909999976866,600.1049999613315,431.9900000700727],"keys_pressed":["leftarrow","rightarrow","rightarrow","rightarrow","leftarrow","rightarrow","rightarrow","leftarrow","rightarrow","leftarrow"],"horizon":10,"forced_choices":["leftarrow","rightarrow","rightarrow","rightarrow"],"right_color":"orange","left_color":"lightblue","left_mu":40,"right_mu":60,"left_numbers":[47,40,38,45,42,38,55,40,54,44],"right_numbers":[57,63,59,49,68,59,67,65,56,72],"points_earned":526,"phase":"task","trial_type":"horizons-task","trial_index":89,"time_elapsed":1917083,"internal_node_id":"0.0-85.0","task_version":"0.2"},{"response_times":[719.8300000745803,927.8799999738112,944.3100000498816,584.4449999276549,1111.4199999719858,760.1649999851361,992.0100000454113,792.2099999850616,816.249999916181,648.0600000359118],"keys_pressed":["leftarrow","rightarrow","rightarrow","leftarrow","leftarrow","rightarrow","leftarrow","rightarrow","leftarrow","rightarrow"],"horizon":10,"forced_choices":["leftarrow","rightarrow","rightarrow","leftarrow"],"right_color":"lightblue","left_color":"orange","left_mu":40,"right_mu":52,"left_numbers":[28,45,55,33,25,36,46,58,25,42],"right_numbers":[47,44,48,40,42,51,56,52,56,51],"points_earned":403,"phase":"task","trial_type":"horizons-task","trial_index":90,"time_elapsed":1926885,"internal_node_id":"0.0-86.0","task_version":"0.2"},{"response_times":[615.734999999404,584.0450000250712,856.0399999842048,1647.9749999707565,256.19000010192394],"keys_pressed":["rightarrow","leftarrow","rightarrow","rightarrow","leftarrow"],"horizon":5,"forced_choices":["rightarrow","leftarrow","rightarrow","rightarrow"],"right_color":"orange","left_color":"lightblue","left_mu":60,"right_mu":48,"left_numbers":[61,54,61,62,70],"right_numbers":[30,36,57,37,50],"points_earned":248,"phase":"task","trial_type":"horizons-task","trial_index":91,"time_elapsed":1932350,"internal_node_id":"0.0-87.0","task_version":"0.2"},{"rt":21507.489999989048,"responses":{"age":"24","gender-categorical":"Male","gender-free-response":"","ethnicity":"Not Hispanic or Latino","race":["White"],"language":"Yes","fluency":"Very well"},"survey":"demographics","trial_type":"survey-demo","trial_index":92,"time_elapsed":1953860,"internal_node_id":"0.0-88.0","task_version":"0.2"},{"rt":80618.05000004824,"responses":{"difficulty":"5","fun":"4","clarity":"5","strategy":"I was simply trying to see which of the two machines produced a higher average. I would try to do either 2 on one side and 2 on another, and alternate.","feedback":"Thanks for allowing me to participate. It was fun."},"survey":"debrief","trial_type":"survey-debrief","trial_index":93,"time_elapsed":2034483,"internal_node_id":"0.0-89.0","task_version":"0.2","interactions":"[{\"event\":\"blur\",\"trial\":2,\"time\":83060},{\"event\":\"focus\",\"trial\":2,\"time\":114029},{\"event\":\"blur\",\"trial\":3,\"time\":155475},{\"event\":\"focus\",\"trial\":3,\"time\":566209},{\"event\":\"blur\",\"trial\":3,\"time\":569091},{\"event\":\"focus\",\"trial\":3,\"time\":570453},{\"event\":\"blur\",\"trial\":3,\"time\":573467},{\"event\":\"focus\",\"trial\":3,\"time\":574319},{\"event\":\"blur\",\"trial\":4,\"time\":654460},{\"event\":\"focus\",\"trial\":4,\"time\":655536},{\"event\":\"blur\",\"trial\":4,\"time\":655839},{\"event\":\"focus\",\"trial\":4,\"time\":657084},{\"event\":\"blur\",\"trial\":4,\"time\":657085},{\"event\":\"focus\",\"trial\":4,\"time\":658141},{\"event\":\"blur\",\"trial\":14,\"time\":807588},{\"event\":\"focus\",\"trial\":14,\"time\":815581},{\"event\":\"blur\",\"trial\":51,\"time\":1096331},{\"event\":\"focus\",\"trial\":51,\"time\":1668559},{\"event\":\"blur\",\"trial\":53,\"time\":1687274},{\"event\":\"focus\",\"trial\":53,\"time\":1687793},{\"event\":\"blur\",\"trial\":79,\"time\":1854323},{\"event\":\"focus\",\"trial\":80,\"time\":1857701}]"}]