[{"view_history":"[{\"page_index\":0,\"viewing_time\":8832}]","rt":8833,"trial_type":"instructions","trial_index":0,"time_elapsed":8852,"internal_node_id":"0.0-0.0","task_version":"0.2"},{"item_order":[0,4,8,9,13,2,1,12,10,7,5,15,11,6,3,14],"responses":{"Q01":"4","Q05":"4","Q09":"2","Q10":"2","Q14":"1","Q03":"3","Q02":"4","Q13":"5","Q11":"4","Q08":"4","Q06":"5","Q16":"3","Q12":"4","Q07":"2","Q04":"4","Q15":"5"},"radio_events":[9528.999999999998,15022.999999999998,21947,26752,44326,48681,53058,55869,61694,88661,91629.00000000001,93504.00000000001,96480,100722,105268,111469,113592],"key_events":[],"mouse_events":[0,9528.999999999998,15022.999999999998,21947,26752,44326,48681,53058,55053,55869,61694,87868,88661,91629.00000000001,93504.00000000001,96480,100722,104531.00000000001,105268,110808,111469,113592,114297],"rt":114317,"survey":"nfc","trial_type":"survey-template","trial_index":1,"time_elapsed":123180,"internal_node_id":"0.0-1.0","task_version":"0.2"},{"item_order":[8,10,3,1,11,4,14,0,9,6,7,16,15,13,5,12,2],"responses":{"Q09":"3","Q11":"4","Q04":"4","Q02":"2","Q12":"3","Q05":"4","Q15":"3","Q01":"3","Q10":"4","Q07":"3","Q08":"3","Q17":"0","Q16":"3","Q14":"4","Q06":"1","Q13":"3","Q03":"4"},"radio_events":[9577,13318,15308,18919,23417,27245,28442,35360,45845,50403,54708,57207,61072,63230,71415,75580,79357,85731],"key_events":[],"mouse_events":[9577,13318,15308,18919,23417,27245,28442,35360,45845,50403,52317,54708,57207,59630.00000000003,61072,62225,63230,71415,75580,78060,79357,80652,85731,87730],"rt":87743.00000000003,"survey":"pswq","trial_type":"survey-template","trial_index":2,"time_elapsed":210930,"internal_node_id":"0.0-2.0","task_version":"0.2"},{"item_order":[7,5,10,12,4,6,9,3,1,11,2,8,0],"responses":{"Q08":"3","Q06":"4","Q11":"3","Q13":"4","Q05":"1","Q07":"1","Q10":"2","Q04":"3","Q02":"4","Q12":"1","Q03":"0","Q09":"1","Q01":"1"},"radio_events":[11785,18537,23580.00000000003,25435,33360.00000000003,37911,40278,45384.00000000003,48607.00000000003,51984,53978,56666,58901],"key_events":[],"mouse_events":[11785,18537,23580.00000000003,25435,32603,33360.00000000003,37911,40278,45384.00000000003,48607.00000000003,51984,53978,56666,58901,60115],"rt":60128,"survey":"ius12","trial_type":"survey-template","trial_index":3,"time_elapsed":271063,"internal_node_id":"0.0-3.0","task_version":"0.2"},{"view_history":"[{\"page_index\":0,\"viewing_time\":7294},{\"page_index\":1,\"viewing_time\":5041},{\"page_index\":2,\"viewing_time\":2238},{\"page_index\":3,\"viewing_time\":928.0000000000582},{\"page_index\":2,\"viewing_time\":7372.999999999942},{\"page_index\":3,\"viewing_time\":7072},{\"page_index\":4,\"viewing_time\":4406.000000000058},{\"page_index\":5,\"viewing_time\":5094.999999999942},{\"page_index\":6,\"viewing_time\":5611},{\"page_index\":7,\"viewing_time\":8904},{\"page_index\":8,\"viewing_time\":8766},{\"page_index\":9,\"viewing_time\":5677.000000000058}]","rt":68405.00000000006,"trial_type":"instructions","trial_index":4,"time_elapsed":339472,"internal_node_id":"0.0-4.0-0.0","task_version":"0.2"},{"response_times":[1085,1832,966,895,1647],"keys_pressed":["rightarrow","leftarrow","rightarrow","rightarrow","leftarrow"],"horizon":5,"forced_choices":["rightarrow","leftarrow","rightarrow","rightarrow"],"right_color":"lightblue","left_color":"orange","left_mu":40,"right_mu":20,"left_numbers":[30,40,45,55,43],"right_numbers":[24,13,22,11,18],"points_earned":140,"phase":"practice","trial_type":"horizons-task","trial_index":5,"time_elapsed":347406,"internal_node_id":"0.0-4.0-1.0","task_version":"0.2"},{"response_times":[1316,1111,587,822,2238,1319,1435,747.0000000000582,2041.9999999999418,1630],"keys_pressed":["leftarrow","leftarrow","rightarrow","rightarrow","rightarrow","rightarrow","rightarrow","leftarrow","rightarrow","leftarrow"],"horizon":10,"forced_choices":["leftarrow","leftarrow","rightarrow","rightarrow"],"right_color":"orange","left_color":"lightblue","left_mu":60,"right_mu":70,"left_numbers":[60,43,57,50,60,61,49,73,72,68],"right_numbers":[52,82,79,68,74,64,57,65,59,73],"points_earned":645,"phase":"practice","trial_type":"horizons-task","trial_index":6,"time_elapsed":362157,"internal_node_id":"0.0-4.0-2.0","task_version":"0.2"},{"view_history":"[{\"page_index\":0,\"viewing_time\":1782},{\"page_index\":1,\"viewing_time\":3574},{\"page_index\":2,\"viewing_time\":3729},{\"page_index\":3,\"viewing_time\":2745}]","rt":11831,"trial_type":"instructions","trial_index":7,"time_elapsed":373989,"internal_node_id":"0.0-4.0-3.0","task_version":"0.2"},{"responses":["true","false","true"],"num_errors":0,"rt":13437.999999999942,"trial_type":"horizons-comprehension","trial_index":8,"time_elapsed":387431,"internal_node_id":"0.0-4.0-4.0","task_version":"0.2"},{"trial_type":"call-function","trial_index":9,"time_elapsed":387436,"internal_node_id":"0.0-5.0","task_version":"0.2"},{"view_history":"[{\"page_index\":0,\"viewing_time\":1852},{\"page_index\":1,\"viewing_time\":3260}]","rt":5112,"trial_type":"instructions","trial_index":10,"time_elapsed":392549,"internal_node_id":"0.0-6.0","task_version":"0.2"},{"response_times":[932,669,518,495,1878,1146,1809,948,1212,1404],"keys_pressed":["leftarrow","rightarrow","leftarrow","rightarrow","rightarrow","leftarrow","leftarrow","rightarrow","leftarrow","leftarrow"],"horizon":10,"forced_choices":["leftarrow","rightarrow","leftarrow","rightarrow"],"right_color":"lightblue","left_color":"orange","left_mu":40,"right_mu":32,"left_numbers":[28,35,29,48,41,53,42,36,41,40],"right_numbers":[22,35,37,30,32,20,42,22,34,36],"points_earned":352,"phase":"task","trial_type":"horizons-task","trial_index":11,"time_elapsed":405069,"internal_node_id":"0.0-7.0","task_version":"0.2"},{"response_times":[1805,649,1059,885,883],"keys_pressed":["rightarrow","leftarrow","leftarrow","rightarrow","leftarrow"],"horizon":5,"forced_choices":["rightarrow","leftarrow","leftarrow","rightarrow"],"right_color":"orange","left_color":"lightblue","left_mu":60,"right_mu":52,"left_numbers":[61,57,57,61,58],"right_numbers":[39,49,37,32,63],"points_earned":243,"phase":"task","trial_type":"horizons-task","trial_index":12,"time_elapsed":411855,"internal_node_id":"0.0-8.0","task_version":"0.2"},{"response_times":[1177.0000000000582,585.9999999999418,767,541,1151],"keys_pressed":["rightarrow","rightarrow","rightarrow","leftarrow","leftarrow"],"horizon":5,"forced_choices":["rightarrow","rightarrow","rightarrow","leftarrow"],"right_color":"lightblue","left_color":"orange","left_mu":40,"right_mu":28,"left_numbers":[32,51,44,51,38],"right_numbers":[24,20,16,28,25],"points_earned":149,"phase":"task","trial_type":"horizons-task","trial_index":13,"time_elapsed":417581,"internal_node_id":"0.0-9.0","task_version":"0.2"},{"response_times":[645,446,647,1044,1340.0000000000582],"keys_pressed":["leftarrow","rightarrow","rightarrow","leftarrow","leftarrow"],"horizon":5,"forced_choices":["leftarrow","rightarrow","rightarrow","leftarrow"],"right_color":"lightblue","left_color":"orange","left_mu":40,"right_mu":28,"left_numbers":[49,36,46,41,30],"right_numbers":[23,21,17,32,41],"points_earned":158,"phase":"task","trial_type":"horizons-task","trial_index":14,"time_elapsed":423208,"internal_node_id":"0.0-10.0","task_version":"0.2"},{"response_times":[828,463,474,477,1558.0000000000582,1075.9999999999418,1577,1149,2725,1499],"keys_pressed":["rightarrow","leftarrow","leftarrow","leftarrow","rightarrow","rightarrow","leftarrow","rightarrow","leftarrow","leftarrow"],"horizon":10,"forced_choices":["rightarrow","leftarrow","leftarrow","leftarrow"],"right_color":"lightblue","left_color":"orange","left_mu":40,"right_mu":44,"left_numbers":[45,38,38,36,59,37,42,37,49,35],"right_numbers":[43,53,51,46,32,49,50,35,60,45],"points_earned":397,"phase":"task","trial_type":"horizons-task","trial_index":15,"time_elapsed":436538,"internal_node_id":"0.0-11.0","task_version":"0.2"},{"response_times":[743,396,495,745,642,1260,1220,937.0000000000582,650.9999999999418,698],"keys_pressed":["leftarrow","rightarrow","rightarrow","leftarrow","rightarrow","leftarrow","rightarrow","leftarrow","leftarrow","rightarrow"],"horizon":10,"forced_choices":["leftarrow","rightarrow","rightarrow","leftarrow"],"right_color":"orange","left_color":"lightblue","left_mu":40,"right_mu":52,"left_numbers":[54,44,32,58,32,51,42,34,34,47],"right_numbers":[60,55,59,43,37,51,38,62,39,61],"points_earned":481,"phase":"task","trial_type":"horizons-task","trial_index":16,"time_elapsed":445837,"internal_node_id":"0.0-12.0","task_version":"0.2"},{"response_times":[767,780.0000000000582,2355.999999999942,864,4686.000000000058],"keys_pressed":["leftarrow","leftarrow","leftarrow","rightarrow","rightarrow"],"horizon":5,"forced_choices":["leftarrow","leftarrow","leftarrow","rightarrow"],"right_color":"orange","left_color":"lightblue","left_mu":40,"right_mu":52,"left_numbers":[41,56,48,43,38],"right_numbers":[54,48,58,58,45],"points_earned":248,"phase":"task","trial_type":"horizons-task","trial_index":17,"time_elapsed":456793,"internal_node_id":"0.0-13.0","task_version":"0.2"},{"response_times":[1067.0000000000582,763.9999999999418,580,1430.0000000000582,1461.9999999999418],"keys_pressed":["leftarrow","rightarrow","rightarrow","leftarrow","rightarrow"],"horizon":5,"forced_choices":["leftarrow","rightarrow","rightarrow","leftarrow"],"right_color":"orange","left_color":"lightblue","left_mu":40,"right_mu":52,"left_numbers":[33,50,43,46,38],"right_numbers":[47,49,63,49,43],"points_earned":234,"phase":"task","trial_type":"horizons-task","trial_index":18,"time_elapsed":463599,"internal_node_id":"0.0-14.0","task_version":"0.2"},{"response_times":[738,589.9999999999418,558,668,1298],"keys_pressed":["leftarrow","rightarrow","leftarrow","rightarrow","leftarrow"],"horizon":5,"forced_choices":["leftarrow","rightarrow","leftarrow","rightarrow"],"right_color":"orange","left_color":"lightblue","left_mu":40,"right_mu":36,"left_numbers":[43,36,41,22,29],"right_numbers":[37,11,40,39,34],"points_earned":163,"phase":"task","trial_type":"horizons-task","trial_index":19,"time_elapsed":468953,"internal_node_id":"0.0-15.0","task_version":"0.2"},{"response_times":[693.0000000000582,471.9999999999418,585,747,847],"keys_pressed":["leftarrow","leftarrow","rightarrow","rightarrow","rightarrow"],"horizon":5,"forced_choices":["leftarrow","leftarrow","rightarrow","rightarrow"],"right_color":"orange","left_color":"lightblue","left_mu":60,"right_mu":64,"left_numbers":[57,53,57,58,63],"right_numbers":[50,70,71,53,53],"points_earned":287,"phase":"task","trial_type":"horizons-task","trial_index":20,"time_elapsed":473801,"internal_node_id":"0.0-16.0","task_version":"0.2"},{"response_times":[629,449,482.0000000000582,577.9999999999418,3443],"keys_pressed":["rightarrow","rightarrow","leftarrow","rightarrow","leftarrow"],"horizon":5,"forced_choices":["rightarrow","rightarrow","leftarrow","rightarrow"],"right_color":"orange","left_color":"lightblue","left_mu":60,"right_mu":48,"left_numbers":[60,58,64,62,61],"right_numbers":[48,63,52,39,36],"points_earned":275,"phase":"task","trial_type":"horizons-task","trial_index":21,"time_elapsed":480885,"internal_node_id":"0.0-17.0","task_version":"0.2"},{"response_times":[519,412.9999999999418,510,628,1851],"keys_pressed":["rightarrow","leftarrow","rightarrow","rightarrow","rightarrow"],"horizon":5,"forced_choices":["rightarrow","leftarrow","rightarrow","rightarrow"],"right_color":"orange","left_color":"lightblue","left_mu":60,"right_mu":64,"left_numbers":[60,64,76,54,61],"right_numbers":[67,60,54,61,83],"points_earned":329,"phase":"task","trial_type":"horizons-task","trial_index":22,"time_elapsed":486309,"internal_node_id":"0.0-18.0","task_version":"0.2"},{"response_times":[573,374,408,646,1438.0000000000582,1375.9999999999418,1036,714,600.0000000000582,556.9999999999418],"keys_pressed":["leftarrow","rightarrow","leftarrow","leftarrow","rightarrow","rightarrow","leftarrow","rightarrow","rightarrow","rightarrow"],"horizon":10,"forced_choices":["leftarrow","rightarrow","leftarrow","leftarrow"],"right_color":"lightblue","left_color":"orange","left_mu":40,"right_mu":70,"left_numbers":[36,28,50,37,46,39,33,41,27,28],"right_numbers":[63,74,68,72,66,64,65,67,67,69],"points_earned":563,"phase":"task","trial_type":"horizons-task","trial_index":23,"time_elapsed":495534,"internal_node_id":"0.0-19.0","task_version":"0.2"},{"response_times":[551,407,677,725,692],"keys_pressed":["rightarrow","leftarrow","rightarrow","leftarrow","rightarrow"],"horizon":5,"forced_choices":["rightarrow","leftarrow","rightarrow","leftarrow"],"right_color":"orange","left_color":"lightblue","left_mu":60,"right_mu":90,"left_numbers":[47,61,39,62,63],"right_numbers":[93,81,88,87,97],"points_earned":401,"phase":"task","trial_type":"horizons-task","trial_index":24,"time_elapsed":500094,"internal_node_id":"0.0-20.0","task_version":"0.2"},{"response_times":[697,529,440.9999999999418,473,1364,929,667,508,601.0000000000582,582],"keys_pressed":["leftarrow","leftarrow","rightarrow","rightarrow","leftarrow","rightarrow","leftarrow","leftarrow","leftarrow","leftarrow"],"horizon":10,"forced_choices":["leftarrow","leftarrow","rightarrow","rightarrow"],"right_color":"orange","left_color":"lightblue","left_mu":40,"right_mu":10,"left_numbers":[56,50,28,35,42,51,36,43,37,58],"right_numbers":[31,24,0,17,22,4,5,16,13,15],"points_earned":343,"phase":"task","trial_type":"horizons-task","trial_index":25,"time_elapsed":508389,"internal_node_id":"0.0-21.0","task_version":"0.2"},{"response_times":[541,382,797,855,1404],"keys_pressed":["leftarrow","rightarrow","leftarrow","rightarrow","rightarrow"],"horizon":5,"forced_choices":["leftarrow","rightarrow","leftarrow","rightarrow"],"right_color":"lightblue","left_color":"orange","left_mu":60,"right_mu":56,"left_numbers":[54,65,57,60,57],"right_numbers":[60,53,63,69,49],"points_earned":282,"phase":"task","trial_type":"horizons-task","trial_index":26,"time_elapsed":513872,"internal_node_id":"0.0-22.0","task_version":"0.2"},{"response_times":[582.9999999999418,394.0000000000582,520.9999999999418,851,1877,900.0000000000582,770.9999999999418,558.9999999999418,467.0000000001164,429],"keys_pressed":["leftarrow","rightarrow","rightarrow","rightarrow","leftarrow","rightarrow","rightarrow","rightarrow","rightarrow","rightarrow"],"horizon":10,"forced_choices":["leftarrow","rightarrow","rightarrow","rightarrow"],"right_color":"orange","left_color":"lightblue","left_mu":60,"right_mu":72,"left_numbers":[59,63,74,58,55,59,55,55,52,72],"right_numbers":[80,60,59,54,55,65,88,72,78,63],"points_earned":653,"phase":"task","trial_type":"horizons-task","trial_index":27,"time_elapsed":522731,"internal_node_id":"0.0-23.0","task_version":"0.2"},{"response_times":[634.9999999999418,463,741,489,1446.0000000001164,1007.9999999998836,691,501,383,406],"keys_pressed":["leftarrow","leftarrow","rightarrow","leftarrow","rightarrow","leftarrow","leftarrow","leftarrow","leftarrow","leftarrow"],"horizon":10,"forced_choices":["leftarrow","leftarrow","rightarrow","leftarrow"],"right_color":"orange","left_color":"lightblue","left_mu":60,"right_mu":52,"left_numbers":[63,51,58,42,52,64,69,67,58,55],"right_numbers":[58,45,48,42,43,65,45,54,43,64],"points_earned":560,"phase":"task","trial_type":"horizons-task","trial_index":28,"time_elapsed":530998,"internal_node_id":"0.0-24.0","task_version":"0.2"},{"response_times":[677,380,477,479,2604,799,535,468,345,387],"keys_pressed":["rightarrow","leftarrow","leftarrow","rightarrow","rightarrow","leftarrow","rightarrow","rightarrow","rightarrow","rightarrow"],"horizon":10,"forced_choices":["rightarrow","leftarrow","leftarrow","rightarrow"],"right_color":"lightblue","left_color":"orange","left_mu":40,"right_mu":48,"left_numbers":[37,36,35,38,49,35,37,47,45,39],"right_numbers":[44,56,40,50,47,49,40,44,46,59],"points_earned":436,"phase":"task","trial_type":"horizons-task","trial_index":29,"time_elapsed":539654,"internal_node_id":"0.0-25.0","task_version":"0.2"},{"response_times":[555,575,467.0000000001164,734.9999999998836,818.0000000001164,1053,524.9999999998836,366,869,513],"keys_pressed":["leftarrow","leftarrow","rightarrow","leftarrow","rightarrow","rightarrow","rightarrow","rightarrow","rightarrow","rightarrow"],"horizon":10,"forced_choices":["leftarrow","leftarrow","rightarrow","leftarrow"],"right_color":"orange","left_color":"lightblue","left_mu":60,"right_mu":90,"left_numbers":[67,60,62,56,66,76,72,68,64,49],"right_numbers":[81,77,103,92,97,88,76,97,95,93],"points_earned":832,"phase":"task","trial_type":"horizons-task","trial_index":30,"time_elapsed":547633,"internal_node_id":"0.0-26.0","task_version":"0.2"},{"response_times":[579,369,487,833,479,1425,734,1670,1486,414],"keys_pressed":["leftarrow","rightarrow","leftarrow","leftarrow","rightarrow","leftarrow","rightarrow","rightarrow","rightarrow","rightarrow"],"horizon":10,"forced_choices":["leftarrow","rightarrow","leftarrow","leftarrow"],"right_color":"lightblue","left_color":"orange","left_mu":60,"right_mu":68,"left_numbers":[76,62,56,53,69,67,78,71,59,58],"right_numbers":[72,81,62,63,59,48,76,64,72,70],"points_earned":674,"phase":"task","trial_type":"horizons-task","trial_index":31,"time_elapsed":557612,"internal_node_id":"0.0-27.0","task_version":"0.2"},{"response_times":[1386,389,515,416.0000000001164,1456.0000000001164,663.9999999998836,832,953,1183,812],"keys_pressed":["rightarrow","rightarrow","leftarrow","rightarrow","leftarrow","rightarrow","leftarrow","rightarrow","rightarrow","rightarrow"],"horizon":10,"forced_choices":["rightarrow","rightarrow","leftarrow","rightarrow"],"right_color":"lightblue","left_color":"orange","left_mu":40,"right_mu":48,"left_numbers":[33,42,43,25,46,24,51,50,22,24],"right_numbers":[44,54,43,54,33,43,49,56,43,41],"points_earned":475,"phase":"task","trial_type":"horizons-task","trial_index":32,"time_elapsed":567727,"internal_node_id":"0.0-28.0","task_version":"0.2"},{"response_times":[495.9999999998836,431,735,806,681.0000000001164],"keys_pressed":["rightarrow","rightarrow","leftarrow","rightarrow","leftarrow"],"horizon":5,"forced_choices":["rightarrow","rightarrow","leftarrow","rightarrow"],"right_color":"lightblue","left_color":"orange","left_mu":40,"right_mu":48,"left_numbers":[36,33,55,31,41],"right_numbers":[49,46,36,32,59],"points_earned":223,"phase":"task","trial_type":"horizons-task","trial_index":33,"time_elapsed":572380,"internal_node_id":"0.0-29.0","task_version":"0.2"},{"response_times":[632,376,383,708,1049,904,575,395,1127,526],"keys_pressed":["rightarrow","leftarrow","rightarrow","leftarrow","rightarrow","rightarrow","rightarrow","rightarrow","leftarrow","rightarrow"],"horizon":10,"forced_choices":["rightarrow","leftarrow","rightarrow","leftarrow"],"right_color":"lightblue","left_color":"orange","left_mu":40,"right_mu":70,"left_numbers":[30,39,52,37,24,41,58,53,28,26],"right_numbers":[64,86,71,66,79,61,63,72,73,66],"points_earned":580,"phase":"task","trial_type":"horizons-task","trial_index":34,"time_elapsed":580558,"internal_node_id":"0.0-30.0","task_version":"0.2"},{"response_times":[633,404,632.0000000001164,736.9999999998836,1410],"keys_pressed":["leftarrow","rightarrow","leftarrow","rightarrow","rightarrow"],"horizon":5,"forced_choices":["leftarrow","rightarrow","leftarrow","rightarrow"],"right_color":"lightblue","left_color":"orange","left_mu":40,"right_mu":32,"left_numbers":[31,35,27,53,47],"right_numbers":[37,32,47,40,37],"points_earned":167,"phase":"task","trial_type":"horizons-task","trial_index":35,"time_elapsed":585879,"internal_node_id":"0.0-31.0","task_version":"0.2"},{"response_times":[654,397.0000000001164,579.9999999998836,586,1306,728,832,1454,746,667.0000000001164],"keys_pressed":["rightarrow","leftarrow","leftarrow","rightarrow","leftarrow","rightarrow","rightarrow","rightarrow","rightarrow","rightarrow"],"horizon":10,"forced_choices":["rightarrow","leftarrow","leftarrow","rightarrow"],"right_color":"orange","left_color":"lightblue","left_mu":60,"right_mu":52,"left_numbers":[57,58,58,53,56,55,58,68,67,45],"right_numbers":[63,44,51,59,59,45,54,61,43,49],"points_earned":546,"phase":"task","trial_type":"horizons-task","trial_index":36,"time_elapsed":595332,"internal_node_id":"0.0-32.0","task_version":"0.2"},{"response_times":[629,346,462,393,1355,653,569,400,426,553],"keys_pressed":["leftarrow","rightarrow","leftarrow","rightarrow","leftarrow","leftarrow","rightarrow","leftarrow","leftarrow","leftarrow"],"horizon":10,"forced_choices":["leftarrow","rightarrow","leftarrow","rightarrow"],"right_color":"orange","left_color":"lightblue","left_mu":60,"right_mu":40,"left_numbers":[59,60,60,52,59,69,74,50,56,75],"right_numbers":[38,33,49,41,19,47,43,36,35,50],"points_earned":545,"phase":"task","trial_type":"horizons-task","trial_index":37,"time_elapsed":602623,"internal_node_id":"0.0-33.0","task_version":"0.2"},{"response_times":[678,485,503,573,1086,506.0000000001164,723,703,929,615.0000000001164],"keys_pressed":["leftarrow","leftarrow","rightarrow","rightarrow","rightarrow","leftarrow","leftarrow","rightarrow","rightarrow","rightarrow"],"horizon":10,"forced_choices":["leftarrow","leftarrow","rightarrow","rightarrow"],"right_color":"orange","left_color":"lightblue","left_mu":60,"right_mu":64,"left_numbers":[54,48,50,53,56,72,55,54,56,57],"right_numbers":[69,72,59,59,53,60,57,80,69,64],"points_earned":613,"phase":"task","trial_type":"horizons-task","trial_index":38,"time_elapsed":610928,"internal_node_id":"0.0-34.0","task_version":"0.2"},{"response_times":[651.0000000001164,463.9999999998836,483.0000000001164,461.9999999998836,1568,450,526,393.0000000001164,319.9999999998836,410],"keys_pressed":["leftarrow","leftarrow","leftarrow","rightarrow","rightarrow","leftarrow","leftarrow","leftarrow","leftarrow","leftarrow"],"horizon":10,"forced_choices":["leftarrow","leftarrow","leftarrow","rightarrow"],"right_color":"orange","left_color":"lightblue","left_mu":60,"right_mu":40,"left_numbers":[68,61,74,58,74,64,56,66,59,47],"right_numbers":[31,38,59,35,36,33,45,50,44,45],"points_earned":566,"phase":"task","trial_type":"horizons-task","trial_index":39,"time_elapsed":618159,"internal_node_id":"0.0-35.0","task_version":"0.2"},{"response_times":[810,411,865,661,1792.0000000001164],"keys_pressed":["leftarrow","rightarrow","rightarrow","rightarrow","rightarrow"],"horizon":5,"forced_choices":["leftarrow","rightarrow","rightarrow","rightarrow"],"right_color":"orange","left_color":"lightblue","left_mu":60,"right_mu":72,"left_numbers":[64,58,66,67,54],"right_numbers":[67,85,73,69,69],"points_earned":360,"phase":"task","trial_type":"horizons-task","trial_index":40,"time_elapsed":624204,"internal_node_id":"0.0-36.0","task_version":"0.2"},{"response_times":[562,592,553,766,811,542,286,284,284,320],"keys_pressed":["rightarrow","rightarrow","leftarrow","leftarrow","rightarrow","rightarrow","rightarrow","rightarrow","rightarrow","rightarrow"],"horizon":10,"forced_choices":["rightarrow","rightarrow","leftarrow","leftarrow"],"right_color":"orange","left_color":"lightblue","left_mu":60,"right_mu":72,"left_numbers":[62,62,64,55,58,70,65,74,53,57],"right_numbers":[73,83,80,82,83,68,80,74,71,67],"points_earned":718,"phase":"task","trial_type":"horizons-task","trial_index":41,"time_elapsed":630707,"internal_node_id":"0.0-37.0","task_version":"0.2"},{"response_times":[635,497,495,775,1604,779,1496,797,570,773],"keys_pressed":["rightarrow","rightarrow","rightarrow","leftarrow","leftarrow","leftarrow","leftarrow","rightarrow","leftarrow","leftarrow"],"horizon":10,"forced_choices":["rightarrow","rightarrow","rightarrow","leftarrow"],"right_color":"lightblue","left_color":"orange","left_mu":40,"right_mu":28,"left_numbers":[36,35,47,31,44,37,37,37,38,38],"right_numbers":[37,26,41,11,23,41,35,32,35,13],"points_earned":361,"phase":"task","trial_type":"horizons-task","trial_index":42,"time_elapsed":640635,"internal_node_id":"0.0-38.0","task_version":"0.2"},{"response_times":[605,373,519,683,1142,1685,459,503,345,761],"keys_pressed":["rightarrow","leftarrow","leftarrow","leftarrow","rightarrow","leftarrow","leftarrow","rightarrow","leftarrow","leftarrow"],"horizon":10,"forced_choices":["rightarrow","leftarrow","leftarrow","leftarrow"],"right_color":"orange","left_color":"lightblue","left_mu":40,"right_mu":36,"left_numbers":[54,39,30,52,31,40,30,37,52,33],"right_numbers":[30,32,41,45,25,45,35,43,38,26],"points_earned":374,"phase":"task","trial_type":"horizons-task","trial_index":43,"time_elapsed":649213,"internal_node_id":"0.0-39.0","task_version":"0.2"},{"response_times":[554,494,476,792,1053],"keys_pressed":["leftarrow","leftarrow","rightarrow","leftarrow","leftarrow"],"horizon":5,"forced_choices":["leftarrow","leftarrow","rightarrow","leftarrow"],"right_color":"orange","left_color":"lightblue","left_mu":40,"right_mu":10,"left_numbers":[48,31,32,42,50],"right_numbers":[4,14,5,26,6],"points_earned":176,"phase":"task","trial_type":"horizons-task","trial_index":44,"time_elapsed":654086,"internal_node_id":"0.0-40.0","task_version":"0.2"},{"response_times":[664,612,1355,1820,1508],"keys_pressed":["rightarrow","rightarrow","rightarrow","leftarrow","leftarrow"],"horizon":5,"forced_choices":["rightarrow","rightarrow","rightarrow","leftarrow"],"right_color":"lightblue","left_color":"orange","left_mu":40,"right_mu":32,"left_numbers":[54,32,45,41,58],"right_numbers":[23,21,40,21,37],"points_earned":183,"phase":"task","trial_type":"horizons-task","trial_index":45,"time_elapsed":661549,"internal_node_id":"0.0-41.0","task_version":"0.2"},{"response_times":[757,427,661,728,1103.0000000001164,758.9999999998836,705,790,513,374],"keys_pressed":["leftarrow","rightarrow","rightarrow","rightarrow","leftarrow","leftarrow","rightarrow","rightarrow","rightarrow","rightarrow"],"horizon":10,"forced_choices":["leftarrow","rightarrow","rightarrow","rightarrow"],"right_color":"lightblue","left_color":"orange","left_mu":60,"right_mu":80,"left_numbers":[64,58,56,56,63,68,54,68,61,50],"right_numbers":[84,58,88,69,76,76,84,71,100,74],"points_earned":739,"phase":"task","trial_type":"horizons-task","trial_index":46,"time_elapsed":669870,"internal_node_id":"0.0-42.0","task_version":"0.2"},{"response_times":[592,652,708,1808.0000000001164,1668.9999999998836],"keys_pressed":["rightarrow","rightarrow","leftarrow","leftarrow","leftarrow"],"horizon":5,"forced_choices":["rightarrow","rightarrow","leftarrow","leftarrow"],"right_color":"lightblue","left_color":"orange","left_mu":40,"right_mu":20,"left_numbers":[39,42,26,32,49],"right_numbers":[14,27,17,21,27],"points_earned":148,"phase":"task","trial_type":"horizons-task","trial_index":47,"time_elapsed":676802,"internal_node_id":"0.0-43.0","task_version":"0.2"},{"response_times":[633,403,448,617,1470,593,383,302,331,434],"keys_pressed":["rightarrow","leftarrow","rightarrow","leftarrow","rightarrow","rightarrow","rightarrow","rightarrow","rightarrow","rightarrow"],"horizon":10,"forced_choices":["rightarrow","leftarrow","rightarrow","leftarrow"],"right_color":"orange","left_color":"lightblue","left_mu":60,"right_mu":90,"left_numbers":[53,58,67,51,60,60,51,39,55,58],"right_numbers":[71,94,91,87,85,93,78,88,81,83],"points_earned":779,"phase":"task","trial_type":"horizons-task","trial_index":48,"time_elapsed":683920,"internal_node_id":"0.0-44.0","task_version":"0.2"},{"response_times":[619,391,528,576.0000000001164,2184.9999999998836,426,560,280.0000000001164,185.99999999988358,231.99999999988358],"keys_pressed":["leftarrow","rightarrow","rightarrow","leftarrow","rightarrow","leftarrow","leftarrow","leftarrow","leftarrow","leftarrow"],"horizon":10,"forced_choices":["leftarrow","rightarrow","rightarrow","leftarrow"],"right_color":"lightblue","left_color":"orange","left_mu":40,"right_mu":28,"left_numbers":[42,36,42,50,30,49,35,45,37,48],"right_numbers":[15,40,34,34,14,32,37,28,29,31],"points_earned":394,"phase":"task","trial_type":"horizons-task","trial_index":49,"time_elapsed":691408,"internal_node_id":"0.0-45.0","task_version":"0.2"},{"response_times":[589,478,496,819,689],"keys_pressed":["leftarrow","leftarrow","rightarrow","rightarrow","leftarrow"],"horizon":5,"forced_choices":["leftarrow","leftarrow","rightarrow","rightarrow"],"right_color":"orange","left_color":"lightblue","left_mu":40,"right_mu":10,"left_numbers":[49,39,48,31,40],"right_numbers":[16,23,7,23,16],"points_earned":158,"phase":"task","trial_type":"horizons-task","trial_index":50,"time_elapsed":695987,"internal_node_id":"0.0-46.0","task_version":"0.2"},{"view_history":"[{\"page_index\":0,\"viewing_time\":2322.9999999998836},{\"page_index\":1,\"viewing_time\":15962}]","rt":18284.999999999884,"trial_type":"instructions","trial_index":51,"time_elapsed":714274,"internal_node_id":"0.0-47.0","task_version":"0.2"},{"response_times":[1084.0000000001164,474.9999999998836,394,576,1244,611,557,586,528.0000000001164,447],"keys_pressed":["rightarrow","rightarrow","leftarrow","rightarrow","leftarrow","leftarrow","leftarrow","rightarrow","leftarrow","leftarrow"],"horizon":10,"forced_choices":["rightarrow","rightarrow","leftarrow","rightarrow"],"right_color":"orange","left_color":"lightblue","left_mu":60,"right_mu":48,"left_numbers":[64,73,49,56,56,56,69,55,55,45],"right_numbers":[41,35,34,59,51,49,50,46,36,50],"points_earned":511,"phase":"task","trial_type":"horizons-task","trial_index":52,"time_elapsed":722282,"internal_node_id":"0.0-48.0","task_version":"0.2"},{"response_times":[741,357.0000000001164,468.9999999998836,1153,563],"keys_pressed":["rightarrow","leftarrow","rightarrow","leftarrow","rightarrow"],"horizon":5,"forced_choices":["rightarrow","leftarrow","rightarrow","leftarrow"],"right_color":"lightblue","left_color":"orange","left_mu":40,"right_mu":70,"left_numbers":[33,30,35,54,27],"right_numbers":[79,61,70,83,70],"points_earned":303,"phase":"task","trial_type":"horizons-task","trial_index":53,"time_elapsed":727069,"internal_node_id":"0.0-49.0","task_version":"0.2"},{"response_times":[943,522,408,654,1136.0000000001164,1248.9999999998836,499,423,307,1072],"keys_pressed":["rightarrow","leftarrow","rightarrow","rightarrow","leftarrow","leftarrow","leftarrow","leftarrow","rightarrow","leftarrow"],"horizon":10,"forced_choices":["rightarrow","leftarrow","rightarrow","rightarrow"],"right_color":"orange","left_color":"lightblue","left_mu":60,"right_mu":64,"left_numbers":[56,61,69,48,71,67,60,68,61,60],"right_numbers":[70,63,65,41,62,64,79,55,61,68],"points_earned":624,"phase":"task","trial_type":"horizons-task","trial_index":54,"time_elapsed":735786,"internal_node_id":"0.0-50.0","task_version":"0.2"},{"response_times":[687,363,412,1035,2650.0000000001164],"keys_pressed":["leftarrow","rightarrow","leftarrow","leftarrow","rightarrow"],"horizon":5,"forced_choices":["leftarrow","rightarrow","leftarrow","leftarrow"],"right_color":"lightblue","left_color":"orange","left_mu":60,"right_mu":68,"left_numbers":[69,58,70,68,60],"right_numbers":[75,66,77,67,81],"points_earned":354,"phase":"task","trial_type":"horizons-task","trial_index":55,"time_elapsed":742438,"internal_node_id":"0.0-51.0","task_version":"0.2"},{"response_times":[579,370,425,936,566],"keys_pressed":["rightarrow","leftarrow","rightarrow","leftarrow","leftarrow"],"horizon":5,"forced_choices":["rightarrow","leftarrow","rightarrow","leftarrow"],"right_color":"orange","left_color":"lightblue","left_mu":60,"right_mu":30,"left_numbers":[67,61,59,53,65],"right_numbers":[33,33,28,25,21],"points_earned":240,"phase":"task","trial_type":"horizons-task","trial_index":56,"time_elapsed":746818,"internal_node_id":"0.0-52.0","task_version":"0.2"},{"response_times":[683,360,532,407.0000000001164,1473,587,474,779,411,493],"keys_pressed":["rightarrow","leftarrow","leftarrow","rightarrow","leftarrow","rightarrow","rightarrow","leftarrow","rightarrow","rightarrow"],"horizon":10,"forced_choices":["rightarrow","leftarrow","leftarrow","rightarrow"],"right_color":"lightblue","left_color":"orange","left_mu":40,"right_mu":60,"left_numbers":[40,37,38,36,44,39,32,38,51,33],"right_numbers":[47,70,47,60,62,57,59,68,59,70],"points_earned":509,"phase":"task","trial_type":"horizons-task","trial_index":57,"time_elapsed":754522,"internal_node_id":"0.0-53.0","task_version":"0.2"},{"response_times":[685,357,574,575,989],"keys_pressed":["rightarrow","leftarrow","leftarrow","rightarrow","rightarrow"],"horizon":5,"forced_choices":["rightarrow","leftarrow","leftarrow","rightarrow"],"right_color":"lightblue","left_color":"orange","left_mu":60,"right_mu":80,"left_numbers":[55,55,66,55,64],"right_numbers":[84,72,88,80,82],"points_earned":367,"phase":"task","trial_type":"horizons-task","trial_index":58,"time_elapsed":759206,"internal_node_id":"0.0-54.0","task_version":"0.2"},{"response_times":[629.0000000001164,443.9999999998836,430,510,1358,1292,557.0000000001164,588,806,254.00000000011642],"keys_pressed":["rightarrow","rightarrow","rightarrow","leftarrow","leftarrow","rightarrow","leftarrow","leftarrow","leftarrow","leftarrow"],"horizon":10,"forced_choices":["rightarrow","rightarrow","rightarrow","leftarrow"],"right_color":"lightblue","left_color":"orange","left_mu":40,"right_mu":32,"left_numbers":[51,39,37,45,32,40,34,55,48,44],"right_numbers":[37,24,29,37,18,34,49,38,30,36],"points_earned":382,"phase":"task","trial_type":"horizons-task","trial_index":59,"time_elapsed":767578,"internal_node_id":"0.0-55.0","task_version":"0.2"},{"response_times":[614,333,428,536,1422,514,1063,237,958,1163],"keys_pressed":["leftarrow","rightarrow","leftarrow","rightarrow","rightarrow","leftarrow","rightarrow","leftarrow","leftarrow","leftarrow"],"horizon":10,"forced_choices":["leftarrow","rightarrow","leftarrow","rightarrow"],"right_color":"lightblue","left_color":"orange","left_mu":60,"right_mu":56,"left_numbers":[64,64,63,54,39,59,73,58,69,47],"right_numbers":[56,50,65,61,52,53,61,70,60,66],"points_earned":584,"phase":"task","trial_type":"horizons-task","trial_index":60,"time_elapsed":776353,"internal_node_id":"0.0-56.0","task_version":"0.2"},{"response_times":[637.9999999998836,334,637,598.0000000001164,1145.9999999998836,438,299,200,179,191],"keys_pressed":["rightarrow","leftarrow","leftarrow","leftarrow","rightarrow","leftarrow","leftarrow","leftarrow","leftarrow","leftarrow"],"horizon":10,"forced_choices":["rightarrow","leftarrow","leftarrow","leftarrow"],"right_color":"orange","left_color":"lightblue","left_mu":60,"right_mu":30,"left_numbers":[59,68,64,60,61,54,69,60,71,75],"right_numbers":[33,33,24,18,25,12,39,35,25,37],"points_earned":579,"phase":"task","trial_type":"horizons-task","trial_index":61,"time_elapsed":782516,"internal_node_id":"0.0-57.0","task_version":"0.2"},{"response_times":[607,854,522,982,1386,459,216,183,172,199],"keys_pressed":["rightarrow","rightarrow","leftarrow","rightarrow","rightarrow","rightarrow","rightarrow","rightarrow","rightarrow","rightarrow"],"horizon":10,"forced_choices":["rightarrow","rightarrow","leftarrow","rightarrow"],"right_color":"lightblue","left_color":"orange","left_mu":40,"right_mu":60,"left_numbers":[51,35,29,36,47,27,34,51,52,36],"right_numbers":[59,62,71,64,45,65,53,53,68,59],"points_earned":557,"phase":"task","trial_type":"horizons-task","trial_index":62,"time_elapsed":789600,"internal_node_id":"0.0-58.0","task_version":"0.2"},{"response_times":[865,414,980,681,760],"keys_pressed":["leftarrow","rightarrow","rightarrow","rightarrow","rightarrow"],"horizon":5,"forced_choices":["leftarrow","rightarrow","rightarrow","rightarrow"],"right_color":"lightblue","left_color":"orange","left_mu":60,"right_mu":80,"left_numbers":[51,57,47,57,59],"right_numbers":[66,92,72,78,81],"points_earned":374,"phase":"task","trial_type":"horizons-task","trial_index":63,"time_elapsed":794805,"internal_node_id":"0.0-59.0","task_version":"0.2"},{"response_times":[8986,592,674.0000000001164,870,558],"keys_pressed":["rightarrow","rightarrow","leftarrow","leftarrow","rightarrow"],"horizon":5,"forced_choices":["rightarrow","rightarrow","leftarrow","leftarrow"],"right_color":"lightblue","left_color":"orange","left_mu":40,"right_mu":44,"left_numbers":[48,34,45,25,25],"right_numbers":[48,44,56,47,42],"points_earned":204,"phase":"task","trial_type":"horizons-task","trial_index":64,"time_elapsed":807988,"internal_node_id":"0.0-60.0","task_version":"0.2"},{"response_times":[632,404,582.9999999998836,725.0000000001164,1695.9999999998836],"keys_pressed":["leftarrow","rightarrow","rightarrow","leftarrow","rightarrow"],"horizon":5,"forced_choices":["leftarrow","rightarrow","rightarrow","leftarrow"],"right_color":"lightblue","left_color":"orange","left_mu":60,"right_mu":68,"left_numbers":[53,44,44,61,77],"right_numbers":[69,65,56,88,60],"points_earned":295,"phase":"task","trial_type":"horizons-task","trial_index":65,"time_elapsed":813535,"internal_node_id":"0.0-61.0","task_version":"0.2"},{"response_times":[677,347,548,445,1405,410,507,493,284,450],"keys_pressed":["rightarrow","leftarrow","leftarrow","rightarrow","leftarrow","rightarrow","rightarrow","rightarrow","rightarrow","rightarrow"],"horizon":10,"forced_choices":["rightarrow","leftarrow","leftarrow","rightarrow"],"right_color":"lightblue","left_color":"orange","left_mu":60,"right_mu":80,"left_numbers":[55,53,48,73,66,52,57,65,50,74],"right_numbers":[75,85,65,63,71,74,88,83,82,69],"points_earned":701,"phase":"task","trial_type":"horizons-task","trial_index":66,"time_elapsed":820608,"internal_node_id":"0.0-62.0","task_version":"0.2"},{"response_times":[526,340,595,403,1334],"keys_pressed":["rightarrow","leftarrow","leftarrow","rightarrow","rightarrow"],"horizon":5,"forced_choices":["rightarrow","leftarrow","leftarrow","rightarrow"],"right_color":"lightblue","left_color":"orange","left_mu":40,"right_mu":60,"left_numbers":[26,45,37,47,35],"right_numbers":[58,54,64,58,71],"points_earned":269,"phase":"task","trial_type":"horizons-task","trial_index":67,"time_elapsed":825312,"internal_node_id":"0.0-63.0","task_version":"0.2"},{"response_times":[612,507.0000000001164,419.9999999998836,538,501,896,492.9999999998836,531.0000000001164,3202,1102.9999999998836],"keys_pressed":["rightarrow","rightarrow","leftarrow","leftarrow","rightarrow","leftarrow","rightarrow","leftarrow","rightarrow","leftarrow"],"horizon":10,"forced_choices":["rightarrow","rightarrow","leftarrow","leftarrow"],"right_color":"lightblue","left_color":"orange","left_mu":40,"right_mu":44,"left_numbers":[42,35,51,37,42,43,48,25,35,30],"right_numbers":[35,48,44,48,39,39,41,40,35,48],"points_earned":384,"phase":"task","trial_type":"horizons-task","trial_index":68,"time_elapsed":835622,"internal_node_id":"0.0-64.0","task_version":"0.2"},{"response_times":[716,368.9999999998836,832,929.0000000001164,2212.9999999998836],"keys_pressed":["rightarrow","leftarrow","rightarrow","rightarrow","rightarrow"],"horizon":5,"forced_choices":["rightarrow","leftarrow","rightarrow","rightarrow"],"right_color":"lightblue","left_color":"orange","left_mu":60,"right_mu":56,"left_numbers":[67,60,68,65,54],"right_numbers":[59,51,52,58,57],"points_earned":286,"phase":"task","trial_type":"horizons-task","trial_index":69,"time_elapsed":842185,"internal_node_id":"0.0-65.0","task_version":"0.2"},{"response_times":[654,361.9999999998836,679,755,1707],"keys_pressed":["rightarrow","leftarrow","leftarrow","leftarrow","leftarrow"],"horizon":5,"forced_choices":["rightarrow","leftarrow","leftarrow","leftarrow"],"right_color":"orange","left_color":"lightblue","left_mu":60,"right_mu":30,"left_numbers":[60,51,53,68,65],"right_numbers":[33,11,25,20,29],"points_earned":270,"phase":"task","trial_type":"horizons-task","trial_index":70,"time_elapsed":847846,"internal_node_id":"0.0-66.0","task_version":"0.2"},{"response_times":[628,346.0000000001164,426.9999999998836,672,1179],"keys_pressed":["leftarrow","rightarrow","leftarrow","leftarrow","rightarrow"],"horizon":5,"forced_choices":["leftarrow","rightarrow","leftarrow","leftarrow"],"right_color":"lightblue","left_color":"orange","left_mu":40,"right_mu":70,"left_numbers":[23,39,52,43,41],"right_numbers":[60,75,57,64,62],"points_earned":255,"phase":"task","trial_type":"horizons-task","trial_index":71,"time_elapsed":852602,"internal_node_id":"0.0-67.0","task_version":"0.2"},{"response_times":[642.0000000001164,444.9999999998836,456,513,1083,487,336,395,632,456.0000000001164],"keys_pressed":["leftarrow","leftarrow","rightarrow","rightarrow","leftarrow","leftarrow","rightarrow","leftarrow","leftarrow","leftarrow"],"horizon":10,"forced_choices":["leftarrow","leftarrow","rightarrow","rightarrow"],"right_color":"orange","left_color":"lightblue","left_mu":60,"right_mu":48,"left_numbers":[62,63,55,69,62,53,49,60,57,61],"right_numbers":[52,42,44,50,47,46,48,29,55,43],"points_earned":560,"phase":"task","trial_type":"horizons-task","trial_index":72,"time_elapsed":859550,"internal_node_id":"0.0-68.0","task_version":"0.2"},{"response_times":[630,475,453.0000000001164,1144.9999999998836,1083],"keys_pressed":["rightarrow","rightarrow","leftarrow","rightarrow","rightarrow"],"horizon":5,"forced_choices":["rightarrow","rightarrow","leftarrow","rightarrow"],"right_color":"lightblue","left_color":"orange","left_mu":40,"right_mu":60,"left_numbers":[38,45,36,43,48],"right_numbers":[64,65,51,65,69],"points_earned":299,"phase":"task","trial_type":"horizons-task","trial_index":73,"time_elapsed":864841,"internal_node_id":"0.0-69.0","task_version":"0.2"},{"response_times":[496,392,676,906.0000000001164,2262.9999999998836],"keys_pressed":["rightarrow","leftarrow","leftarrow","leftarrow","leftarrow"],"horizon":5,"forced_choices":["rightarrow","leftarrow","leftarrow","leftarrow"],"right_color":"lightblue","left_color":"orange","left_mu":40,"right_mu":44,"left_numbers":[49,36,51,37,32],"right_numbers":[36,41,46,42,57],"points_earned":192,"phase":"task","trial_type":"horizons-task","trial_index":74,"time_elapsed":871079,"internal_node_id":"0.0-70.0","task_version":"0.2"},{"response_times":[774,628,502,469,1020,594.0000000001164,431.9999999998836,474,347,400],"keys_pressed":["leftarrow","leftarrow","leftarrow","rightarrow","rightarrow","leftarrow","rightarrow","rightarrow","rightarrow","rightarrow"],"horizon":10,"forced_choices":["leftarrow","leftarrow","leftarrow","rightarrow"],"right_color":"orange","left_color":"lightblue","left_mu":40,"right_mu":52,"left_numbers":[52,33,43,43,41,49,23,40,53,35],"right_numbers":[48,45,64,63,51,56,63,47,54,41],"points_earned":496,"phase":"task","trial_type":"horizons-task","trial_index":75,"time_elapsed":878223,"internal_node_id":"0.0-71.0","task_version":"0.2"},{"response_times":[534,428,533,655,1135],"keys_pressed":["leftarrow","rightarrow","rightarrow","rightarrow","leftarrow"],"horizon":5,"forced_choices":["leftarrow","rightarrow","rightarrow","rightarrow"],"right_color":"lightblue","left_color":"orange","left_mu":40,"right_mu":20,"left_numbers":[35,35,46,38,44],"right_numbers":[0,29,2,1,24],"points_earned":111,"phase":"task","trial_type":"horizons-task","trial_index":76,"time_elapsed":883011,"internal_node_id":"0.0-72.0","task_version":"0.2"},{"response_times":[603,343,508,531,789,554,471,457.9999999998836,556,190],"keys_pressed":["leftarrow","rightarrow","rightarrow","rightarrow","leftarrow","leftarrow","rightarrow","leftarrow","leftarrow","leftarrow"],"horizon":10,"forced_choices":["leftarrow","rightarrow","rightarrow","rightarrow"],"right_color":"lightblue","left_color":"orange","left_mu":40,"right_mu":20,"left_numbers":[37,45,51,44,48,41,49,41,41,27],"right_numbers":[34,13,36,16,24,17,29,15,29,20],"points_earned":329,"phase":"task","trial_type":"horizons-task","trial_index":77,"time_elapsed":889520,"internal_node_id":"0.0-73.0","task_version":"0.2"},{"response_times":[620,953,465,845,1057],"keys_pressed":["rightarrow","rightarrow","leftarrow","leftarrow","rightarrow"],"horizon":5,"forced_choices":["rightarrow","rightarrow","leftarrow","leftarrow"],"right_color":"orange","left_color":"lightblue","left_mu":60,"right_mu":72,"left_numbers":[58,62,52,60,58],"right_numbers":[83,62,69,79,75],"points_earned":332,"phase":"task","trial_type":"horizons-task","trial_index":78,"time_elapsed":894963,"internal_node_id":"0.0-74.0","task_version":"0.2"},{"response_times":[621,480,608,1946,928],"keys_pressed":["leftarrow","leftarrow","rightarrow","rightarrow","leftarrow"],"horizon":5,"forced_choices":["leftarrow","leftarrow","rightarrow","rightarrow"],"right_color":"orange","left_color":"lightblue","left_mu":60,"right_mu":48,"left_numbers":[55,65,56,52,63],"right_numbers":[53,58,41,51,50],"points_earned":275,"phase":"task","trial_type":"horizons-task","trial_index":79,"time_elapsed":901051,"internal_node_id":"0.0-75.0","task_version":"0.2"},{"response_times":[15392.000000000116,433,367.9999999998836,377.0000000001164,438.9999999998836,740,558,492,2066,1524],"keys_pressed":["leftarrow","rightarrow","leftarrow","rightarrow","leftarrow","rightarrow","leftarrow","rightarrow","leftarrow","leftarrow"],"horizon":10,"forced_choices":["leftarrow","rightarrow","leftarrow","rightarrow"],"right_color":"orange","left_color":"lightblue","left_mu":40,"right_mu":36,"left_numbers":[25,37,32,50,40,38,39,37,44,37],"right_numbers":[40,38,24,33,44,39,36,33,48,49],"points_earned":360,"phase":"task","trial_type":"horizons-task","trial_index":80,"time_elapsed":924946,"internal_node_id":"0.0-76.0","task_version":"0.2"},{"response_times":[702,374,492.0000000001164,573.9999999998836,996],"keys_pressed":["rightarrow","leftarrow","leftarrow","leftarrow","leftarrow"],"horizon":5,"forced_choices":["rightarrow","leftarrow","leftarrow","leftarrow"],"right_color":"orange","left_color":"lightblue","left_mu":40,"right_mu":36,"left_numbers":[28,59,52,45,34],"right_numbers":[42,44,47,36,34],"points_earned":232,"phase":"task","trial_type":"horizons-task","trial_index":81,"time_elapsed":929589,"internal_node_id":"0.0-77.0","task_version":"0.2"},{"response_times":[638,439,455,553,1447,400.0000000001164,579.9999999998836,433,380,369],"keys_pressed":["rightarrow","rightarrow","leftarrow","leftarrow","leftarrow","rightarrow","rightarrow","leftarrow","leftarrow","leftarrow"],"horizon":10,"forced_choices":["rightarrow","rightarrow","leftarrow","leftarrow"],"right_color":"lightblue","left_color":"orange","left_mu":40,"right_mu":20,"left_numbers":[32,31,48,40,37,30,35,41,31,43],"right_numbers":[21,17,22,25,10,40,36,31,27,23],"points_earned":354,"phase":"task","trial_type":"horizons-task","trial_index":82,"time_elapsed":936786,"internal_node_id":"0.0-78.0","task_version":"0.2"},{"response_times":[573,378.0000000001164,356.9999999998836,505,519,1108,361.0000000001164,356,195.99999999988358,172],"keys_pressed":["rightarrow","leftarrow","rightarrow","rightarrow","leftarrow","rightarrow","leftarrow","leftarrow","leftarrow","leftarrow"],"horizon":10,"forced_choices":["rightarrow","leftarrow","rightarrow","rightarrow"],"right_color":"lightblue","left_color":"orange","left_mu":60,"right_mu":56,"left_numbers":[60,72,72,60,67,57,58,56,54,60],"right_numbers":[58,43,59,54,53,46,51,61,60,60],"points_earned":584,"phase":"task","trial_type":"horizons-task","trial_index":83,"time_elapsed":942815,"internal_node_id":"0.0-79.0","task_version":"0.2"},{"response_times":[588,362,377,615,461.0000000001164],"keys_pressed":["leftarrow","rightarrow","leftarrow","rightarrow","leftarrow"],"horizon":5,"forced_choices":["leftarrow","rightarrow","leftarrow","rightarrow"],"right_color":"orange","left_color":"lightblue","left_mu":60,"right_mu":40,"left_numbers":[58,57,51,43,61],"right_numbers":[27,38,23,35,41],"points_earned":243,"phase":"task","trial_type":"horizons-task","trial_index":84,"time_elapsed":946722,"internal_node_id":"0.0-80.0","task_version":"0.2"},{"response_times":[470,691,867,730,836],"keys_pressed":["leftarrow","leftarrow","leftarrow","rightarrow","leftarrow"],"horizon":5,"forced_choices":["leftarrow","leftarrow","leftarrow","rightarrow"],"right_color":"orange","left_color":"lightblue","left_mu":60,"right_mu":40,"left_numbers":[67,61,60,49,55],"right_numbers":[38,30,51,27,43],"points_earned":270,"phase":"task","trial_type":"horizons-task","trial_index":85,"time_elapsed":951819,"internal_node_id":"0.0-81.0","task_version":"0.2"},{"response_times":[825,455.0000000001164,458.9999999998836,848,1924],"keys_pressed":["leftarrow","leftarrow","rightarrow","leftarrow","rightarrow"],"horizon":5,"forced_choices":["leftarrow","leftarrow","rightarrow","leftarrow"],"right_color":"orange","left_color":"lightblue","left_mu":60,"right_mu":90,"left_numbers":[53,50,63,80,59],"right_numbers":[91,100,97,96,93],"points_earned":373,"phase":"task","trial_type":"horizons-task","trial_index":86,"time_elapsed":957833,"internal_node_id":"0.0-82.0","task_version":"0.2"},{"response_times":[582.9999999998836,354,545,727,1988,690,1029,365,465,446.0000000001164],"keys_pressed":["rightarrow","leftarrow","rightarrow","leftarrow","leftarrow","leftarrow","leftarrow","rightarrow","leftarrow","leftarrow"],"horizon":10,"forced_choices":["rightarrow","leftarrow","rightarrow","leftarrow"],"right_color":"orange","left_color":"lightblue","left_mu":60,"right_mu":30,"left_numbers":[45,46,54,57,69,61,70,58,57,59],"right_numbers":[22,29,31,33,26,16,40,33,30,25],"points_earned":505,"phase":"task","trial_type":"horizons-task","trial_index":87,"time_elapsed":966531,"internal_node_id":"0.0-83.0","task_version":"0.2"},{"response_times":[608,360,488,627,541,403,491,370,509,502],"keys_pressed":["leftarrow","rightarrow","rightarrow","leftarrow","leftarrow","rightarrow","rightarrow","rightarrow","leftarrow","rightarrow"],"horizon":10,"forced_choices":["leftarrow","rightarrow","rightarrow","leftarrow"],"right_color":"lightblue","left_color":"orange","left_mu":60,"right_mu":68,"left_numbers":[43,42,65,69,54,69,64,72,59,58],"right_numbers":[66,82,76,80,55,68,61,60,79,76],"points_earned":648,"phase":"task","trial_type":"horizons-task","trial_index":88,"time_elapsed":972934,"internal_node_id":"0.0-84.0","task_version":"0.2"},{"response_times":[693,517,504,658,1986],"keys_pressed":["leftarrow","leftarrow","rightarrow","leftarrow","leftarrow"],"horizon":5,"forced_choices":["leftarrow","leftarrow","rightarrow","leftarrow"],"right_color":"orange","left_color":"lightblue","left_mu":60,"right_mu":52,"left_numbers":[64,53,68,57,58],"right_numbers":[60,52,51,58,51],"points_earned":283,"phase":"task","trial_type":"horizons-task","trial_index":89,"time_elapsed":978795,"internal_node_id":"0.0-85.0","task_version":"0.2"},{"response_times":[586,459,434,653,393.0000000001164,791.9999999998836,548,450,575.0000000001164,298],"keys_pressed":["leftarrow","leftarrow","rightarrow","leftarrow","rightarrow","rightarrow","leftarrow","leftarrow","leftarrow","leftarrow"],"horizon":10,"forced_choices":["leftarrow","leftarrow","rightarrow","leftarrow"],"right_color":"orange","left_color":"lightblue","left_mu":40,"right_mu":10,"left_numbers":[31,28,33,41,24,39,30,40,51,26],"right_numbers":[3,0,7,23,16,22,7,13,14,17],"points_earned":292,"phase":"task","trial_type":"horizons-task","trial_index":90,"time_elapsed":985487,"internal_node_id":"0.0-86.0","task_version":"0.2"},{"response_times":[669,348,700,403,1318],"keys_pressed":["rightarrow","leftarrow","leftarrow","rightarrow","rightarrow"],"horizon":5,"forced_choices":["rightarrow","leftarrow","leftarrow","rightarrow"],"right_color":"lightblue","left_color":"orange","left_mu":40,"right_mu":48,"left_numbers":[29,39,45,31,41],"right_numbers":[58,66,57,37,44],"points_earned":223,"phase":"task","trial_type":"horizons-task","trial_index":91,"time_elapsed":990432,"internal_node_id":"0.0-87.0","task_version":"0.2"},{"rt":13599,"responses":{"age":"26","gender-categorical":"Female","gender-free-response":"","ethnicity":"Not Hispanic or Latino","race":["White"],"language":"Yes","fluency":"Very well"},"survey":"demographics","trial_type":"survey-demo","trial_index":92,"time_elapsed":1004035,"internal_node_id":"0.0-88.0","task_version":"0.2"},{"rt":15551,"responses":{"difficulty":"4","fun":"5","clarity":"5","strategy":"No","feedback":""},"survey":"debrief","trial_type":"survey-debrief","trial_index":93,"time_elapsed":1019590,"internal_node_id":"0.0-89.0","task_version":"0.2","interactions":"[{\"event\":\"blur\",\"trial\":0,\"time\":1277},{\"event\":\"focus\",\"trial\":0,\"time\":5845},{\"event\":\"focus\",\"trial\":0,\"time\":5846},{\"event\":\"blur\",\"trial\":1,\"time\":11647},{\"event\":\"focus\",\"trial\":1,\"time\":15704},{\"event\":\"focus\",\"trial\":1,\"time\":15708},{\"event\":\"blur\",\"trial\":1,\"time\":39862},{\"event\":\"focus\",\"trial\":1,\"time\":46003},{\"event\":\"focus\",\"trial\":1,\"time\":46007},{\"event\":\"blur\",\"trial\":1,\"time\":90509},{\"event\":\"focus\",\"trial\":1,\"time\":92296},{\"event\":\"focus\",\"trial\":1,\"time\":92300},{\"event\":\"blur\",\"trial\":2,\"time\":161178},{\"event\":\"focus\",\"trial\":2,\"time\":163503},{\"event\":\"focus\",\"trial\":2,\"time\":163508},{\"event\":\"blur\",\"trial\":2,\"time\":187431},{\"event\":\"focus\",\"trial\":2,\"time\":189485},{\"event\":\"focus\",\"trial\":2,\"time\":189490},{\"event\":\"blur\",\"trial\":3,\"time\":212848},{\"event\":\"focus\",\"trial\":3,\"time\":218640},{\"event\":\"focus\",\"trial\":3,\"time\":218642},{\"event\":\"blur\",\"trial\":4,\"time\":275129},{\"event\":\"focus\",\"trial\":4,\"time\":277006},{\"event\":\"focus\",\"trial\":4,\"time\":277006},{\"event\":\"blur\",\"trial\":8,\"time\":378128},{\"event\":\"focus\",\"trial\":8,\"time\":380023},{\"event\":\"focus\",\"trial\":8,\"time\":380023},{\"event\":\"blur\",\"trial\":51,\"time\":701491},{\"event\":\"focus\",\"trial\":51,\"time\":712686},{\"event\":\"focus\",\"trial\":51,\"time\":712687},{\"event\":\"blur\",\"trial\":64,\"time\":795591},{\"event\":\"focus\",\"trial\":64,\"time\":802741},{\"event\":\"focus\",\"trial\":64,\"time\":802742},{\"event\":\"blur\",\"trial\":80,\"time\":903101},{\"event\":\"focus\",\"trial\":80,\"time\":915545},{\"event\":\"focus\",\"trial\":80,\"time\":915546}]"}]