[{"view_history":"[{\"page_index\":0,\"viewing_time\":6497}]","rt":6497,"trial_type":"instructions","trial_index":0,"time_elapsed":6518,"internal_node_id":"0.0-0.0","task_version":"0.2"},{"item_order":[12,6,7,5,1,15,13,9,4,0,8,11,2,3,16,10,14],"responses":{"Q13":"2","Q07":"2","Q08":"3","Q06":"2","Q02":"2","Q16":"2","Q14":"3","Q10":"4","Q05":"2","Q01":"4","Q09":"1","Q12":"1","Q03":"4","Q04":"3","Q17":"0","Q11":"3","Q15":"2"},"radio_events":[80812,97180.00000000001,107045.00000000001,111307.00500000002,115503.005,119574.005,124561.005,127732.00500000003,134099.005,152920.00000000003,159793.00000000003,165680.00000000003,171863.00500000003,181488.00500000003,191943.00000000003,197098.00000000003,210100.00000000003,211413.00500000003],"key_events":[],"mouse_events":[0,24078.004999999997,24792.004999999997,27064,29794.004999999997,58879.00500000001,63725.00000000001,74063.00500000002,74998.00000000001,75881.005,76579.00000000001,80812,97180.00000000001,107045.00000000001,111307.00500000002,115503.005,119574.005,124561.005,127732.00500000003,134099.005,152920.00000000003,159793.00000000003,165680.00000000003,170016.005,171863.00500000003,177195.00000000003,181488.00500000003,191943.00000000003,197098.00000000003,200491.005,210100.00000000003,211413.00500000003,215130.00500000003],"rt":215146.005,"survey":"pswq","trial_type":"survey-template","trial_index":1,"time_elapsed":221679,"internal_node_id":"0.0-1.0","task_version":"0.2"},{"item_order":[2,10,8,5,7,4,6,12,3,11,0,1,9],"responses":{"Q03":"1","Q11":"1","Q09":"1","Q06":"2","Q08":"2","Q05":"3","Q07":"3","Q13":"4","Q04":"2","Q12":"3","Q01":"2","Q02":"3","Q10":"2"},"radio_events":[9040,15885.994999999995,24608.994999999995,30293.99999999997,35805,42771.995000000024,47524.99999999997,56989.994999999966,63956.99999999997,69506.99500000002,73544.99499999997,80188.99499999997,85988.99999999997],"key_events":[],"mouse_events":[9040,15885.994999999995,24608.994999999995,30293.99999999997,35805,42771.995000000024,47524.99999999997,56989.994999999966,63956.99999999997,69506.99500000002,73544.99499999997,80188.99499999997,84622.00000000003,85988.99999999997,88521.99500000002],"rt":88538.00000000003,"survey":"ius12","trial_type":"survey-template","trial_index":2,"time_elapsed":310240,"internal_node_id":"0.0-2.0","task_version":"0.2"},{"item_order":[3,5,14,2,0,7,8,9,1,4,13,11,15,12,6,10],"responses":{"Q04":"4","Q06":"4","Q15":"4","Q03":"4","Q01":"3","Q08":"4","Q09":"4","Q10":"4","Q02":"3","Q05":"4","Q14":"3","Q12":"4","Q16":"5","Q13":"4","Q07":"4","Q11":"4"},"radio_events":[9530.994999999995,15735,19930,28097.00000000006,35261.994999999995,38477.00000000006,47210.00000000006,57007,66311.00000000006,74424.995,81972.00000000006,87657.00000000006,94742,96288,104973,110623.99500000005,116059,121721.00000000006],"key_events":[],"mouse_events":[9530.994999999995,15735,19930,28097.00000000006,35261.994999999995,38477.00000000006,47210.00000000006,56108,57007,66311.00000000006,74424.995,81972.00000000006,87657.00000000006,94742,95524.00000000006,96288,104973,110623.99500000005,116059,121134,121721.00000000006,126034.99500000005],"rt":126049.995,"survey":"nfc","trial_type":"survey-template","trial_index":3,"time_elapsed":436319,"internal_node_id":"0.0-3.0","task_version":"0.2"},{"view_history":"[{\"page_index\":0,\"viewing_time\":14395},{\"page_index\":1,\"viewing_time\":10625},{\"page_index\":2,\"viewing_time\":18552},{\"page_index\":3,\"viewing_time\":12307.994999999995},{\"page_index\":4,\"viewing_time\":12242.004999999946},{\"page_index\":5,\"viewing_time\":7034.000000000058},{\"page_index\":6,\"viewing_time\":19047.995000000054},{\"page_index\":7,\"viewing_time\":14500},{\"page_index\":8,\"viewing_time\":14701},{\"page_index\":9,\"viewing_time\":17415}]","rt":140819.99500000005,"trial_type":"instructions","trial_index":4,"time_elapsed":577142,"internal_node_id":"0.0-4.0-0.0","task_version":"0.2"},{"response_times":[4581.994999999995,1903.0050000000047,1263.0000000001164,1551.9949999999953,5628.004999999888],"keys_pressed":["rightarrow","leftarrow","rightarrow","rightarrow","leftarrow"],"horizon":5,"forced_choices":["rightarrow","leftarrow","rightarrow","rightarrow"],"right_color":"lightblue","left_color":"orange","left_mu":40,"right_mu":20,"left_numbers":[36,50,47,50,32],"right_numbers":[12,18,3,19,15],"points_earned":116,"phase":"practice","trial_type":"horizons-task","trial_index":5,"time_elapsed":593595,"internal_node_id":"0.0-4.0-1.0","task_version":"0.2"},{"response_times":[3133.0000000001164,1895.9999999998836,1960.9949999999953,1178,5289.005000000005,1935.0000000001164,1178.9949999999953,920.9999999998836,1087.0000000001164,1988.0049999998882],"keys_pressed":["leftarrow","leftarrow","rightarrow","rightarrow","rightarrow","rightarrow","rightarrow","rightarrow","rightarrow","rightarrow"],"horizon":10,"forced_choices":["leftarrow","leftarrow","rightarrow","rightarrow"],"right_color":"orange","left_color":"lightblue","left_mu":60,"right_mu":70,"left_numbers":[68,61,53,72,66,59,68,68,54,64],"right_numbers":[62,63,77,68,68,71,68,62,60,66],"points_earned":669,"phase":"practice","trial_type":"horizons-task","trial_index":6,"time_elapsed":615677,"internal_node_id":"0.0-4.0-2.0","task_version":"0.2"},{"view_history":"[{\"page_index\":0,\"viewing_time\":5712},{\"page_index\":1,\"viewing_time\":11004.005000000005},{\"page_index\":2,\"viewing_time\":8198.000000000116},{\"page_index\":3,\"viewing_time\":5950.994999999879}]","rt":30865,"trial_type":"instructions","trial_index":7,"time_elapsed":646543,"internal_node_id":"0.0-4.0-3.0","task_version":"0.2"},{"responses":["true","false","true"],"num_errors":0,"rt":19269,"trial_type":"horizons-comprehension","trial_index":8,"time_elapsed":665812,"internal_node_id":"0.0-4.0-4.0","task_version":"0.2"},{"trial_type":"call-function","trial_index":9,"time_elapsed":665828,"internal_node_id":"0.0-5.0","task_version":"0.2"},{"view_history":"[{\"page_index\":0,\"viewing_time\":2247.9999999998836},{\"page_index\":1,\"viewing_time\":6985}]","rt":9232.999999999884,"trial_type":"instructions","trial_index":10,"time_elapsed":675061,"internal_node_id":"0.0-6.0","task_version":"0.2"},{"response_times":[1867.005000000121,1208.994999999879,1270.0050000000047,1296,4625],"keys_pressed":["leftarrow","rightarrow","leftarrow","rightarrow","rightarrow"],"horizon":5,"forced_choices":["leftarrow","rightarrow","leftarrow","rightarrow"],"right_color":"lightblue","left_color":"orange","left_mu":60,"right_mu":64,"left_numbers":[48,61,55,72,55],"right_numbers":[72,66,76,71,64],"points_earned":304,"phase":"task","trial_type":"horizons-task","trial_index":11,"time_elapsed":686853,"internal_node_id":"0.0-7.0","task_version":"0.2"},{"response_times":[1838.9999999998836,2208.9950000001118,1427.0050000000047,2385,2981.9949999999953,1020.0049999998882,1176.0000000001164,1005,764,1451],"keys_pressed":["leftarrow","leftarrow","leftarrow","rightarrow","leftarrow","leftarrow","leftarrow","leftarrow","leftarrow","leftarrow"],"horizon":10,"forced_choices":["leftarrow","leftarrow","leftarrow","rightarrow"],"right_color":"lightblue","left_color":"orange","left_mu":40,"right_mu":20,"left_numbers":[45,36,37,34,48,32,45,30,39,54],"right_numbers":[22,13,0,30,22,22,20,10,12,23],"points_earned":396,"phase":"task","trial_type":"horizons-task","trial_index":12,"time_elapsed":704639,"internal_node_id":"0.0-8.0","task_version":"0.2"},{"response_times":[1279.9999999998836,867,857.0000000001164,1007.9949999998789,2874.0050000000047],"keys_pressed":["rightarrow","leftarrow","rightarrow","leftarrow","rightarrow"],"horizon":5,"forced_choices":["rightarrow","leftarrow","rightarrow","leftarrow"],"right_color":"orange","left_color":"lightblue","left_mu":40,"right_mu":52,"left_numbers":[50,34,37,32,47],"right_numbers":[47,50,54,60,53],"points_earned":220,"phase":"task","trial_type":"horizons-task","trial_index":13,"time_elapsed":713036,"internal_node_id":"0.0-9.0","task_version":"0.2"},{"response_times":[1834.9950000001118,1181.0049999998882,994,907.9950000001118,6602.004999999888],"keys_pressed":["rightarrow","leftarrow","leftarrow","rightarrow","rightarrow"],"horizon":5,"forced_choices":["rightarrow","leftarrow","leftarrow","rightarrow"],"right_color":"lightblue","left_color":"orange","left_mu":60,"right_mu":72,"left_numbers":[65,58,65,77,56],"right_numbers":[64,72,82,59,77],"points_earned":323,"phase":"task","trial_type":"horizons-task","trial_index":14,"time_elapsed":726056,"internal_node_id":"0.0-10.0","task_version":"0.2"},{"response_times":[1596,1089.994999999879,795.0050000001211,1490.9949999999953,2410.0049999998882,1562.0000000001164,743.9949999999953,699,885.9999999998836,940.0050000001211],"keys_pressed":["leftarrow","leftarrow","rightarrow","rightarrow","rightarrow","rightarrow","rightarrow","rightarrow","rightarrow","rightarrow"],"horizon":10,"forced_choices":["leftarrow","leftarrow","rightarrow","rightarrow"],"right_color":"lightblue","left_color":"orange","left_mu":60,"right_mu":80,"left_numbers":[61,50,74,44,68,53,62,51,64,61],"right_numbers":[84,84,93,67,84,72,92,89,82,67],"points_earned":757,"phase":"task","trial_type":"horizons-task","trial_index":15,"time_elapsed":739773,"internal_node_id":"0.0-11.0","task_version":"0.2"},{"response_times":[1099.9950000001118,974.0050000000047,1341.9949999999953,754,5285.005000000005],"keys_pressed":["leftarrow","leftarrow","leftarrow","rightarrow","leftarrow"],"horizon":5,"forced_choices":["leftarrow","leftarrow","leftarrow","rightarrow"],"right_color":"orange","left_color":"lightblue","left_mu":40,"right_mu":60,"left_numbers":[42,52,34,30,30],"right_numbers":[60,68,70,63,66],"points_earned":221,"phase":"task","trial_type":"horizons-task","trial_index":16,"time_elapsed":750736,"internal_node_id":"0.0-12.0","task_version":"0.2"},{"response_times":[1395,980,875,804,3924.9999999998836,1568,1409,636.9950000001118,573.0049999998882,659.9949999999953],"keys_pressed":["leftarrow","leftarrow","rightarrow","leftarrow","leftarrow","leftarrow","leftarrow","leftarrow","leftarrow","leftarrow"],"horizon":10,"forced_choices":["leftarrow","leftarrow","rightarrow","leftarrow"],"right_color":"orange","left_color":"lightblue","left_mu":60,"right_mu":40,"left_numbers":[63,54,63,59,65,57,67,75,57,62],"right_numbers":[29,35,44,44,32,51,33,41,42,55],"points_earned":603,"phase":"task","trial_type":"horizons-task","trial_index":17,"time_elapsed":765070,"internal_node_id":"0.0-13.0","task_version":"0.2"},{"response_times":[982.9999999998836,1057.0050000000047,809.9950000001118,645.0049999998882,2091.0000000001164],"keys_pressed":["rightarrow","leftarrow","leftarrow","leftarrow","leftarrow"],"horizon":5,"forced_choices":["rightarrow","leftarrow","leftarrow","leftarrow"],"right_color":"orange","left_color":"lightblue","left_mu":40,"right_mu":52,"left_numbers":[45,40,33,41,39],"right_numbers":[50,55,55,52,36],"points_earned":203,"phase":"task","trial_type":"horizons-task","trial_index":18,"time_elapsed":772171,"internal_node_id":"0.0-14.0","task_version":"0.2"},{"response_times":[1265.9949999999953,779.0050000000047,838.0000000001164,691.9949999999953,2599.9999999998836],"keys_pressed":["leftarrow","leftarrow","rightarrow","leftarrow","leftarrow"],"horizon":5,"forced_choices":["leftarrow","leftarrow","rightarrow","leftarrow"],"right_color":"orange","left_color":"lightblue","left_mu":60,"right_mu":40,"left_numbers":[59,65,60,62,80],"right_numbers":[36,35,38,35,35],"points_earned":304,"phase":"task","trial_type":"horizons-task","trial_index":19,"time_elapsed":779851,"internal_node_id":"0.0-15.0","task_version":"0.2"},{"response_times":[1106,956.0050000000047,1557,1422.9949999999953,1953.0050000000047],"keys_pressed":["leftarrow","rightarrow","rightarrow","rightarrow","rightarrow"],"horizon":5,"forced_choices":["leftarrow","rightarrow","rightarrow","rightarrow"],"right_color":"lightblue","left_color":"orange","left_mu":60,"right_mu":56,"left_numbers":[58,49,49,44,56],"right_numbers":[59,58,39,53,52],"points_earned":260,"phase":"task","trial_type":"horizons-task","trial_index":20,"time_elapsed":788366,"internal_node_id":"0.0-16.0","task_version":"0.2"},{"response_times":[1247.9999999998836,968.9950000001118,672,720,2848.0049999998882],"keys_pressed":["leftarrow","rightarrow","leftarrow","rightarrow","leftarrow"],"horizon":5,"forced_choices":["leftarrow","rightarrow","leftarrow","rightarrow"],"right_color":"lightblue","left_color":"orange","left_mu":40,"right_mu":10,"left_numbers":[42,36,29,37,43],"right_numbers":[12,8,12,10,10],"points_earned":132,"phase":"task","trial_type":"horizons-task","trial_index":21,"time_elapsed":796332,"internal_node_id":"0.0-17.0","task_version":"0.2"},{"response_times":[1000,1059,1016.9999999998836,1509,2881.9950000001118],"keys_pressed":["leftarrow","leftarrow","rightarrow","rightarrow","rightarrow"],"horizon":5,"forced_choices":["leftarrow","leftarrow","rightarrow","rightarrow"],"right_color":"lightblue","left_color":"orange","left_mu":60,"right_mu":68,"left_numbers":[51,66,76,53,59],"right_numbers":[54,66,66,63,68],"points_earned":314,"phase":"task","trial_type":"horizons-task","trial_index":22,"time_elapsed":805306,"internal_node_id":"0.0-18.0","task_version":"0.2"},{"response_times":[1437.9949999999953,985.0000000001164,666.0050000000047,649,2916.9999999998836,1236.0000000001164,1201.994999999879,740.0050000001211,684,1562],"keys_pressed":["rightarrow","leftarrow","leftarrow","leftarrow","leftarrow","leftarrow","leftarrow","leftarrow","leftarrow","leftarrow"],"horizon":10,"forced_choices":["rightarrow","leftarrow","leftarrow","leftarrow"],"right_color":"lightblue","left_color":"orange","left_mu":60,"right_mu":64,"left_numbers":[72,66,52,58,72,64,53,50,54,71],"right_numbers":[76,65,45,61,57,59,57,57,72,69],"points_earned":616,"phase":"task","trial_type":"horizons-task","trial_index":23,"time_elapsed":818886,"internal_node_id":"0.0-19.0","task_version":"0.2"},{"response_times":[1056.0050000000047,1050.9999999998836,665.9950000001118,866.0050000000047,2345],"keys_pressed":["rightarrow","rightarrow","leftarrow","leftarrow","leftarrow"],"horizon":5,"forced_choices":["rightarrow","rightarrow","leftarrow","leftarrow"],"right_color":"lightblue","left_color":"orange","left_mu":40,"right_mu":44,"left_numbers":[30,45,54,36,34],"right_numbers":[42,35,49,45,43],"points_earned":201,"phase":"task","trial_type":"horizons-task","trial_index":24,"time_elapsed":826383,"internal_node_id":"0.0-20.0","task_version":"0.2"},{"response_times":[1375,972,621.0000000001164,1621.9949999999953,2458.0049999998882,918.9949999999953,998.0000000001164,682,712,940.0049999998882],"keys_pressed":["leftarrow","rightarrow","rightarrow","rightarrow","rightarrow","rightarrow","rightarrow","rightarrow","rightarrow","rightarrow"],"horizon":10,"forced_choices":["leftarrow","rightarrow","rightarrow","rightarrow"],"right_color":"lightblue","left_color":"orange","left_mu":60,"right_mu":56,"left_numbers":[61,52,72,55,76,49,62,62,71,54],"right_numbers":[37,48,58,47,58,53,45,52,64,54],"points_earned":540,"phase":"task","trial_type":"horizons-task","trial_index":25,"time_elapsed":839186,"internal_node_id":"0.0-21.0","task_version":"0.2"},{"response_times":[784.9949999999953,993.0000000001164,586.0050000000047,6017.994999999995,2665.0050000000047,792,667,592.0050000000047,640,877.9949999999953],"keys_pressed":["rightarrow","rightarrow","rightarrow","leftarrow","rightarrow","rightarrow","rightarrow","rightarrow","rightarrow","rightarrow"],"horizon":10,"forced_choices":["rightarrow","rightarrow","rightarrow","leftarrow"],"right_color":"lightblue","left_color":"orange","left_mu":60,"right_mu":90,"left_numbers":[58,53,73,58,52,53,70,74,51,59],"right_numbers":[88,88,93,92,89,86,91,90,92,87],"points_earned":862,"phase":"task","trial_type":"horizons-task","trial_index":26,"time_elapsed":855308,"internal_node_id":"0.0-22.0","task_version":"0.2"},{"response_times":[914,731,707.9999999998836,933,2314.9950000001118],"keys_pressed":["leftarrow","rightarrow","leftarrow","leftarrow","leftarrow"],"horizon":5,"forced_choices":["leftarrow","rightarrow","leftarrow","leftarrow"],"right_color":"orange","left_color":"lightblue","left_mu":40,"right_mu":48,"left_numbers":[38,29,31,21,37],"right_numbers":[52,47,36,36,39],"points_earned":174,"phase":"task","trial_type":"horizons-task","trial_index":27,"time_elapsed":862414,"internal_node_id":"0.0-23.0","task_version":"0.2"},{"response_times":[1042,860,753.0049999998882,924.9950000001118,2885.0050000000047],"keys_pressed":["rightarrow","leftarrow","rightarrow","rightarrow","rightarrow"],"horizon":5,"forced_choices":["rightarrow","leftarrow","rightarrow","rightarrow"],"right_color":"orange","left_color":"lightblue","left_mu":40,"right_mu":70,"left_numbers":[38,39,44,43,31],"right_numbers":[60,69,76,63,72],"points_earned":310,"phase":"task","trial_type":"horizons-task","trial_index":28,"time_elapsed":870397,"internal_node_id":"0.0-24.0","task_version":"0.2"},{"response_times":[910.0050000000047,845,1019,656.9999999998836,2104.0000000001164],"keys_pressed":["leftarrow","rightarrow","leftarrow","leftarrow","leftarrow"],"horizon":5,"forced_choices":["leftarrow","rightarrow","leftarrow","leftarrow"],"right_color":"orange","left_color":"lightblue","left_mu":40,"right_mu":28,"left_numbers":[56,31,45,37,34],"right_numbers":[23,52,34,15,21],"points_earned":224,"phase":"task","trial_type":"horizons-task","trial_index":29,"time_elapsed":877451,"internal_node_id":"0.0-25.0","task_version":"0.2"},{"response_times":[989.9949999999953,651.0050000001211,808,659,2712],"keys_pressed":["leftarrow","rightarrow","leftarrow","rightarrow","rightarrow"],"horizon":5,"forced_choices":["leftarrow","rightarrow","leftarrow","rightarrow"],"right_color":"orange","left_color":"lightblue","left_mu":40,"right_mu":48,"left_numbers":[38,40,30,45,51],"right_numbers":[45,47,49,51,53],"points_earned":219,"phase":"task","trial_type":"horizons-task","trial_index":30,"time_elapsed":884786,"internal_node_id":"0.0-26.0","task_version":"0.2"},{"response_times":[1311.0000000001164,1076.9949999999953,749.0050000000047,1159.9949999999953,2529.0050000000047,818.9999999998836,551.0000000001164,562.9949999999953,569.0049999998882,644.9949999999953],"keys_pressed":["leftarrow","leftarrow","rightarrow","leftarrow","leftarrow","leftarrow","leftarrow","leftarrow","leftarrow","leftarrow"],"horizon":10,"forced_choices":["leftarrow","leftarrow","rightarrow","leftarrow"],"right_color":"lightblue","left_color":"orange","left_mu":40,"right_mu":10,"left_numbers":[31,45,27,41,30,48,43,50,35,47],"right_numbers":[8,9,0,0,11,13,12,0,0,21],"points_earned":370,"phase":"task","trial_type":"horizons-task","trial_index":31,"time_elapsed":896269,"internal_node_id":"0.0-27.0","task_version":"0.2"},{"response_times":[1092,840.9949999999953,912.9999999998836,772.0050000000047,2004.9950000001118],"keys_pressed":["leftarrow","leftarrow","rightarrow","rightarrow","leftarrow"],"horizon":5,"forced_choices":["leftarrow","leftarrow","rightarrow","rightarrow"],"right_color":"orange","left_color":"lightblue","left_mu":40,"right_mu":32,"left_numbers":[52,41,49,41,47],"right_numbers":[25,19,31,23,21],"points_earned":194,"phase":"task","trial_type":"horizons-task","trial_index":32,"time_elapsed":903397,"internal_node_id":"0.0-28.0","task_version":"0.2"},{"response_times":[1079.9950000001118,773.0050000000047,1276.9999999998836,1159,2063.9950000001118,917.9999999998836,486.0050000001211,454.9999999998836,571.0000000001164,490.9999999998836],"keys_pressed":["rightarrow","rightarrow","leftarrow","rightarrow","rightarrow","rightarrow","rightarrow","rightarrow","rightarrow","rightarrow"],"horizon":10,"forced_choices":["rightarrow","rightarrow","leftarrow","rightarrow"],"right_color":"lightblue","left_color":"orange","left_mu":40,"right_mu":44,"left_numbers":[34,42,47,38,42,36,48,36,47,40],"right_numbers":[45,31,47,33,47,36,37,38,49,48],"points_earned":411,"phase":"task","trial_type":"horizons-task","trial_index":33,"time_elapsed":914181,"internal_node_id":"0.0-29.0","task_version":"0.2"},{"response_times":[865,754.9950000001118,786,815.0049999998882,2688],"keys_pressed":["rightarrow","leftarrow","leftarrow","rightarrow","leftarrow"],"horizon":5,"forced_choices":["rightarrow","leftarrow","leftarrow","rightarrow"],"right_color":"orange","left_color":"lightblue","left_mu":60,"right_mu":40,"left_numbers":[61,60,59,67,44],"right_numbers":[42,37,39,41,37],"points_earned":246,"phase":"task","trial_type":"horizons-task","trial_index":34,"time_elapsed":921599,"internal_node_id":"0.0-30.0","task_version":"0.2"},{"response_times":[998.9950000001118,836.0050000000047,770.9999999998836,922.0000000001164,2247.9949999999953],"keys_pressed":["rightarrow","leftarrow","rightarrow","leftarrow","leftarrow"],"horizon":5,"forced_choices":["rightarrow","leftarrow","rightarrow","leftarrow"],"right_color":"orange","left_color":"lightblue","left_mu":60,"right_mu":48,"left_numbers":[54,68,46,62,57],"right_numbers":[41,50,33,29,52],"points_earned":261,"phase":"task","trial_type":"horizons-task","trial_index":35,"time_elapsed":928889,"internal_node_id":"0.0-31.0","task_version":"0.2"},{"response_times":[1032.9949999999953,807,1406.9999999998836,2029.0050000000047,976,555.0000000001164,520,481,468.99499999999534,496.00500000000466],"keys_pressed":["leftarrow","rightarrow","rightarrow","rightarrow","rightarrow","rightarrow","rightarrow","rightarrow","rightarrow","rightarrow"],"horizon":10,"forced_choices":["leftarrow","rightarrow","rightarrow","rightarrow"],"right_color":"lightblue","left_color":"orange","left_mu":60,"right_mu":80,"left_numbers":[60,77,77,61,75,62,46,70,53,44],"right_numbers":[74,89,70,80,80,91,76,103,79,80],"points_earned":808,"phase":"task","trial_type":"horizons-task","trial_index":36,"time_elapsed":939166,"internal_node_id":"0.0-32.0","task_version":"0.2"},{"response_times":[969.0050000000047,896,625,589,6078],"keys_pressed":["leftarrow","leftarrow","rightarrow","rightarrow","rightarrow"],"horizon":5,"forced_choices":["leftarrow","leftarrow","rightarrow","rightarrow"],"right_color":"lightblue","left_color":"orange","left_mu":60,"right_mu":80,"left_numbers":[59,72,48,55,51],"right_numbers":[84,70,72,90,66],"points_earned":359,"phase":"task","trial_type":"horizons-task","trial_index":37,"time_elapsed":949828,"internal_node_id":"0.0-33.0","task_version":"0.2"},{"response_times":[1122.9999999998836,606.0000000001164,760,1621.9949999999953,3489,995.0050000000047,443.99499999999534,481,452.00500000000466,596.9999999998836],"keys_pressed":["leftarrow","leftarrow","rightarrow","rightarrow","leftarrow","leftarrow","leftarrow","leftarrow","leftarrow","leftarrow"],"horizon":10,"forced_choices":["leftarrow","leftarrow","rightarrow","rightarrow"],"right_color":"lightblue","left_color":"orange","left_mu":60,"right_mu":68,"left_numbers":[70,60,50,51,51,56,53,59,64,61],"right_numbers":[68,54,80,48,64,72,76,66,67,61],"points_earned":602,"phase":"task","trial_type":"horizons-task","trial_index":38,"time_elapsed":961912,"internal_node_id":"0.0-34.0","task_version":"0.2"},{"response_times":[774,718.9949999998789,663.0000000001164,1172,4787.005000000005],"keys_pressed":["leftarrow","rightarrow","rightarrow","leftarrow","leftarrow"],"horizon":5,"forced_choices":["leftarrow","rightarrow","rightarrow","leftarrow"],"right_color":"orange","left_color":"lightblue","left_mu":40,"right_mu":36,"left_numbers":[35,35,38,43,37],"right_numbers":[33,39,32,37,36],"points_earned":186,"phase":"task","trial_type":"horizons-task","trial_index":39,"time_elapsed":971529,"internal_node_id":"0.0-35.0","task_version":"0.2"},{"response_times":[909.9949999998789,695.0000000001164,636.0049999998882,1486.9949999999953,3171.005000000121],"keys_pressed":["leftarrow","rightarrow","rightarrow","leftarrow","rightarrow"],"horizon":5,"forced_choices":["leftarrow","rightarrow","rightarrow","leftarrow"],"right_color":"lightblue","left_color":"orange","left_mu":60,"right_mu":90,"left_numbers":[63,49,61,64,58],"right_numbers":[86,79,90,88,83],"points_earned":379,"phase":"task","trial_type":"horizons-task","trial_index":40,"time_elapsed":979945,"internal_node_id":"0.0-36.0","task_version":"0.2"},{"response_times":[981,855.0050000000047,740.9999999998836,935.9950000001118,1613.0049999998882,379,418,401.0000000001164,510.99499999999534,444.00499999988824],"keys_pressed":["rightarrow","leftarrow","rightarrow","rightarrow","rightarrow","rightarrow","rightarrow","rightarrow","rightarrow","rightarrow"],"horizon":10,"forced_choices":["rightarrow","leftarrow","rightarrow","rightarrow"],"right_color":"orange","left_color":"lightblue","left_mu":40,"right_mu":70,"left_numbers":[43,40,29,41,35,36,62,41,43,34],"right_numbers":[56,60,72,78,60,71,66,72,74,61],"points_earned":650,"phase":"task","trial_type":"horizons-task","trial_index":41,"time_elapsed":988728,"internal_node_id":"0.0-37.0","task_version":"0.2"},{"response_times":[1152.0049999998882,741.9950000001118,661.0049999998882,921.0000000001164,2407.9949999999953],"keys_pressed":["leftarrow","leftarrow","rightarrow","leftarrow","leftarrow"],"horizon":5,"forced_choices":["leftarrow","leftarrow","rightarrow","leftarrow"],"right_color":"lightblue","left_color":"orange","left_mu":40,"right_mu":10,"left_numbers":[26,35,44,40,35],"right_numbers":[0,15,20,0,1],"points_earned":156,"phase":"task","trial_type":"horizons-task","trial_index":42,"time_elapsed":996124,"internal_node_id":"0.0-38.0","task_version":"0.2"},{"response_times":[1027.0049999998882,688,1011.9950000001118,730.0050000000047,3000.9949999999953,399.00500000000466,307,314.99499999999534,346.00499999988824,638.9950000001118],"keys_pressed":["leftarrow","rightarrow","leftarrow","rightarrow","leftarrow","leftarrow","leftarrow","leftarrow","leftarrow","leftarrow"],"horizon":10,"forced_choices":["leftarrow","rightarrow","leftarrow","rightarrow"],"right_color":"lightblue","left_color":"orange","left_mu":40,"right_mu":20,"left_numbers":[58,29,33,33,47,37,44,45,52,38],"right_numbers":[18,17,13,9,25,16,11,12,29,8],"points_earned":380,"phase":"task","trial_type":"horizons-task","trial_index":43,"time_elapsed":1006095,"internal_node_id":"0.0-39.0","task_version":"0.2"},{"response_times":[978.0050000000047,868,727,841.9949999999953,2687.0050000000047,497.9999999998836,375,282.0000000001164,288,549.9949999998789],"keys_pressed":["rightarrow","leftarrow","rightarrow","leftarrow","leftarrow","leftarrow","leftarrow","leftarrow","leftarrow","leftarrow"],"horizon":10,"forced_choices":["rightarrow","leftarrow","rightarrow","leftarrow"],"right_color":"orange","left_color":"lightblue","left_mu":60,"right_mu":48,"left_numbers":[57,53,55,71,57,53,56,74,58,65],"right_numbers":[41,55,46,61,51,43,48,49,38,47],"points_earned":574,"phase":"task","trial_type":"horizons-task","trial_index":44,"time_elapsed":1015697,"internal_node_id":"0.0-40.0","task_version":"0.2"},{"response_times":[1037,699.9949999999953,905.0049999998882,744.0000000001164,2750.9949999999953,383.00500000000466,303.0000000001164,315.9949999998789,493.9999999998836,1436.0000000002328],"keys_pressed":["leftarrow","rightarrow","leftarrow","rightarrow","leftarrow","leftarrow","leftarrow","leftarrow","leftarrow","leftarrow"],"horizon":10,"forced_choices":["leftarrow","rightarrow","leftarrow","rightarrow"],"right_color":"lightblue","left_color":"orange","left_mu":40,"right_mu":10,"left_numbers":[39,40,39,51,51,47,28,20,48,49],"right_numbers":[6,23,1,4,10,7,0,16,12,6],"points_earned":348,"phase":"task","trial_type":"horizons-task","trial_index":45,"time_elapsed":1026274,"internal_node_id":"0.0-41.0","task_version":"0.2"},{"response_times":[1152.994999999879,883.0050000001211,820,733.9949999999953,3031.005000000121,465.9999999998836,381,453,669.9999999998836,693.0000000002328],"keys_pressed":["rightarrow","rightarrow","leftarrow","rightarrow","rightarrow","rightarrow","rightarrow","rightarrow","rightarrow","rightarrow"],"horizon":10,"forced_choices":["rightarrow","rightarrow","leftarrow","rightarrow"],"right_color":"orange","left_color":"lightblue","left_mu":40,"right_mu":36,"left_numbers":[49,42,45,48,39,27,31,47,37,48],"right_numbers":[28,38,44,41,41,54,40,31,41,46],"points_earned":405,"phase":"task","trial_type":"horizons-task","trial_index":46,"time_elapsed":1037072,"internal_node_id":"0.0-42.0","task_version":"0.2"},{"response_times":[1159.0000000001164,1052.9999999998836,827,692,2962],"keys_pressed":["rightarrow","leftarrow","leftarrow","rightarrow","leftarrow"],"horizon":5,"forced_choices":["rightarrow","leftarrow","leftarrow","rightarrow"],"right_color":"lightblue","left_color":"orange","left_mu":60,"right_mu":56,"left_numbers":[55,62,66,63,61],"right_numbers":[50,69,61,48,75],"points_earned":287,"phase":"task","trial_type":"horizons-task","trial_index":47,"time_elapsed":1045278,"internal_node_id":"0.0-43.0","task_version":"0.2"},{"response_times":[1155.9950000001118,684,751.0050000001211,1568.994999999646,4281.005000000121],"keys_pressed":["leftarrow","rightarrow","rightarrow","leftarrow","leftarrow"],"horizon":5,"forced_choices":["leftarrow","rightarrow","rightarrow","leftarrow"],"right_color":"lightblue","left_color":"orange","left_mu":60,"right_mu":52,"left_numbers":[64,48,62,63,72],"right_numbers":[58,62,59,44,35],"points_earned":320,"phase":"task","trial_type":"horizons-task","trial_index":48,"time_elapsed":1055230,"internal_node_id":"0.0-44.0","task_version":"0.2"},{"response_times":[1093,952.9950000001118,854,799.0049999998882,2746.9950000001118,503.00499999988824,449.00000000023283,441,492,580.9949999998789],"keys_pressed":["leftarrow","leftarrow","rightarrow","leftarrow","leftarrow","leftarrow","leftarrow","leftarrow","leftarrow","leftarrow"],"horizon":10,"forced_choices":["leftarrow","leftarrow","rightarrow","leftarrow"],"right_color":"orange","left_color":"lightblue","left_mu":40,"right_mu":32,"left_numbers":[48,60,41,40,36,42,44,33,47,44],"right_numbers":[33,33,37,27,34,37,35,36,21,34],"points_earned":431,"phase":"task","trial_type":"horizons-task","trial_index":49,"time_elapsed":1065646,"internal_node_id":"0.0-45.0","task_version":"0.2"},{"response_times":[1087,763.9999999997672,716.0000000002328,829,3255.999999999767,521.9950000001118,410.00499999988824,416.00000000023283,445.99999999976717,481],"keys_pressed":["leftarrow","rightarrow","rightarrow","leftarrow","rightarrow","rightarrow","rightarrow","rightarrow","rightarrow","rightarrow"],"horizon":10,"forced_choices":["leftarrow","rightarrow","rightarrow","leftarrow"],"right_color":"lightblue","left_color":"orange","left_mu":60,"right_mu":90,"left_numbers":[68,65,74,49,62,60,51,56,82,61],"right_numbers":[67,94,86,103,80,97,78,73,102,113],"points_earned":840,"phase":"task","trial_type":"horizons-task","trial_index":50,"time_elapsed":1076077,"internal_node_id":"0.0-46.0","task_version":"0.2"},{"view_history":"[{\"page_index\":0,\"viewing_time\":9187.005000000121},{\"page_index\":1,\"viewing_time\":4028.994999999879}]","rt":13216,"trial_type":"instructions","trial_index":51,"time_elapsed":1089293,"internal_node_id":"0.0-47.0","task_version":"0.2"},{"response_times":[1214.0000000002328,803.9999999997672,754.9950000001118,617.0049999998882,1827.9950000001118,403.00499999988824,352.99500000011176,414.0050000001211,521.9999999997672,745.9950000001118],"keys_pressed":["rightarrow","leftarrow","rightarrow","rightarrow","rightarrow","rightarrow","rightarrow","rightarrow","rightarrow","rightarrow"],"horizon":10,"forced_choices":["rightarrow","leftarrow","rightarrow","rightarrow"],"right_color":"lightblue","left_color":"orange","left_mu":60,"right_mu":68,"left_numbers":[60,48,55,62,50,64,52,53,78,64],"right_numbers":[54,59,68,52,69,80,67,72,67,77],"points_earned":654,"phase":"task","trial_type":"horizons-task","trial_index":52,"time_elapsed":1098476,"internal_node_id":"0.0-48.0","task_version":"0.2"},{"response_times":[786.0000000002328,873.9949999998789,632.0049999998882,893,2904,443.99500000011176,392,400,648.0049999998882,542.9950000001118],"keys_pressed":["rightarrow","leftarrow","rightarrow","leftarrow","rightarrow","rightarrow","rightarrow","rightarrow","rightarrow","rightarrow"],"horizon":10,"forced_choices":["rightarrow","leftarrow","rightarrow","leftarrow"],"right_color":"orange","left_color":"lightblue","left_mu":40,"right_mu":52,"left_numbers":[42,34,33,50,29,34,39,33,34,26],"right_numbers":[52,36,44,51,61,47,45,55,50,63],"points_earned":501,"phase":"task","trial_type":"horizons-task","trial_index":53,"time_elapsed":1108507,"internal_node_id":"0.0-49.0","task_version":"0.2"},{"response_times":[886.0049999998882,689,731,763.9950000001118,2196.005000000121],"keys_pressed":["rightarrow","rightarrow","leftarrow","leftarrow","leftarrow"],"horizon":5,"forced_choices":["rightarrow","rightarrow","leftarrow","leftarrow"],"right_color":"orange","left_color":"lightblue","left_mu":60,"right_mu":30,"left_numbers":[57,58,52,61,49],"right_numbers":[34,26,28,24,34],"points_earned":222,"phase":"task","trial_type":"horizons-task","trial_index":54,"time_elapsed":1115287,"internal_node_id":"0.0-50.0","task_version":"0.2"},{"response_times":[906.0000000002328,844.9999999997672,772.0000000002328,993.9999999997672,1879.9950000001118,447,381,399.00499999988824,511.99500000011176,516.0049999998882],"keys_pressed":["rightarrow","leftarrow","leftarrow","leftarrow","leftarrow","leftarrow","leftarrow","leftarrow","leftarrow","leftarrow"],"horizon":10,"forced_choices":["rightarrow","leftarrow","leftarrow","leftarrow"],"right_color":"orange","left_color":"lightblue","left_mu":40,"right_mu":52,"left_numbers":[40,44,40,51,33,52,43,45,44,39],"right_numbers":[52,50,54,47,60,49,46,59,46,50],"points_earned":443,"phase":"task","trial_type":"horizons-task","trial_index":55,"time_elapsed":1124455,"internal_node_id":"0.0-51.0","task_version":"0.2"},{"response_times":[1141.0049999998882,633.9950000001118,780,608,4005.0049999998882,772.0000000002328,368.9949999998789,431.0050000001211,750.9999999997672,525],"keys_pressed":["rightarrow","rightarrow","leftarrow","leftarrow","rightarrow","rightarrow","rightarrow","rightarrow","rightarrow","rightarrow"],"horizon":10,"forced_choices":["rightarrow","rightarrow","leftarrow","leftarrow"],"right_color":"lightblue","left_color":"orange","left_mu":40,"right_mu":44,"left_numbers":[41,30,32,29,52,45,33,42,51,51],"right_numbers":[48,46,37,45,43,50,30,51,42,35],"points_earned":406,"phase":"task","trial_type":"horizons-task","trial_index":56,"time_elapsed":1135986,"internal_node_id":"0.0-52.0","task_version":"0.2"},{"response_times":[1129.9950000001118,743.0050000001211,706.9999999997672,1062.0000000002328,2518],"keys_pressed":["rightarrow","leftarrow","rightarrow","rightarrow","rightarrow"],"horizon":5,"forced_choices":["rightarrow","leftarrow","rightarrow","rightarrow"],"right_color":"lightblue","left_color":"orange","left_mu":60,"right_mu":68,"left_numbers":[52,59,61,50,48],"right_numbers":[67,71,63,72,70],"points_earned":331,"phase":"task","trial_type":"horizons-task","trial_index":57,"time_elapsed":1143655,"internal_node_id":"0.0-53.0","task_version":"0.2"},{"response_times":[805.9949999998789,1274.0049999998882,840.9950000001118,1318.0049999998882,1894],"keys_pressed":["rightarrow","leftarrow","leftarrow","leftarrow","leftarrow"],"horizon":5,"forced_choices":["rightarrow","leftarrow","leftarrow","leftarrow"],"right_color":"lightblue","left_color":"orange","left_mu":60,"right_mu":64,"left_numbers":[56,44,71,55,37],"right_numbers":[69,59,71,66,66],"points_earned":276,"phase":"task","trial_type":"horizons-task","trial_index":58,"time_elapsed":1151293,"internal_node_id":"0.0-54.0","task_version":"0.2"},{"response_times":[1089,733,776.0049999998882,670,1428.9950000001118,483,373,476.00499999988824,436,512.0000000002328],"keys_pressed":["leftarrow","rightarrow","rightarrow","rightarrow","rightarrow","rightarrow","rightarrow","rightarrow","rightarrow","rightarrow"],"horizon":10,"forced_choices":["leftarrow","rightarrow","rightarrow","rightarrow"],"right_color":"lightblue","left_color":"orange","left_mu":60,"right_mu":72,"left_numbers":[70,71,56,48,53,47,61,61,63,56],"right_numbers":[77,72,84,69,83,75,68,77,80,61],"points_earned":739,"phase":"task","trial_type":"horizons-task","trial_index":59,"time_elapsed":1159777,"internal_node_id":"0.0-55.0","task_version":"0.2"},{"response_times":[976.0050000001211,771.9949999998789,1035.005000000121,731,5932,466.9949999998789,373,509.00499999988824,657.9950000001118,642],"keys_pressed":["leftarrow","rightarrow","leftarrow","rightarrow","rightarrow","rightarrow","rightarrow","rightarrow","rightarrow","rightarrow"],"horizon":10,"forced_choices":["leftarrow","rightarrow","leftarrow","rightarrow"],"right_color":"lightblue","left_color":"orange","left_mu":60,"right_mu":64,"left_numbers":[58,70,68,65,78,57,60,73,53,57],"right_numbers":[68,54,65,73,63,56,69,68,60,81],"points_earned":650,"phase":"task","trial_type":"horizons-task","trial_index":60,"time_elapsed":1173379,"internal_node_id":"0.0-56.0","task_version":"0.2"},{"response_times":[848.0049999998882,591.9950000001118,1692.005000000121,1096,2715.999999999767],"keys_pressed":["rightarrow","rightarrow","leftarrow","leftarrow","leftarrow"],"horizon":5,"forced_choices":["rightarrow","rightarrow","leftarrow","leftarrow"],"right_color":"orange","left_color":"lightblue","left_mu":40,"right_mu":28,"left_numbers":[43,43,49,29,43],"right_numbers":[26,25,18,34,27],"points_earned":172,"phase":"task","trial_type":"horizons-task","trial_index":61,"time_elapsed":1181838,"internal_node_id":"0.0-57.0","task_version":"0.2"},{"response_times":[1148.9999999997672,962,745.9950000001118,823.0049999998882,3623.9950000001118,558.0049999998882,503.99500000011176,563,772.0049999998882,450.99500000011176],"keys_pressed":["leftarrow","leftarrow","rightarrow","rightarrow","leftarrow","leftarrow","leftarrow","leftarrow","leftarrow","leftarrow"],"horizon":10,"forced_choices":["leftarrow","leftarrow","rightarrow","rightarrow"],"right_color":"orange","left_color":"lightblue","left_mu":40,"right_mu":32,"left_numbers":[40,38,37,37,35,45,36,46,35,34],"right_numbers":[37,29,25,32,34,33,18,35,36,29],"points_earned":366,"phase":"task","trial_type":"horizons-task","trial_index":62,"time_elapsed":1193502,"internal_node_id":"0.0-58.0","task_version":"0.2"},{"response_times":[897.0049999998882,707,700.0000000002328,635,1795.994999999879,386.0050000001211,269,318,553.9999999997672,531.9950000001118],"keys_pressed":["rightarrow","leftarrow","leftarrow","leftarrow","leftarrow","leftarrow","leftarrow","leftarrow","leftarrow","leftarrow"],"horizon":10,"forced_choices":["rightarrow","leftarrow","leftarrow","leftarrow"],"right_color":"orange","left_color":"lightblue","left_mu":60,"right_mu":30,"left_numbers":[58,49,55,61,64,72,49,67,74,44],"right_numbers":[43,30,24,42,30,19,29,39,36,13],"points_earned":578,"phase":"task","trial_type":"horizons-task","trial_index":63,"time_elapsed":1201814,"internal_node_id":"0.0-59.0","task_version":"0.2"},{"response_times":[1089,773,831,1067.0049999998882,1517.0000000002328],"keys_pressed":["leftarrow","leftarrow","leftarrow","rightarrow","leftarrow"],"horizon":5,"forced_choices":["leftarrow","leftarrow","leftarrow","rightarrow"],"right_color":"lightblue","left_color":"orange","left_mu":40,"right_mu":20,"left_numbers":[49,43,36,31,30],"right_numbers":[14,16,14,29,8],"points_earned":187,"phase":"task","trial_type":"horizons-task","trial_index":64,"time_elapsed":1208606,"internal_node_id":"0.0-60.0","task_version":"0.2"},{"response_times":[1210.994999999879,825.0049999998882,842.0000000002328,1218.994999999879,1811],"keys_pressed":["leftarrow","rightarrow","rightarrow","rightarrow","rightarrow"],"horizon":5,"forced_choices":["leftarrow","rightarrow","rightarrow","rightarrow"],"right_color":"lightblue","left_color":"orange","left_mu":60,"right_mu":80,"left_numbers":[51,63,53,59,77],"right_numbers":[77,85,77,78,93],"points_earned":384,"phase":"task","trial_type":"horizons-task","trial_index":65,"time_elapsed":1216041,"internal_node_id":"0.0-61.0","task_version":"0.2"},{"response_times":[802.0049999998882,957.0000000002328,1072.994999999879,2271.0049999998882,1033.9950000001118],"keys_pressed":["rightarrow","rightarrow","leftarrow","rightarrow","rightarrow"],"horizon":5,"forced_choices":["rightarrow","rightarrow","leftarrow","rightarrow"],"right_color":"orange","left_color":"lightblue","left_mu":40,"right_mu":36,"left_numbers":[42,42,38,33,47],"right_numbers":[39,50,34,40,33],"points_earned":200,"phase":"task","trial_type":"horizons-task","trial_index":66,"time_elapsed":1223686,"internal_node_id":"0.0-62.0","task_version":"0.2"},{"response_times":[1053.994999999879,796.0049999998882,1010,795.0000000002328,3518,511,519,530.9949999998789,612,503.00499999988824],"keys_pressed":["leftarrow","rightarrow","leftarrow","rightarrow","rightarrow","rightarrow","rightarrow","rightarrow","rightarrow","rightarrow"],"horizon":10,"forced_choices":["leftarrow","rightarrow","leftarrow","rightarrow"],"right_color":"orange","left_color":"lightblue","left_mu":40,"right_mu":48,"left_numbers":[43,51,39,45,52,43,47,33,42,39],"right_numbers":[47,40,50,46,66,54,58,31,46,46],"points_earned":469,"phase":"task","trial_type":"horizons-task","trial_index":67,"time_elapsed":1235040,"internal_node_id":"0.0-63.0","task_version":"0.2"},{"response_times":[968.9949999998789,971.0049999998882,809.0000000002328,653.9949999998789,2251.005000000121,446.99999999976717,272,330.00000000023283,305.9949999998789,614.0049999998882],"keys_pressed":["rightarrow","rightarrow","leftarrow","leftarrow","leftarrow","leftarrow","leftarrow","leftarrow","leftarrow","leftarrow"],"horizon":10,"forced_choices":["rightarrow","rightarrow","leftarrow","leftarrow"],"right_color":"orange","left_color":"lightblue","left_mu":60,"right_mu":30,"left_numbers":[66,53,48,61,52,58,57,54,66,49],"right_numbers":[31,32,37,31,36,33,31,28,34,35],"points_earned":508,"phase":"task","trial_type":"horizons-task","trial_index":68,"time_elapsed":1244167,"internal_node_id":"0.0-64.0","task_version":"0.2"},{"response_times":[1011.9999999997672,918.0000000002328,947.9949999998789,1205,1276],"keys_pressed":["rightarrow","leftarrow","leftarrow","leftarrow","leftarrow"],"horizon":5,"forced_choices":["rightarrow","leftarrow","leftarrow","leftarrow"],"right_color":"orange","left_color":"lightblue","left_mu":60,"right_mu":30,"left_numbers":[64,55,55,62,49],"right_numbers":[29,22,41,15,30],"points_earned":250,"phase":"task","trial_type":"horizons-task","trial_index":69,"time_elapsed":1251031,"internal_node_id":"0.0-65.0","task_version":"0.2"},{"response_times":[995.9999999997672,746.9950000001118,909.0049999998882,882.9950000001118,3869,567.0050000001211,260.9949999998789,299,506,598],"keys_pressed":["leftarrow","rightarrow","rightarrow","leftarrow","leftarrow","leftarrow","leftarrow","leftarrow","leftarrow","leftarrow"],"horizon":10,"forced_choices":["leftarrow","rightarrow","rightarrow","leftarrow"],"right_color":"lightblue","left_color":"orange","left_mu":60,"right_mu":52,"left_numbers":[66,63,71,75,53,67,60,66,44,51],"right_numbers":[55,56,44,54,39,51,68,47,59,46],"points_earned":582,"phase":"task","trial_type":"horizons-task","trial_index":70,"time_elapsed":1262172,"internal_node_id":"0.0-66.0","task_version":"0.2"},{"response_times":[976.0050000001211,1120.9999999997672,671,1354,3835.000000000233,364,397.99999999976717,352.00000000023283,399.99999999976717,496.00000000023283],"keys_pressed":["leftarrow","rightarrow","rightarrow","leftarrow","leftarrow","leftarrow","leftarrow","leftarrow","leftarrow","leftarrow"],"horizon":10,"forced_choices":["leftarrow","rightarrow","rightarrow","leftarrow"],"right_color":"orange","left_color":"lightblue","left_mu":40,"right_mu":36,"left_numbers":[49,34,31,46,31,41,40,38,27,39],"right_numbers":[34,36,44,46,30,34,30,55,25,21],"points_earned":391,"phase":"task","trial_type":"horizons-task","trial_index":71,"time_elapsed":1273641,"internal_node_id":"0.0-67.0","task_version":"0.2"},{"response_times":[1105.0049999998882,623.9949999998789,845.0050000003539,1546,2802.999999999767,487.00000000023283,292.99999999976717,313.99500000011176,463.00499999988824,575],"keys_pressed":["leftarrow","leftarrow","leftarrow","rightarrow","leftarrow","leftarrow","leftarrow","leftarrow","leftarrow","leftarrow"],"horizon":10,"forced_choices":["leftarrow","leftarrow","leftarrow","rightarrow"],"right_color":"orange","left_color":"lightblue","left_mu":40,"right_mu":60,"left_numbers":[46,42,30,39,45,36,44,38,26,45],"right_numbers":[51,55,74,62,70,55,61,51,62,69],"points_earned":414,"phase":"task","trial_type":"horizons-task","trial_index":72,"time_elapsed":1284211,"internal_node_id":"0.0-68.0","task_version":"0.2"},{"response_times":[926.9949999998789,780,641.0050000001211,715.9999999997672,3822.000000000233,536.9949999998789,370.00499999988824,430.99500000011176,515,583.0049999998882],"keys_pressed":["rightarrow","leftarrow","leftarrow","rightarrow","rightarrow","rightarrow","rightarrow","rightarrow","rightarrow","rightarrow"],"horizon":10,"forced_choices":["rightarrow","leftarrow","leftarrow","rightarrow"],"right_color":"lightblue","left_color":"orange","left_mu":60,"right_mu":72,"left_numbers":[59,48,67,59,53,58,57,50,48,54],"right_numbers":[79,75,80,71,76,82,80,66,58,74],"points_earned":701,"phase":"task","trial_type":"horizons-task","trial_index":73,"time_elapsed":1295046,"internal_node_id":"0.0-69.0","task_version":"0.2"},{"response_times":[1030,826.9950000001118,717.9999999997672,719.0050000003539,2551.994999999879,431.00499999988824,304.00000000023283,315.9949999998789,412.00499999988824,464.99500000011176],"keys_pressed":["rightarrow","leftarrow","leftarrow","rightarrow","rightarrow","rightarrow","rightarrow","rightarrow","rightarrow","rightarrow"],"horizon":10,"forced_choices":["rightarrow","leftarrow","leftarrow","rightarrow"],"right_color":"orange","left_color":"lightblue","left_mu":40,"right_mu":70,"left_numbers":[36,52,41,49,36,44,38,51,35,43],"right_numbers":[72,88,72,62,66,62,73,74,63,67],"points_earned":632,"phase":"task","trial_type":"horizons-task","trial_index":74,"time_elapsed":1304334,"internal_node_id":"0.0-70.0","task_version":"0.2"},{"response_times":[1375,1062.005000000121,764.9999999997672,804.0000000002328,2676.999999999767,420,256.00000000023283,445,442.99999999976717,517.0000000002328],"keys_pressed":["rightarrow","leftarrow","rightarrow","leftarrow","rightarrow","rightarrow","rightarrow","rightarrow","rightarrow","rightarrow"],"horizon":10,"forced_choices":["rightarrow","leftarrow","rightarrow","leftarrow"],"right_color":"orange","left_color":"lightblue","left_mu":40,"right_mu":60,"left_numbers":[49,25,25,46,36,31,42,52,33,29],"right_numbers":[52,62,61,63,70,42,48,51,62,65],"points_earned":522,"phase":"task","trial_type":"horizons-task","trial_index":75,"time_elapsed":1314599,"internal_node_id":"0.0-71.0","task_version":"0.2"},{"response_times":[1109.0049999998882,951,901.9950000001118,889.0049999998882,2101.9950000001118],"keys_pressed":["rightarrow","rightarrow","leftarrow","rightarrow","rightarrow"],"horizon":5,"forced_choices":["rightarrow","rightarrow","leftarrow","rightarrow"],"right_color":"lightblue","left_color":"orange","left_mu":40,"right_mu":44,"left_numbers":[35,47,44,56,33],"right_numbers":[59,46,51,50,33],"points_earned":232,"phase":"task","trial_type":"horizons-task","trial_index":76,"time_elapsed":1322061,"internal_node_id":"0.0-72.0","task_version":"0.2"},{"response_times":[1123,754,827.0049999998882,835.9950000001118,3091],"keys_pressed":["leftarrow","rightarrow","leftarrow","rightarrow","leftarrow"],"horizon":5,"forced_choices":["leftarrow","rightarrow","leftarrow","rightarrow"],"right_color":"lightblue","left_color":"orange","left_mu":40,"right_mu":20,"left_numbers":[29,46,39,52,34],"right_numbers":[17,25,18,18,27],"points_earned":145,"phase":"task","trial_type":"horizons-task","trial_index":77,"time_elapsed":1330199,"internal_node_id":"0.0-73.0","task_version":"0.2"},{"response_times":[867.9950000001118,1150.0049999998882,741.9950000001118,797,2160.005000000121,406.99999999976717,275.00000000023283,392,475.99999999976717,581.9950000001118],"keys_pressed":["rightarrow","rightarrow","leftarrow","rightarrow","rightarrow","rightarrow","rightarrow","rightarrow","rightarrow","rightarrow"],"horizon":10,"forced_choices":["rightarrow","rightarrow","leftarrow","rightarrow"],"right_color":"lightblue","left_color":"orange","left_mu":60,"right_mu":52,"left_numbers":[60,63,62,70,67,65,66,66,76,61],"right_numbers":[51,43,44,44,60,63,57,55,47,59],"points_earned":541,"phase":"task","trial_type":"horizons-task","trial_index":78,"time_elapsed":1339549,"internal_node_id":"0.0-74.0","task_version":"0.2"},{"response_times":[1083,972,983,763,2684.0049999998882,383.99500000011176,320,302.0050000001211,394,481.9949999998789],"keys_pressed":["rightarrow","leftarrow","leftarrow","rightarrow","leftarrow","leftarrow","leftarrow","leftarrow","leftarrow","leftarrow"],"horizon":10,"forced_choices":["rightarrow","leftarrow","leftarrow","rightarrow"],"right_color":"orange","left_color":"lightblue","left_mu":60,"right_mu":40,"left_numbers":[60,56,65,61,64,54,59,52,49,64],"right_numbers":[52,48,50,35,41,51,31,36,42,28],"points_earned":550,"phase":"task","trial_type":"horizons-task","trial_index":79,"time_elapsed":1349431,"internal_node_id":"0.0-75.0","task_version":"0.2"},{"response_times":[1406.0000000002328,827.9949999998789,798,801,2546.005000000121,358.9949999998789,287.00499999988824,316.00000000023283,462,459],"keys_pressed":["leftarrow","rightarrow","leftarrow","leftarrow","leftarrow","leftarrow","leftarrow","leftarrow","leftarrow","leftarrow"],"horizon":10,"forced_choices":["leftarrow","rightarrow","leftarrow","leftarrow"],"right_color":"orange","left_color":"lightblue","left_mu":40,"right_mu":28,"left_numbers":[49,35,42,33,30,44,35,43,53,55],"right_numbers":[38,26,31,6,33,34,36,26,28,18],"points_earned":410,"phase":"task","trial_type":"horizons-task","trial_index":80,"time_elapsed":1359195,"internal_node_id":"0.0-76.0","task_version":"0.2"},{"response_times":[1094.994999999879,784.0049999998882,685.0000000002328,629,3802.999999999767,543.0000000002328,273.9949999998789,283.0050000001211,250,536.9949999998789],"keys_pressed":["rightarrow","rightarrow","leftarrow","leftarrow","leftarrow","leftarrow","leftarrow","leftarrow","leftarrow","leftarrow"],"horizon":10,"forced_choices":["rightarrow","rightarrow","leftarrow","leftarrow"],"right_color":"orange","left_color":"lightblue","left_mu":40,"right_mu":28,"left_numbers":[36,42,55,42,23,34,48,36,31,51],"right_numbers":[32,23,30,25,28,34,31,29,21,33],"points_earned":375,"phase":"task","trial_type":"horizons-task","trial_index":81,"time_elapsed":1369582,"internal_node_id":"0.0-77.0","task_version":"0.2"},{"response_times":[1167,725.0000000002328,805.9949999998789,694.0050000001211,1043.9999999997672],"keys_pressed":["leftarrow","rightarrow","rightarrow","rightarrow","rightarrow"],"horizon":5,"forced_choices":["leftarrow","rightarrow","rightarrow","rightarrow"],"right_color":"lightblue","left_color":"orange","left_mu":60,"right_mu":72,"left_numbers":[50,58,67,44,59],"right_numbers":[72,69,76,92,60],"points_earned":347,"phase":"task","trial_type":"horizons-task","trial_index":82,"time_elapsed":1375525,"internal_node_id":"0.0-78.0","task_version":"0.2"},{"response_times":[1021.9950000001118,1438.005000000121,843,818,1800],"keys_pressed":["rightarrow","rightarrow","leftarrow","rightarrow","rightarrow"],"horizon":5,"forced_choices":["rightarrow","rightarrow","leftarrow","rightarrow"],"right_color":"lightblue","left_color":"orange","left_mu":60,"right_mu":52,"left_numbers":[53,63,47,54,63],"right_numbers":[50,60,47,47,50],"points_earned":254,"phase":"task","trial_type":"horizons-task","trial_index":83,"time_elapsed":1382947,"internal_node_id":"0.0-79.0","task_version":"0.2"},{"response_times":[927,950,1012,841.9950000001118,1722.0049999998882],"keys_pressed":["rightarrow","leftarrow","leftarrow","rightarrow","rightarrow"],"horizon":5,"forced_choices":["rightarrow","leftarrow","leftarrow","rightarrow"],"right_color":"orange","left_color":"lightblue","left_mu":40,"right_mu":70,"left_numbers":[41,34,43,33,34],"right_numbers":[74,87,70,70,67],"points_earned":288,"phase":"task","trial_type":"horizons-task","trial_index":84,"time_elapsed":1389901,"internal_node_id":"0.0-80.0","task_version":"0.2"},{"response_times":[914.0049999998882,866,846,837,3011.000000000233,472,467.99999999976717,515.0000000002328,561.9949999998789,523.0050000001211],"keys_pressed":["rightarrow","rightarrow","rightarrow","leftarrow","rightarrow","rightarrow","rightarrow","rightarrow","rightarrow","rightarrow"],"horizon":10,"forced_choices":["rightarrow","rightarrow","rightarrow","leftarrow"],"right_color":"orange","left_color":"lightblue","left_mu":60,"right_mu":48,"left_numbers":[61,74,58,64,63,53,68,54,58,50],"right_numbers":[50,42,47,47,51,48,46,51,30,48],"points_earned":477,"phase":"task","trial_type":"horizons-task","trial_index":85,"time_elapsed":1400429,"internal_node_id":"0.0-81.0","task_version":"0.2"},{"response_times":[1219.0000000002328,673,683,665.9949999998789,1967.005000000121,429.99999999976717,320.99500000011176,336.0050000001211,504.9949999998789,484.0050000001211],"keys_pressed":["leftarrow","rightarrow","leftarrow","leftarrow","leftarrow","leftarrow","leftarrow","leftarrow","leftarrow","leftarrow"],"horizon":10,"forced_choices":["leftarrow","rightarrow","leftarrow","leftarrow"],"right_color":"orange","left_color":"lightblue","left_mu":40,"right_mu":48,"left_numbers":[45,54,52,47,36,20,51,32,40,44],"right_numbers":[38,52,53,35,33,40,46,57,37,53],"points_earned":419,"phase":"task","trial_type":"horizons-task","trial_index":86,"time_elapsed":1409214,"internal_node_id":"0.0-82.0","task_version":"0.2"},{"response_times":[1214,804.0050000001211,1539,1364,1985],"keys_pressed":["rightarrow","rightarrow","rightarrow","leftarrow","rightarrow"],"horizon":5,"forced_choices":["rightarrow","rightarrow","rightarrow","leftarrow"],"right_color":"lightblue","left_color":"orange","left_mu":60,"right_mu":90,"left_numbers":[45,56,62,47,61],"right_numbers":[80,76,92,90,90],"points_earned":385,"phase":"task","trial_type":"horizons-task","trial_index":87,"time_elapsed":1417627,"internal_node_id":"0.0-83.0","task_version":"0.2"},{"response_times":[806,873.9999999997672,807,847.9950000001118,2832.0049999998882],"keys_pressed":["rightarrow","leftarrow","rightarrow","leftarrow","rightarrow"],"horizon":5,"forced_choices":["rightarrow","leftarrow","rightarrow","leftarrow"],"right_color":"orange","left_color":"lightblue","left_mu":40,"right_mu":60,"left_numbers":[42,48,36,31,31],"right_numbers":[59,72,63,77,67],"points_earned":268,"phase":"task","trial_type":"horizons-task","trial_index":88,"time_elapsed":1425309,"internal_node_id":"0.0-84.0","task_version":"0.2"},{"response_times":[835,1038,1349,1632,1510],"keys_pressed":["rightarrow","rightarrow","rightarrow","leftarrow","rightarrow"],"horizon":5,"forced_choices":["rightarrow","rightarrow","rightarrow","leftarrow"],"right_color":"orange","left_color":"lightblue","left_mu":60,"right_mu":48,"left_numbers":[54,64,57,57,59],"right_numbers":[52,45,54,46,51],"points_earned":259,"phase":"task","trial_type":"horizons-task","trial_index":89,"time_elapsed":1433187,"internal_node_id":"0.0-85.0","task_version":"0.2"},{"response_times":[1099.0049999998882,938.9950000001118,930,636,3137,437,257.00499999988824,250.99500000011176,298.00499999988824,504.00000000023283],"keys_pressed":["rightarrow","leftarrow","leftarrow","rightarrow","leftarrow","leftarrow","leftarrow","leftarrow","leftarrow","leftarrow"],"horizon":10,"forced_choices":["rightarrow","leftarrow","leftarrow","rightarrow"],"right_color":"lightblue","left_color":"orange","left_mu":60,"right_mu":56,"left_numbers":[70,71,66,53,57,53,53,44,64,58],"right_numbers":[53,54,53,56,43,50,63,57,47,50],"points_earned":575,"phase":"task","trial_type":"horizons-task","trial_index":90,"time_elapsed":1443175,"internal_node_id":"0.0-86.0","task_version":"0.2"},{"response_times":[1169.9999999997672,1199,803.9950000001118,798.0050000001211,1726.994999999879],"keys_pressed":["leftarrow","leftarrow","rightarrow","leftarrow","leftarrow"],"horizon":5,"forced_choices":["leftarrow","leftarrow","rightarrow","leftarrow"],"right_color":"orange","left_color":"lightblue","left_mu":40,"right_mu":32,"left_numbers":[46,48,40,43,42],"right_numbers":[38,23,31,40,22],"points_earned":210,"phase":"task","trial_type":"horizons-task","trial_index":91,"time_elapsed":1450375,"internal_node_id":"0.0-87.0","task_version":"0.2"},{"rt":39847,"responses":{"age":"59","gender-categorical":"Female","gender-free-response":"","ethnicity":"Not Hispanic or Latino","race":["White"],"language":"Yes","fluency":"Very well"},"survey":"demographics","trial_type":"survey-demo","trial_index":92,"time_elapsed":1490222,"internal_node_id":"0.0-88.0","task_version":"0.2"},{"rt":44854.00000000023,"responses":{"difficulty":"4","fun":"5","clarity":"5","strategy":"nothing special","feedback":"no thank you"},"survey":"debrief","trial_type":"survey-debrief","trial_index":93,"time_elapsed":1535091,"internal_node_id":"0.0-89.0","task_version":"0.2","interactions":"[{\"event\":\"blur\",\"trial\":4,\"time\":438445},{\"event\":\"focus\",\"trial\":4,\"time\":440733},{\"event\":\"blur\",\"trial\":92,\"time\":1457114},{\"event\":\"focus\",\"trial\":92,\"time\":1458781}]"}]