[{"view_history":"[{\"page_index\":0,\"viewing_time\":4018}]","rt":4019,"trial_type":"instructions","trial_index":0,"time_elapsed":4025,"internal_node_id":"0.0-0.0","task_version":"0.2"},{"item_order":[3,9,0,5,2,12,8,7,1,10,11,6,4],"responses":{"Q04":"4","Q10":"2","Q01":"4","Q06":"1","Q03":"3","Q13":"4","Q09":"2","Q08":"4","Q02":"4","Q11":"4","Q12":"4","Q07":"3","Q05":"4"},"radio_events":[8111,13946,17399,25573,32840,36969,42101,44869,49768,50661,53377,58989,64660],"key_events":[],"mouse_events":[0,8111,13946,17399,25573,32840,36969,42101,44869,49488,49768,50661,53377,58989,64660,65251],"rt":65253,"survey":"ius12","trial_type":"survey-template","trial_index":1,"time_elapsed":69314,"internal_node_id":"0.0-1.0","task_version":"0.2"},{"item_order":[1,12,0,9,14,3,8,7,4,5,11,6,13,10,15,2],"responses":{"Q02":"2","Q13":"5","Q01":"5","Q10":"3","Q15":"5","Q04":"5","Q09":"1","Q08":"2","Q05":"1","Q06":"5","Q12":"5","Q07":"2","Q14":"2","Q11":"2","Q16":"5","Q03":"5"},"radio_events":[9387,12937,15778,22678,26667,30638,36370,41318,45268,58561,64566,70037,80768,87306,93128,99048,104288],"key_events":[],"mouse_events":[397,9387,12937,15778,22678,26667,30638,36370,41318,45268,58561,64566,70037,80768,87306,93128,99048,104288,104842],"rt":104842,"survey":"nfc","trial_type":"survey-template","trial_index":2,"time_elapsed":174182,"internal_node_id":"0.0-2.0","task_version":"0.2"},{"item_order":[16,9,13,1,3,14,12,11,10,7,4,6,0,15,5,2,8],"responses":{"Q17":"0","Q10":"3","Q14":"2","Q02":"3","Q04":"4","Q15":"3","Q13":"3","Q12":"4","Q11":"2","Q08":"3","Q05":"4","Q07":"3","Q01":"4","Q16":"4","Q06":"2","Q03":"3","Q09":"4"},"radio_events":[3926,10066,12836,31108,33845,36660,41636,43931,53057,55227,59376,63948,67125,72504,79537,84214,88101,92828],"key_events":[],"mouse_events":[3926,10066,12836,31108,33845,36660,41636,43931,53057,55227,59376,63237,63948,67125,72504,79537,84214,87356,87696,88101,92828,93543],"rt":93543,"survey":"pswq","trial_type":"survey-template","trial_index":3,"time_elapsed":267740,"internal_node_id":"0.0-3.0","task_version":"0.2"},{"view_history":"[{\"page_index\":0,\"viewing_time\":3882},{\"page_index\":1,\"viewing_time\":5827},{\"page_index\":2,\"viewing_time\":16846},{\"page_index\":3,\"viewing_time\":9681},{\"page_index\":4,\"viewing_time\":11549},{\"page_index\":5,\"viewing_time\":4631},{\"page_index\":6,\"viewing_time\":5849},{\"page_index\":7,\"viewing_time\":10631},{\"page_index\":8,\"viewing_time\":8702},{\"page_index\":9,\"viewing_time\":8199}]","rt":85798,"trial_type":"instructions","trial_index":4,"time_elapsed":353541,"internal_node_id":"0.0-4.0-0.0","task_version":"0.2"},{"response_times":[1776,1218,548,990,6129],"keys_pressed":["rightarrow","leftarrow","rightarrow","rightarrow","leftarrow"],"horizon":5,"forced_choices":["rightarrow","leftarrow","rightarrow","rightarrow"],"right_color":"lightblue","left_color":"orange","left_mu":40,"right_mu":20,"left_numbers":[45,42,40,31,34],"right_numbers":[13,12,24,18,28],"points_earned":131,"phase":"practice","trial_type":"horizons-task","trial_index":5,"time_elapsed":365739,"internal_node_id":"0.0-4.0-1.0","task_version":"0.2"},{"response_times":[1761,1916,1034,556,15148,3020,3649,3431,758,1031],"keys_pressed":["leftarrow","leftarrow","rightarrow","rightarrow","rightarrow","rightarrow","rightarrow","rightarrow","rightarrow","rightarrow"],"horizon":10,"forced_choices":["leftarrow","leftarrow","rightarrow","rightarrow"],"right_color":"orange","left_color":"lightblue","left_mu":60,"right_mu":70,"left_numbers":[63,57,73,61,64,56,56,62,66,76],"right_numbers":[65,67,56,68,59,50,65,65,74,76],"points_earned":633,"phase":"practice","trial_type":"horizons-task","trial_index":6,"time_elapsed":399562,"internal_node_id":"0.0-4.0-2.0","task_version":"0.2"},{"view_history":"[{\"page_index\":0,\"viewing_time\":2466},{\"page_index\":1,\"viewing_time\":3144},{\"page_index\":2,\"viewing_time\":4265},{\"page_index\":3,\"viewing_time\":2210}]","rt":12085,"trial_type":"instructions","trial_index":7,"time_elapsed":411649,"internal_node_id":"0.0-4.0-3.0","task_version":"0.2"},{"responses":["true","false","true"],"num_errors":0,"rt":20504,"trial_type":"horizons-comprehension","trial_index":8,"time_elapsed":432165,"internal_node_id":"0.0-4.0-4.0","task_version":"0.2"},{"trial_type":"call-function","trial_index":9,"time_elapsed":432174,"internal_node_id":"0.0-5.0","task_version":"0.2"},{"view_history":"[{\"page_index\":0,\"viewing_time\":2063},{\"page_index\":1,\"viewing_time\":5560}]","rt":7623,"trial_type":"instructions","trial_index":10,"time_elapsed":439799,"internal_node_id":"0.0-6.0","task_version":"0.2"},{"response_times":[1396,1624,1512,638,6220],"keys_pressed":["rightarrow","rightarrow","leftarrow","rightarrow","rightarrow"],"horizon":5,"forced_choices":["rightarrow","rightarrow","leftarrow","rightarrow"],"right_color":"orange","left_color":"lightblue","left_mu":60,"right_mu":40,"left_numbers":[64,48,53,63,52],"right_numbers":[40,39,37,25,50],"points_earned":207,"phase":"task","trial_type":"horizons-task","trial_index":11,"time_elapsed":452712,"internal_node_id":"0.0-7.0","task_version":"0.2"},{"response_times":[1117,1489,1743,1117,10110,1812,788,1590,502,657],"keys_pressed":["rightarrow","rightarrow","leftarrow","leftarrow","rightarrow","rightarrow","rightarrow","rightarrow","rightarrow","rightarrow"],"horizon":10,"forced_choices":["rightarrow","rightarrow","leftarrow","leftarrow"],"right_color":"lightblue","left_color":"orange","left_mu":60,"right_mu":56,"left_numbers":[67,65,59,55,59,45,47,45,61,55],"right_numbers":[57,64,59,52,75,56,48,62,53,61],"points_earned":590,"phase":"task","trial_type":"horizons-task","trial_index":12,"time_elapsed":475156,"internal_node_id":"0.0-8.0","task_version":"0.2"},{"response_times":[942,2341,1215,842,17391,920,649,540,719,625],"keys_pressed":["leftarrow","rightarrow","rightarrow","rightarrow","leftarrow","leftarrow","leftarrow","leftarrow","leftarrow","leftarrow"],"horizon":10,"forced_choices":["leftarrow","rightarrow","rightarrow","rightarrow"],"right_color":"lightblue","left_color":"orange","left_mu":40,"right_mu":20,"left_numbers":[27,45,41,38,29,47,32,26,29,32],"right_numbers":[25,32,12,14,23,23,15,23,5,20],"points_earned":280,"phase":"task","trial_type":"horizons-task","trial_index":13,"time_elapsed":502866,"internal_node_id":"0.0-9.0","task_version":"0.2"},{"response_times":[1314,780,590,592,3755,551,565,527,472,504],"keys_pressed":["rightarrow","leftarrow","rightarrow","rightarrow","rightarrow","rightarrow","rightarrow","rightarrow","rightarrow","rightarrow"],"horizon":10,"forced_choices":["rightarrow","leftarrow","rightarrow","rightarrow"],"right_color":"orange","left_color":"lightblue","left_mu":40,"right_mu":48,"left_numbers":[44,32,40,30,44,44,37,36,34,46],"right_numbers":[57,51,56,42,42,51,40,52,47,46],"points_earned":465,"phase":"task","trial_type":"horizons-task","trial_index":14,"time_elapsed":514050,"internal_node_id":"0.0-10.0","task_version":"0.2"},{"response_times":[738,661,467,464,387,2113,6131,489,608,649],"keys_pressed":["leftarrow","leftarrow","rightarrow","leftarrow","rightarrow","leftarrow","leftarrow","leftarrow","leftarrow","leftarrow"],"horizon":10,"forced_choices":["leftarrow","leftarrow","rightarrow","leftarrow"],"right_color":"orange","left_color":"lightblue","left_mu":60,"right_mu":48,"left_numbers":[58,53,63,47,55,55,62,59,56,65],"right_numbers":[61,46,48,59,39,50,48,34,52,52],"points_earned":542,"phase":"task","trial_type":"horizons-task","trial_index":15,"time_elapsed":528286,"internal_node_id":"0.0-11.0","task_version":"0.2"},{"response_times":[2122,619,1308,651,6599,5505,2075,680,4301,2610],"keys_pressed":["leftarrow","rightarrow","rightarrow","leftarrow","leftarrow","rightarrow","rightarrow","rightarrow","leftarrow","leftarrow"],"horizon":10,"forced_choices":["leftarrow","rightarrow","rightarrow","leftarrow"],"right_color":"lightblue","left_color":"orange","left_mu":60,"right_mu":52,"left_numbers":[62,65,52,67,46,57,72,63,53,50],"right_numbers":[51,67,54,61,61,55,39,33,53,47],"points_earned":526,"phase":"task","trial_type":"horizons-task","trial_index":16,"time_elapsed":556287,"internal_node_id":"0.0-12.0","task_version":"0.2"},{"response_times":[2875,2976,1991,1760,3395],"keys_pressed":["rightarrow","rightarrow","rightarrow","leftarrow","rightarrow"],"horizon":5,"forced_choices":["rightarrow","rightarrow","rightarrow","leftarrow"],"right_color":"lightblue","left_color":"orange","left_mu":60,"right_mu":90,"left_numbers":[63,62,52,56,63],"right_numbers":[84,97,77,93,87],"points_earned":401,"phase":"task","trial_type":"horizons-task","trial_index":17,"time_elapsed":570806,"internal_node_id":"0.0-13.0","task_version":"0.2"},{"response_times":[3332,1342,1307,591,2250,1240,1429,2381,698,603],"keys_pressed":["leftarrow","rightarrow","leftarrow","rightarrow","leftarrow","leftarrow","leftarrow","leftarrow","leftarrow","leftarrow"],"horizon":10,"forced_choices":["leftarrow","rightarrow","leftarrow","rightarrow"],"right_color":"lightblue","left_color":"orange","left_mu":40,"right_mu":20,"left_numbers":[46,45,47,45,59,30,36,43,55,37],"right_numbers":[11,19,9,19,24,8,32,27,28,13],"points_earned":391,"phase":"task","trial_type":"horizons-task","trial_index":18,"time_elapsed":587496,"internal_node_id":"0.0-14.0","task_version":"0.2"},{"response_times":[996,1160,1048,1012,2581],"keys_pressed":["rightarrow","rightarrow","rightarrow","leftarrow","rightarrow"],"horizon":5,"forced_choices":["rightarrow","rightarrow","rightarrow","leftarrow"],"right_color":"lightblue","left_color":"orange","left_mu":60,"right_mu":52,"left_numbers":[61,55,56,46,52],"right_numbers":[58,59,59,54,56],"points_earned":278,"phase":"task","trial_type":"horizons-task","trial_index":19,"time_elapsed":595811,"internal_node_id":"0.0-15.0","task_version":"0.2"},{"response_times":[806,1952,597,859,2251],"keys_pressed":["leftarrow","rightarrow","leftarrow","rightarrow","leftarrow"],"horizon":5,"forced_choices":["leftarrow","rightarrow","leftarrow","rightarrow"],"right_color":"orange","left_color":"lightblue","left_mu":60,"right_mu":30,"left_numbers":[50,65,64,46,46],"right_numbers":[25,23,24,48,25],"points_earned":231,"phase":"task","trial_type":"horizons-task","trial_index":20,"time_elapsed":603807,"internal_node_id":"0.0-16.0","task_version":"0.2"},{"response_times":[722,444,1018,518,6152],"keys_pressed":["leftarrow","rightarrow","rightarrow","leftarrow","rightarrow"],"horizon":5,"forced_choices":["leftarrow","rightarrow","rightarrow","leftarrow"],"right_color":"lightblue","left_color":"orange","left_mu":40,"right_mu":44,"left_numbers":[39,33,36,39,38],"right_numbers":[43,59,38,42,33],"points_earned":208,"phase":"task","trial_type":"horizons-task","trial_index":21,"time_elapsed":614189,"internal_node_id":"0.0-17.0","task_version":"0.2"},{"response_times":[822,590,800,550,4521],"keys_pressed":["leftarrow","rightarrow","rightarrow","leftarrow","rightarrow"],"horizon":5,"forced_choices":["leftarrow","rightarrow","rightarrow","leftarrow"],"right_color":"orange","left_color":"lightblue","left_mu":60,"right_mu":64,"left_numbers":[58,66,61,62,70],"right_numbers":[63,68,69,77,66],"points_earned":323,"phase":"task","trial_type":"horizons-task","trial_index":22,"time_elapsed":622986,"internal_node_id":"0.0-18.0","task_version":"0.2"},{"response_times":[883,1192,827,509,3651,1350,1498,1263,990,569],"keys_pressed":["rightarrow","rightarrow","rightarrow","leftarrow","rightarrow","rightarrow","rightarrow","rightarrow","rightarrow","rightarrow"],"horizon":10,"forced_choices":["rightarrow","rightarrow","rightarrow","leftarrow"],"right_color":"lightblue","left_color":"orange","left_mu":60,"right_mu":90,"left_numbers":[68,63,63,58,64,53,64,69,60,67],"right_numbers":[77,88,106,90,98,88,100,82,85,96],"points_earned":878,"phase":"task","trial_type":"horizons-task","trial_index":23,"time_elapsed":637240,"internal_node_id":"0.0-19.0","task_version":"0.2"},{"response_times":[950,1583,1096,850,2120],"keys_pressed":["leftarrow","leftarrow","leftarrow","rightarrow","leftarrow"],"horizon":5,"forced_choices":["leftarrow","leftarrow","leftarrow","rightarrow"],"right_color":"lightblue","left_color":"orange","left_mu":40,"right_mu":44,"left_numbers":[41,50,39,40,42],"right_numbers":[52,43,62,35,30],"points_earned":207,"phase":"task","trial_type":"horizons-task","trial_index":24,"time_elapsed":645356,"internal_node_id":"0.0-20.0","task_version":"0.2"},{"response_times":[863,1338,619,603,2498,1662,1636,1859,821,519],"keys_pressed":["leftarrow","rightarrow","leftarrow","leftarrow","leftarrow","leftarrow","leftarrow","leftarrow","leftarrow","leftarrow"],"horizon":10,"forced_choices":["leftarrow","rightarrow","leftarrow","leftarrow"],"right_color":"orange","left_color":"lightblue","left_mu":40,"right_mu":10,"left_numbers":[33,39,41,38,40,45,29,49,42,38],"right_numbers":[0,19,2,10,0,8,12,0,4,10],"points_earned":374,"phase":"task","trial_type":"horizons-task","trial_index":25,"time_elapsed":659297,"internal_node_id":"0.0-21.0","task_version":"0.2"},{"response_times":[805,568,680,430,2916,5082,1108,797,476,427],"keys_pressed":["leftarrow","rightarrow","leftarrow","rightarrow","rightarrow","rightarrow","rightarrow","rightarrow","rightarrow","rightarrow"],"horizon":10,"forced_choices":["leftarrow","rightarrow","leftarrow","rightarrow"],"right_color":"orange","left_color":"lightblue","left_mu":40,"right_mu":52,"left_numbers":[39,30,34,33,40,33,44,40,47,50],"right_numbers":[49,54,70,53,51,46,54,63,51,52],"points_earned":497,"phase":"task","trial_type":"horizons-task","trial_index":26,"time_elapsed":674119,"internal_node_id":"0.0-22.0","task_version":"0.2"},{"response_times":[851,1077,1918,875,1261],"keys_pressed":["rightarrow","leftarrow","leftarrow","leftarrow","leftarrow"],"horizon":5,"forced_choices":["rightarrow","leftarrow","leftarrow","leftarrow"],"right_color":"orange","left_color":"lightblue","left_mu":60,"right_mu":30,"left_numbers":[54,54,60,59,57],"right_numbers":[26,28,43,31,33],"points_earned":256,"phase":"task","trial_type":"horizons-task","trial_index":27,"time_elapsed":681638,"internal_node_id":"0.0-23.0","task_version":"0.2"},{"response_times":[874,3038,1187,512,5725,67208,695,521,480,467],"keys_pressed":["rightarrow","leftarrow","leftarrow","leftarrow","rightarrow","rightarrow","rightarrow","rightarrow","rightarrow","rightarrow"],"horizon":10,"forced_choices":["rightarrow","leftarrow","leftarrow","leftarrow"],"right_color":"orange","left_color":"lightblue","left_mu":60,"right_mu":72,"left_numbers":[40,62,66,64,58,58,61,48,75,64],"right_numbers":[74,72,79,67,69,66,75,76,73,71],"points_earned":696,"phase":"task","trial_type":"horizons-task","trial_index":28,"time_elapsed":763866,"internal_node_id":"0.0-24.0","task_version":"0.2"},{"response_times":[1304,820,527,1064,2919],"keys_pressed":["leftarrow","leftarrow","rightarrow","rightarrow","leftarrow"],"horizon":5,"forced_choices":["leftarrow","leftarrow","rightarrow","rightarrow"],"right_color":"orange","left_color":"lightblue","left_mu":60,"right_mu":48,"left_numbers":[75,62,61,69,64],"right_numbers":[42,57,56,52,49],"points_earned":309,"phase":"task","trial_type":"horizons-task","trial_index":29,"time_elapsed":772027,"internal_node_id":"0.0-25.0","task_version":"0.2"},{"response_times":[734,517,511,459,3263,490,593,505,550,479],"keys_pressed":["rightarrow","rightarrow","leftarrow","rightarrow","rightarrow","rightarrow","rightarrow","rightarrow","rightarrow","rightarrow"],"horizon":10,"forced_choices":["rightarrow","rightarrow","leftarrow","rightarrow"],"right_color":"orange","left_color":"lightblue","left_mu":60,"right_mu":80,"left_numbers":[60,60,58,65,58,63,59,56,48,54],"right_numbers":[84,72,73,88,63,85,83,77,70,70],"points_earned":750,"phase":"task","trial_type":"horizons-task","trial_index":30,"time_elapsed":781665,"internal_node_id":"0.0-26.0","task_version":"0.2"},{"response_times":[602,460,429,420,9839],"keys_pressed":["leftarrow","rightarrow","leftarrow","rightarrow","leftarrow"],"horizon":5,"forced_choices":["leftarrow","rightarrow","leftarrow","rightarrow"],"right_color":"orange","left_color":"lightblue","left_mu":60,"right_mu":72,"left_numbers":[66,56,76,47,58],"right_numbers":[69,80,57,69,78],"points_earned":349,"phase":"task","trial_type":"horizons-task","trial_index":31,"time_elapsed":794929,"internal_node_id":"0.0-27.0","task_version":"0.2"},{"response_times":[765,680,538,471,2680],"keys_pressed":["rightarrow","rightarrow","leftarrow","rightarrow","rightarrow"],"horizon":5,"forced_choices":["rightarrow","rightarrow","leftarrow","rightarrow"],"right_color":"orange","left_color":"lightblue","left_mu":60,"right_mu":64,"left_numbers":[53,55,56,64,58],"right_numbers":[63,69,69,61,70],"points_earned":319,"phase":"task","trial_type":"horizons-task","trial_index":32,"time_elapsed":801589,"internal_node_id":"0.0-28.0","task_version":"0.2"},{"response_times":[1029,1077,1386,450,1310],"keys_pressed":["rightarrow","leftarrow","leftarrow","rightarrow","leftarrow"],"horizon":5,"forced_choices":["rightarrow","leftarrow","leftarrow","rightarrow"],"right_color":"orange","left_color":"lightblue","left_mu":40,"right_mu":10,"left_numbers":[45,30,40,39,41],"right_numbers":[4,21,20,15,20],"points_earned":130,"phase":"task","trial_type":"horizons-task","trial_index":33,"time_elapsed":808377,"internal_node_id":"0.0-29.0","task_version":"0.2"},{"response_times":[710,681,425,534,2016,1951,545,503,370,641],"keys_pressed":["rightarrow","leftarrow","rightarrow","leftarrow","leftarrow","leftarrow","leftarrow","leftarrow","leftarrow","leftarrow"],"horizon":10,"forced_choices":["rightarrow","leftarrow","rightarrow","leftarrow"],"right_color":"lightblue","left_color":"orange","left_mu":40,"right_mu":32,"left_numbers":[57,47,53,49,41,46,55,33,42,33],"right_numbers":[35,26,34,24,32,33,37,39,37,20],"points_earned":415,"phase":"task","trial_type":"horizons-task","trial_index":34,"time_elapsed":818287,"internal_node_id":"0.0-30.0","task_version":"0.2"},{"response_times":[707,463,690,730,6820],"keys_pressed":["leftarrow","rightarrow","rightarrow","rightarrow","leftarrow"],"horizon":5,"forced_choices":["leftarrow","rightarrow","rightarrow","rightarrow"],"right_color":"lightblue","left_color":"orange","left_mu":40,"right_mu":20,"left_numbers":[32,36,55,39,19],"right_numbers":[18,28,40,23,23],"points_earned":142,"phase":"task","trial_type":"horizons-task","trial_index":35,"time_elapsed":829242,"internal_node_id":"0.0-31.0","task_version":"0.2"},{"response_times":[721,600,469,421,3959,11291,999,449,214,537],"keys_pressed":["leftarrow","leftarrow","rightarrow","leftarrow","leftarrow","leftarrow","leftarrow","leftarrow","leftarrow","leftarrow"],"horizon":10,"forced_choices":["leftarrow","leftarrow","rightarrow","leftarrow"],"right_color":"lightblue","left_color":"orange","left_mu":40,"right_mu":32,"left_numbers":[32,43,38,47,28,41,50,29,34,39],"right_numbers":[27,29,30,39,33,31,42,46,22,40],"points_earned":373,"phase":"task","trial_type":"horizons-task","trial_index":36,"time_elapsed":850439,"internal_node_id":"0.0-32.0","task_version":"0.2"},{"response_times":[619,501,669,2450,4249,406,1117,529,515,501],"keys_pressed":["leftarrow","leftarrow","leftarrow","rightarrow","leftarrow","leftarrow","leftarrow","leftarrow","leftarrow","leftarrow"],"horizon":10,"forced_choices":["leftarrow","leftarrow","leftarrow","rightarrow"],"right_color":"lightblue","left_color":"orange","left_mu":40,"right_mu":44,"left_numbers":[38,39,43,41,37,44,53,42,24,44],"right_numbers":[51,37,49,33,51,42,51,37,31,49],"points_earned":397,"phase":"task","trial_type":"horizons-task","trial_index":37,"time_elapsed":863515,"internal_node_id":"0.0-33.0","task_version":"0.2"},{"response_times":[714,842,414,655,3019],"keys_pressed":["rightarrow","rightarrow","leftarrow","leftarrow","rightarrow"],"horizon":5,"forced_choices":["rightarrow","rightarrow","leftarrow","leftarrow"],"right_color":"orange","left_color":"lightblue","left_mu":40,"right_mu":48,"left_numbers":[46,21,41,34,27],"right_numbers":[43,48,41,44,68],"points_earned":234,"phase":"task","trial_type":"horizons-task","trial_index":38,"time_elapsed":870676,"internal_node_id":"0.0-34.0","task_version":"0.2"},{"response_times":[738,450,541,688,2118],"keys_pressed":["rightarrow","leftarrow","leftarrow","leftarrow","leftarrow"],"horizon":5,"forced_choices":["rightarrow","leftarrow","leftarrow","leftarrow"],"right_color":"lightblue","left_color":"orange","left_mu":60,"right_mu":68,"left_numbers":[63,81,64,57,63],"right_numbers":[56,59,67,68,74],"points_earned":321,"phase":"task","trial_type":"horizons-task","trial_index":39,"time_elapsed":876747,"internal_node_id":"0.0-35.0","task_version":"0.2"},{"response_times":[566,419,441,530,6179],"keys_pressed":["leftarrow","rightarrow","leftarrow","leftarrow","rightarrow"],"horizon":5,"forced_choices":["leftarrow","rightarrow","leftarrow","leftarrow"],"right_color":"orange","left_color":"lightblue","left_mu":40,"right_mu":52,"left_numbers":[43,38,54,49,41],"right_numbers":[64,54,39,48,50],"points_earned":250,"phase":"task","trial_type":"horizons-task","trial_index":40,"time_elapsed":886405,"internal_node_id":"0.0-36.0","task_version":"0.2"},{"response_times":[1332,916,706,717,4672],"keys_pressed":["rightarrow","leftarrow","rightarrow","leftarrow","rightarrow"],"horizon":5,"forced_choices":["rightarrow","leftarrow","rightarrow","leftarrow"],"right_color":"lightblue","left_color":"orange","left_mu":60,"right_mu":68,"left_numbers":[71,83,43,57,54],"right_numbers":[86,57,67,80,61],"points_earned":354,"phase":"task","trial_type":"horizons-task","trial_index":41,"time_elapsed":896265,"internal_node_id":"0.0-37.0","task_version":"0.2"},{"response_times":[2438,872,987,550,5610],"keys_pressed":["leftarrow","leftarrow","leftarrow","rightarrow","leftarrow"],"horizon":5,"forced_choices":["leftarrow","leftarrow","leftarrow","rightarrow"],"right_color":"lightblue","left_color":"orange","left_mu":40,"right_mu":36,"left_numbers":[40,35,51,48,41],"right_numbers":[31,41,26,36,44],"points_earned":203,"phase":"task","trial_type":"horizons-task","trial_index":42,"time_elapsed":908245,"internal_node_id":"0.0-38.0","task_version":"0.2"},{"response_times":[658,508,441,798,7403,1370,512,509,492,489],"keys_pressed":["leftarrow","rightarrow","leftarrow","leftarrow","rightarrow","rightarrow","rightarrow","rightarrow","rightarrow","rightarrow"],"horizon":10,"forced_choices":["leftarrow","rightarrow","leftarrow","leftarrow"],"right_color":"orange","left_color":"lightblue","left_mu":40,"right_mu":52,"left_numbers":[31,40,42,37,41,50,32,31,46,33],"right_numbers":[51,46,56,55,57,62,43,62,47,45],"points_earned":472,"phase":"task","trial_type":"horizons-task","trial_index":43,"time_elapsed":922945,"internal_node_id":"0.0-39.0","task_version":"0.2"},{"response_times":[718,408,770,761,5294],"keys_pressed":["rightarrow","leftarrow","leftarrow","rightarrow","rightarrow"],"horizon":5,"forced_choices":["rightarrow","leftarrow","leftarrow","rightarrow"],"right_color":"lightblue","left_color":"orange","left_mu":60,"right_mu":90,"left_numbers":[51,64,60,55,50],"right_numbers":[95,94,100,81,89],"points_earned":389,"phase":"task","trial_type":"horizons-task","trial_index":44,"time_elapsed":932416,"internal_node_id":"0.0-40.0","task_version":"0.2"},{"response_times":[622,338,501,519,2479,610,440,220,353,386],"keys_pressed":["rightarrow","leftarrow","rightarrow","leftarrow","rightarrow","rightarrow","rightarrow","rightarrow","rightarrow","rightarrow"],"horizon":10,"forced_choices":["rightarrow","leftarrow","rightarrow","leftarrow"],"right_color":"lightblue","left_color":"orange","left_mu":60,"right_mu":68,"left_numbers":[60,41,69,55,53,63,61,53,71,70],"right_numbers":[72,84,78,75,73,66,64,52,66,56],"points_earned":623,"phase":"task","trial_type":"horizons-task","trial_index":45,"time_elapsed":940405,"internal_node_id":"0.0-41.0","task_version":"0.2"},{"response_times":[1137,910,481,622,2208],"keys_pressed":["rightarrow","rightarrow","leftarrow","leftarrow","leftarrow"],"horizon":5,"forced_choices":["rightarrow","rightarrow","leftarrow","leftarrow"],"right_color":"orange","left_color":"lightblue","left_mu":60,"right_mu":40,"left_numbers":[36,67,58,70,44],"right_numbers":[39,31,31,42,39],"points_earned":242,"phase":"task","trial_type":"horizons-task","trial_index":46,"time_elapsed":947286,"internal_node_id":"0.0-42.0","task_version":"0.2"},{"response_times":[626,425,472,465,1900],"keys_pressed":["leftarrow","rightarrow","leftarrow","rightarrow","leftarrow"],"horizon":5,"forced_choices":["leftarrow","rightarrow","leftarrow","rightarrow"],"right_color":"lightblue","left_color":"orange","left_mu":40,"right_mu":20,"left_numbers":[42,34,41,54,38],"right_numbers":[5,23,24,20,28],"points_earned":164,"phase":"task","trial_type":"horizons-task","trial_index":47,"time_elapsed":952705,"internal_node_id":"0.0-43.0","task_version":"0.2"},{"response_times":[637,272,4004,4182,3021,759,433,408,249,470],"keys_pressed":["rightarrow","leftarrow","leftarrow","leftarrow","rightarrow","rightarrow","rightarrow","rightarrow","rightarrow","rightarrow"],"horizon":10,"forced_choices":["rightarrow","leftarrow","leftarrow","leftarrow"],"right_color":"lightblue","left_color":"orange","left_mu":60,"right_mu":68,"left_numbers":[62,69,57,58,62,57,56,52,62,54],"right_numbers":[79,57,64,75,70,63,82,56,68,77],"points_earned":679,"phase":"task","trial_type":"horizons-task","trial_index":48,"time_elapsed":968665,"internal_node_id":"0.0-44.0","task_version":"0.2"},{"response_times":[544,470,980,697,3584],"keys_pressed":["leftarrow","rightarrow","rightarrow","leftarrow","leftarrow"],"horizon":5,"forced_choices":["leftarrow","rightarrow","rightarrow","leftarrow"],"right_color":"lightblue","left_color":"orange","left_mu":60,"right_mu":52,"left_numbers":[69,59,62,60,58],"right_numbers":[61,69,50,48,63],"points_earned":306,"phase":"task","trial_type":"horizons-task","trial_index":49,"time_elapsed":976455,"internal_node_id":"0.0-45.0","task_version":"0.2"},{"response_times":[660,973,459,531,3069],"keys_pressed":["leftarrow","leftarrow","rightarrow","rightarrow","rightarrow"],"horizon":5,"forced_choices":["leftarrow","leftarrow","rightarrow","rightarrow"],"right_color":"orange","left_color":"lightblue","left_mu":60,"right_mu":80,"left_numbers":[58,62,81,72,52],"right_numbers":[84,89,88,66,83],"points_earned":357,"phase":"task","trial_type":"horizons-task","trial_index":50,"time_elapsed":983665,"internal_node_id":"0.0-46.0","task_version":"0.2"},{"view_history":"[{\"page_index\":0,\"viewing_time\":3664},{\"page_index\":1,\"viewing_time\":3921}]","rt":7585,"trial_type":"instructions","trial_index":51,"time_elapsed":991252,"internal_node_id":"0.0-47.0","task_version":"0.2"},{"response_times":[1083,1658,662,960,6549,2419,20145,3723,959,404],"keys_pressed":["rightarrow","leftarrow","leftarrow","rightarrow","rightarrow","leftarrow","leftarrow","leftarrow","leftarrow","leftarrow"],"horizon":10,"forced_choices":["rightarrow","leftarrow","leftarrow","rightarrow"],"right_color":"lightblue","left_color":"orange","left_mu":40,"right_mu":36,"left_numbers":[35,39,47,41,47,34,33,42,33,40],"right_numbers":[43,32,38,46,29,40,41,37,44,34],"points_earned":386,"phase":"task","trial_type":"horizons-task","trial_index":52,"time_elapsed":1031345,"internal_node_id":"0.0-48.0","task_version":"0.2"},{"response_times":[623,390,461,850,4988,642,548,550,549,400],"keys_pressed":["leftarrow","rightarrow","leftarrow","rightarrow","rightarrow","rightarrow","rightarrow","rightarrow","rightarrow","rightarrow"],"horizon":10,"forced_choices":["leftarrow","rightarrow","leftarrow","rightarrow"],"right_color":"orange","left_color":"lightblue","left_mu":60,"right_mu":72,"left_numbers":[59,58,46,50,49,55,70,60,58,51],"right_numbers":[79,61,69,68,67,66,82,77,72,74],"points_earned":672,"phase":"task","trial_type":"horizons-task","trial_index":53,"time_elapsed":1042870,"internal_node_id":"0.0-49.0","task_version":"0.2"},{"response_times":[510,481,1431,738,8357,3544,1387,459,1306,385],"keys_pressed":["leftarrow","rightarrow","rightarrow","leftarrow","rightarrow","leftarrow","leftarrow","leftarrow","leftarrow","leftarrow"],"horizon":10,"forced_choices":["leftarrow","rightarrow","rightarrow","leftarrow"],"right_color":"lightblue","left_color":"orange","left_mu":40,"right_mu":44,"left_numbers":[48,37,40,41,40,46,34,37,38,39],"right_numbers":[52,42,43,55,37,46,46,38,37,41],"points_earned":405,"phase":"task","trial_type":"horizons-task","trial_index":54,"time_elapsed":1062997,"internal_node_id":"0.0-50.0","task_version":"0.2"},{"response_times":[1568,1031,561,509,1991,560,420,318,310,449],"keys_pressed":["rightarrow","leftarrow","leftarrow","rightarrow","leftarrow","leftarrow","leftarrow","leftarrow","leftarrow","leftarrow"],"horizon":10,"forced_choices":["rightarrow","leftarrow","leftarrow","rightarrow"],"right_color":"orange","left_color":"lightblue","left_mu":40,"right_mu":10,"left_numbers":[48,48,46,40,36,52,49,44,34,28],"right_numbers":[4,7,24,1,25,0,2,3,31,13],"points_earned":342,"phase":"task","trial_type":"horizons-task","trial_index":55,"time_elapsed":1072235,"internal_node_id":"0.0-51.0","task_version":"0.2"},{"response_times":[659,397,491,672,2407],"keys_pressed":["rightarrow","leftarrow","leftarrow","leftarrow","rightarrow"],"horizon":5,"forced_choices":["rightarrow","leftarrow","leftarrow","leftarrow"],"right_color":"orange","left_color":"lightblue","left_mu":60,"right_mu":72,"left_numbers":[54,54,66,48,62],"right_numbers":[68,65,72,85,69],"points_earned":305,"phase":"task","trial_type":"horizons-task","trial_index":56,"time_elapsed":1078390,"internal_node_id":"0.0-52.0","task_version":"0.2"},{"response_times":[870,2131,400,451,3302],"keys_pressed":["leftarrow","rightarrow","leftarrow","rightarrow","rightarrow"],"horizon":5,"forced_choices":["leftarrow","rightarrow","leftarrow","rightarrow"],"right_color":"orange","left_color":"lightblue","left_mu":40,"right_mu":52,"left_numbers":[42,30,36,40,46],"right_numbers":[50,56,42,73,52],"points_earned":259,"phase":"task","trial_type":"horizons-task","trial_index":57,"time_elapsed":1087054,"internal_node_id":"0.0-53.0","task_version":"0.2"},{"response_times":[686,401,458,581,419,5129,270,209,151,399],"keys_pressed":["rightarrow","leftarrow","rightarrow","rightarrow","leftarrow","leftarrow","leftarrow","leftarrow","leftarrow","leftarrow"],"horizon":10,"forced_choices":["rightarrow","leftarrow","rightarrow","rightarrow"],"right_color":"lightblue","left_color":"orange","left_mu":40,"right_mu":28,"left_numbers":[43,44,32,46,43,46,47,32,38,42],"right_numbers":[18,27,7,27,19,20,21,14,17,27],"points_earned":344,"phase":"task","trial_type":"horizons-task","trial_index":58,"time_elapsed":1097276,"internal_node_id":"0.0-54.0","task_version":"0.2"},{"response_times":[707,409,729,880,23278],"keys_pressed":["rightarrow","leftarrow","rightarrow","rightarrow","leftarrow"],"horizon":5,"forced_choices":["rightarrow","leftarrow","rightarrow","rightarrow"],"right_color":"lightblue","left_color":"orange","left_mu":40,"right_mu":28,"left_numbers":[24,38,30,42,53],"right_numbers":[25,20,40,38,43],"points_earned":194,"phase":"task","trial_type":"horizons-task","trial_index":59,"time_elapsed":1124805,"internal_node_id":"0.0-55.0","task_version":"0.2"},{"response_times":[691,531,1304,1742,7615],"keys_pressed":["rightarrow","leftarrow","leftarrow","rightarrow","leftarrow"],"horizon":5,"forced_choices":["rightarrow","leftarrow","leftarrow","rightarrow"],"right_color":"lightblue","left_color":"orange","left_mu":40,"right_mu":28,"left_numbers":[35,39,29,37,51],"right_numbers":[24,30,27,35,27],"points_earned":178,"phase":"task","trial_type":"horizons-task","trial_index":60,"time_elapsed":1138208,"internal_node_id":"0.0-56.0","task_version":"0.2"},{"response_times":[602,468,451,519,3358,1753,1886,490,440,370],"keys_pressed":["leftarrow","leftarrow","rightarrow","leftarrow","rightarrow","rightarrow","rightarrow","rightarrow","rightarrow","rightarrow"],"horizon":10,"forced_choices":["leftarrow","leftarrow","rightarrow","leftarrow"],"right_color":"lightblue","left_color":"orange","left_mu":60,"right_mu":56,"left_numbers":[67,53,72,63,60,69,65,51,57,66],"right_numbers":[65,53,72,36,65,58,61,52,68,61],"points_earned":620,"phase":"task","trial_type":"horizons-task","trial_index":61,"time_elapsed":1150080,"internal_node_id":"0.0-57.0","task_version":"0.2"},{"response_times":[3662,896,450,493,14448],"keys_pressed":["leftarrow","leftarrow","rightarrow","leftarrow","rightarrow"],"horizon":5,"forced_choices":["leftarrow","leftarrow","rightarrow","leftarrow"],"right_color":"lightblue","left_color":"orange","left_mu":60,"right_mu":56,"left_numbers":[54,77,66,59,55],"right_numbers":[44,60,63,48,61],"points_earned":314,"phase":"task","trial_type":"horizons-task","trial_index":62,"time_elapsed":1171544,"internal_node_id":"0.0-58.0","task_version":"0.2"},{"response_times":[1226,558,500,639,2361],"keys_pressed":["leftarrow","leftarrow","rightarrow","leftarrow","leftarrow"],"horizon":5,"forced_choices":["leftarrow","leftarrow","rightarrow","leftarrow"],"right_color":"lightblue","left_color":"orange","left_mu":40,"right_mu":32,"left_numbers":[29,55,54,42,31],"right_numbers":[26,16,29,37,25],"points_earned":186,"phase":"task","trial_type":"horizons-task","trial_index":63,"time_elapsed":1178345,"internal_node_id":"0.0-59.0","task_version":"0.2"},{"response_times":[651,620,1138,519,2292,1053,519,389,259,400],"keys_pressed":["rightarrow","rightarrow","rightarrow","leftarrow","leftarrow","leftarrow","leftarrow","leftarrow","leftarrow","leftarrow"],"horizon":10,"forced_choices":["rightarrow","rightarrow","rightarrow","leftarrow"],"right_color":"lightblue","left_color":"orange","left_mu":60,"right_mu":52,"left_numbers":[59,67,58,59,57,57,63,69,46,56],"right_numbers":[48,52,54,56,63,49,62,56,56,46],"points_earned":561,"phase":"task","trial_type":"horizons-task","trial_index":64,"time_elapsed":1187705,"internal_node_id":"0.0-60.0","task_version":"0.2"},{"response_times":[682,530,654,576,2450,441,177,151,161,430],"keys_pressed":["leftarrow","rightarrow","rightarrow","rightarrow","rightarrow","rightarrow","rightarrow","rightarrow","rightarrow","rightarrow"],"horizon":10,"forced_choices":["leftarrow","rightarrow","rightarrow","rightarrow"],"right_color":"lightblue","left_color":"orange","left_mu":40,"right_mu":60,"left_numbers":[31,40,48,38,33,33,27,29,62,42],"right_numbers":[62,67,75,46,67,69,54,68,43,62],"points_earned":582,"phase":"task","trial_type":"horizons-task","trial_index":65,"time_elapsed":1195480,"internal_node_id":"0.0-61.0","task_version":"0.2"},{"response_times":[495,517,490,949,3492],"keys_pressed":["leftarrow","leftarrow","rightarrow","rightarrow","rightarrow"],"horizon":5,"forced_choices":["leftarrow","leftarrow","rightarrow","rightarrow"],"right_color":"lightblue","left_color":"orange","left_mu":40,"right_mu":60,"left_numbers":[36,47,35,41,42],"right_numbers":[52,56,60,50,61],"points_earned":254,"phase":"task","trial_type":"horizons-task","trial_index":66,"time_elapsed":1202945,"internal_node_id":"0.0-62.0","task_version":"0.2"},{"response_times":[628,547,569,831,4030],"keys_pressed":["rightarrow","rightarrow","leftarrow","rightarrow","rightarrow"],"horizon":5,"forced_choices":["rightarrow","rightarrow","leftarrow","rightarrow"],"right_color":"orange","left_color":"lightblue","left_mu":60,"right_mu":80,"left_numbers":[64,75,68,56,64],"right_numbers":[74,77,76,78,82],"points_earned":379,"phase":"task","trial_type":"horizons-task","trial_index":67,"time_elapsed":1211064,"internal_node_id":"0.0-63.0","task_version":"0.2"},{"response_times":[585,459,500,729,4461,414,448,168,143,436],"keys_pressed":["rightarrow","rightarrow","leftarrow","leftarrow","leftarrow","leftarrow","leftarrow","leftarrow","leftarrow","leftarrow"],"horizon":10,"forced_choices":["rightarrow","rightarrow","leftarrow","leftarrow"],"right_color":"orange","left_color":"lightblue","left_mu":60,"right_mu":40,"left_numbers":[44,61,64,62,59,47,64,64,70,60],"right_numbers":[39,51,41,44,48,45,24,34,35,41],"points_earned":580,"phase":"task","trial_type":"horizons-task","trial_index":68,"time_elapsed":1220927,"internal_node_id":"0.0-64.0","task_version":"0.2"},{"response_times":[510,449,650,451,61091,8526,446,145,141,388],"keys_pressed":["leftarrow","rightarrow","rightarrow","leftarrow","leftarrow","leftarrow","leftarrow","leftarrow","leftarrow","leftarrow"],"horizon":10,"forced_choices":["leftarrow","rightarrow","rightarrow","leftarrow"],"right_color":"orange","left_color":"lightblue","left_mu":60,"right_mu":64,"left_numbers":[51,67,74,74,59,63,67,53,71,55],"right_numbers":[63,65,61,55,70,72,56,69,68,71],"points_earned":619,"phase":"task","trial_type":"horizons-task","trial_index":69,"time_elapsed":1295265,"internal_node_id":"0.0-65.0","task_version":"0.2"},{"response_times":[643,740,1281,539,2408,600,587,556,468,452],"keys_pressed":["leftarrow","leftarrow","rightarrow","rightarrow","rightarrow","rightarrow","rightarrow","rightarrow","rightarrow","rightarrow"],"horizon":10,"forced_choices":["leftarrow","leftarrow","rightarrow","rightarrow"],"right_color":"orange","left_color":"lightblue","left_mu":60,"right_mu":80,"left_numbers":[60,58,73,58,53,67,65,55,52,63],"right_numbers":[90,83,79,81,81,85,72,84,89,90],"points_earned":779,"phase":"task","trial_type":"horizons-task","trial_index":70,"time_elapsed":1305057,"internal_node_id":"0.0-66.0","task_version":"0.2"},{"response_times":[533,479,981,544,1904],"keys_pressed":["rightarrow","rightarrow","leftarrow","leftarrow","leftarrow"],"horizon":5,"forced_choices":["rightarrow","rightarrow","leftarrow","leftarrow"],"right_color":"lightblue","left_color":"orange","left_mu":60,"right_mu":56,"left_numbers":[56,75,67,55,56],"right_numbers":[47,46,65,55,76],"points_earned":271,"phase":"task","trial_type":"horizons-task","trial_index":71,"time_elapsed":1311034,"internal_node_id":"0.0-67.0","task_version":"0.2"},{"response_times":[524,502,447,452,4748,551,441,504,536,489],"keys_pressed":["rightarrow","rightarrow","leftarrow","rightarrow","rightarrow","rightarrow","rightarrow","rightarrow","rightarrow","rightarrow"],"horizon":10,"forced_choices":["rightarrow","rightarrow","leftarrow","rightarrow"],"right_color":"orange","left_color":"lightblue","left_mu":60,"right_mu":64,"left_numbers":[59,52,52,57,64,49,67,56,54,57],"right_numbers":[61,73,58,68,65,61,62,75,50,67],"points_earned":634,"phase":"task","trial_type":"horizons-task","trial_index":72,"time_elapsed":1321754,"internal_node_id":"0.0-68.0","task_version":"0.2"},{"response_times":[974,600,532,528,1588],"keys_pressed":["leftarrow","rightarrow","leftarrow","leftarrow","leftarrow"],"horizon":5,"forced_choices":["leftarrow","rightarrow","leftarrow","leftarrow"],"right_color":"orange","left_color":"lightblue","left_mu":40,"right_mu":10,"left_numbers":[45,35,40,48,48],"right_numbers":[11,26,11,16,14],"points_earned":207,"phase":"task","trial_type":"horizons-task","trial_index":73,"time_elapsed":1327500,"internal_node_id":"0.0-69.0","task_version":"0.2"},{"response_times":[905,615,713,516,27480,6099,479,389,200,595],"keys_pressed":["rightarrow","leftarrow","leftarrow","rightarrow","rightarrow","rightarrow","rightarrow","rightarrow","rightarrow","rightarrow"],"horizon":10,"forced_choices":["rightarrow","leftarrow","leftarrow","rightarrow"],"right_color":"lightblue","left_color":"orange","left_mu":40,"right_mu":28,"left_numbers":[49,29,34,34,55,36,52,39,47,41],"right_numbers":[47,30,30,24,30,26,22,32,45,16],"points_earned":305,"phase":"task","trial_type":"horizons-task","trial_index":74,"time_elapsed":1367009,"internal_node_id":"0.0-70.0","task_version":"0.2"},{"response_times":[731,697,511,1121,2209],"keys_pressed":["rightarrow","leftarrow","rightarrow","rightarrow","rightarrow"],"horizon":5,"forced_choices":["rightarrow","leftarrow","rightarrow","rightarrow"],"right_color":"orange","left_color":"lightblue","left_mu":40,"right_mu":48,"left_numbers":[26,39,37,46,44],"right_numbers":[45,43,45,52,44],"points_earned":225,"phase":"task","trial_type":"horizons-task","trial_index":75,"time_elapsed":1373795,"internal_node_id":"0.0-71.0","task_version":"0.2"},{"response_times":[641,582,447,521,2260,559,210,150,300,333],"keys_pressed":["rightarrow","leftarrow","rightarrow","leftarrow","rightarrow","rightarrow","rightarrow","rightarrow","rightarrow","rightarrow"],"horizon":10,"forced_choices":["rightarrow","leftarrow","rightarrow","leftarrow"],"right_color":"orange","left_color":"lightblue","left_mu":40,"right_mu":70,"left_numbers":[41,43,49,45,35,44,48,40,37,36],"right_numbers":[72,76,85,73,80,54,66,75,69,51],"points_earned":640,"phase":"task","trial_type":"horizons-task","trial_index":76,"time_elapsed":1381314,"internal_node_id":"0.0-72.0","task_version":"0.2"},{"response_times":[467,468,500,819,2501,219,179,192,276,404],"keys_pressed":["rightarrow","leftarrow","leftarrow","leftarrow","leftarrow","leftarrow","leftarrow","leftarrow","leftarrow","leftarrow"],"horizon":10,"forced_choices":["rightarrow","leftarrow","leftarrow","leftarrow"],"right_color":"orange","left_color":"lightblue","left_mu":60,"right_mu":30,"left_numbers":[59,54,56,49,73,46,46,58,53,61],"right_numbers":[33,24,42,37,16,42,20,23,30,39],"points_earned":529,"phase":"task","trial_type":"horizons-task","trial_index":77,"time_elapsed":1388864,"internal_node_id":"0.0-73.0","task_version":"0.2"},{"response_times":[731,378,516,496,2231],"keys_pressed":["rightarrow","leftarrow","rightarrow","leftarrow","rightarrow"],"horizon":5,"forced_choices":["rightarrow","leftarrow","rightarrow","leftarrow"],"right_color":"orange","left_color":"lightblue","left_mu":40,"right_mu":70,"left_numbers":[46,43,39,49,49],"right_numbers":[68,79,74,67,64],"points_earned":298,"phase":"task","trial_type":"horizons-task","trial_index":78,"time_elapsed":1394729,"internal_node_id":"0.0-74.0","task_version":"0.2"},{"response_times":[718,1019,519,536,2884,340,168,142,158,371],"keys_pressed":["leftarrow","leftarrow","leftarrow","rightarrow","leftarrow","leftarrow","leftarrow","leftarrow","leftarrow","leftarrow"],"horizon":10,"forced_choices":["leftarrow","leftarrow","leftarrow","rightarrow"],"right_color":"lightblue","left_color":"orange","left_mu":40,"right_mu":36,"left_numbers":[38,35,43,26,46,24,53,30,32,43],"right_numbers":[38,42,25,25,26,30,42,19,42,33],"points_earned":369,"phase":"task","trial_type":"horizons-task","trial_index":79,"time_elapsed":1403114,"internal_node_id":"0.0-75.0","task_version":"0.2"},{"response_times":[493,1132,517,501,1981,360,148,141,135,136],"keys_pressed":["leftarrow","leftarrow","rightarrow","rightarrow","rightarrow","rightarrow","rightarrow","rightarrow","rightarrow","rightarrow"],"horizon":10,"forced_choices":["leftarrow","leftarrow","rightarrow","rightarrow"],"right_color":"lightblue","left_color":"orange","left_mu":40,"right_mu":60,"left_numbers":[40,41,46,31,43,43,39,58,38,52],"right_numbers":[68,62,61,59,55,65,63,65,60,64],"points_earned":573,"phase":"task","trial_type":"horizons-task","trial_index":80,"time_elapsed":1410174,"internal_node_id":"0.0-76.0","task_version":"0.2"},{"response_times":[556,419,729,532,1577,101,121,128,130,130],"keys_pressed":["rightarrow","leftarrow","leftarrow","rightarrow","rightarrow","rightarrow","rightarrow","rightarrow","rightarrow","rightarrow"],"horizon":10,"forced_choices":["rightarrow","leftarrow","leftarrow","rightarrow"],"right_color":"lightblue","left_color":"orange","left_mu":60,"right_mu":90,"left_numbers":[56,63,52,62,50,62,64,68,67,80],"right_numbers":[88,93,98,99,91,85,85,81,105,103],"points_earned":852,"phase":"task","trial_type":"horizons-task","trial_index":81,"time_elapsed":1416129,"internal_node_id":"0.0-77.0","task_version":"0.2"},{"response_times":[583,499,860,720,2824],"keys_pressed":["rightarrow","leftarrow","rightarrow","leftarrow","leftarrow"],"horizon":5,"forced_choices":["rightarrow","leftarrow","rightarrow","leftarrow"],"right_color":"lightblue","left_color":"orange","left_mu":40,"right_mu":32,"left_numbers":[31,33,49,49,40],"right_numbers":[36,28,12,29,45],"points_earned":170,"phase":"task","trial_type":"horizons-task","trial_index":82,"time_elapsed":1423129,"internal_node_id":"0.0-78.0","task_version":"0.2"},{"response_times":[842,409,620,511,1467],"keys_pressed":["rightarrow","leftarrow","leftarrow","rightarrow","rightarrow"],"horizon":5,"forced_choices":["rightarrow","leftarrow","leftarrow","rightarrow"],"right_color":"lightblue","left_color":"orange","left_mu":40,"right_mu":36,"left_numbers":[39,31,36,31,34],"right_numbers":[48,39,38,51,34],"points_earned":200,"phase":"task","trial_type":"horizons-task","trial_index":83,"time_elapsed":1428494,"internal_node_id":"0.0-79.0","task_version":"0.2"},{"response_times":[534,439,613,579,1329],"keys_pressed":["leftarrow","rightarrow","rightarrow","rightarrow","rightarrow"],"horizon":5,"forced_choices":["leftarrow","rightarrow","rightarrow","rightarrow"],"right_color":"lightblue","left_color":"orange","left_mu":40,"right_mu":60,"left_numbers":[44,42,32,44,32],"right_numbers":[55,75,64,76,49],"points_earned":308,"phase":"task","trial_type":"horizons-task","trial_index":84,"time_elapsed":1433514,"internal_node_id":"0.0-80.0","task_version":"0.2"},{"response_times":[887,604,546,502,5160,705,332,123,144,335],"keys_pressed":["leftarrow","leftarrow","rightarrow","rightarrow","leftarrow","leftarrow","leftarrow","leftarrow","leftarrow","leftarrow"],"horizon":10,"forced_choices":["leftarrow","leftarrow","rightarrow","rightarrow"],"right_color":"orange","left_color":"lightblue","left_mu":60,"right_mu":48,"left_numbers":[66,49,68,55,59,64,63,57,57,52],"right_numbers":[39,39,61,48,48,46,32,45,53,36],"points_earned":576,"phase":"task","trial_type":"horizons-task","trial_index":85,"time_elapsed":1444375,"internal_node_id":"0.0-81.0","task_version":"0.2"},{"response_times":[504,550,811,799,3662,3388,332,188,140,151],"keys_pressed":["rightarrow","rightarrow","leftarrow","leftarrow","rightarrow","rightarrow","rightarrow","rightarrow","rightarrow","rightarrow"],"horizon":10,"forced_choices":["rightarrow","rightarrow","leftarrow","leftarrow"],"right_color":"orange","left_color":"lightblue","left_mu":40,"right_mu":48,"left_numbers":[32,22,38,39,41,45,32,36,40,49],"right_numbers":[54,40,38,66,54,42,37,53,44,38],"points_earned":439,"phase":"task","trial_type":"horizons-task","trial_index":86,"time_elapsed":1456414,"internal_node_id":"0.0-82.0","task_version":"0.2"},{"response_times":[556,639,1648,463,2549,431,161,128,152,127],"keys_pressed":["rightarrow","rightarrow","leftarrow","rightarrow","leftarrow","leftarrow","leftarrow","leftarrow","leftarrow","leftarrow"],"horizon":10,"forced_choices":["rightarrow","rightarrow","leftarrow","rightarrow"],"right_color":"orange","left_color":"lightblue","left_mu":60,"right_mu":40,"left_numbers":[68,35,63,50,63,56,65,57,52,59],"right_numbers":[45,40,45,23,43,41,46,52,39,39],"points_earned":523,"phase":"task","trial_type":"horizons-task","trial_index":87,"time_elapsed":1464788,"internal_node_id":"0.0-83.0","task_version":"0.2"},{"response_times":[627,548,452,480,2168],"keys_pressed":["leftarrow","leftarrow","rightarrow","leftarrow","leftarrow"],"horizon":5,"forced_choices":["leftarrow","leftarrow","rightarrow","leftarrow"],"right_color":"orange","left_color":"lightblue","left_mu":60,"right_mu":48,"left_numbers":[63,56,38,72,59],"right_numbers":[36,59,54,31,49],"points_earned":304,"phase":"task","trial_type":"horizons-task","trial_index":88,"time_elapsed":1470597,"internal_node_id":"0.0-84.0","task_version":"0.2"},{"response_times":[873,499,661,549,1736,332,141,142,139,364],"keys_pressed":["leftarrow","rightarrow","leftarrow","rightarrow","leftarrow","leftarrow","leftarrow","leftarrow","leftarrow","leftarrow"],"horizon":10,"forced_choices":["leftarrow","rightarrow","leftarrow","rightarrow"],"right_color":"orange","left_color":"lightblue","left_mu":60,"right_mu":30,"left_numbers":[58,55,62,72,74,46,71,67,41,53],"right_numbers":[26,30,18,40,39,15,50,29,37,36],"points_earned":542,"phase":"task","trial_type":"horizons-task","trial_index":89,"time_elapsed":1477574,"internal_node_id":"0.0-85.0","task_version":"0.2"},{"response_times":[994,476,576,668,1318,451,120,120,117,131],"keys_pressed":["leftarrow","rightarrow","rightarrow","rightarrow","rightarrow","rightarrow","rightarrow","rightarrow","rightarrow","rightarrow"],"horizon":10,"forced_choices":["leftarrow","rightarrow","rightarrow","rightarrow"],"right_color":"orange","left_color":"lightblue","left_mu":40,"right_mu":70,"left_numbers":[46,50,44,46,51,37,45,27,24,50],"right_numbers":[65,72,79,63,71,72,67,75,67,58],"points_earned":670,"phase":"task","trial_type":"horizons-task","trial_index":90,"time_elapsed":1484064,"internal_node_id":"0.0-86.0","task_version":"0.2"},{"response_times":[653,489,558,640,1440],"keys_pressed":["leftarrow","rightarrow","rightarrow","rightarrow","rightarrow"],"horizon":5,"forced_choices":["leftarrow","rightarrow","rightarrow","rightarrow"],"right_color":"orange","left_color":"lightblue","left_mu":40,"right_mu":70,"left_numbers":[34,45,34,25,43],"right_numbers":[78,55,70,61,73],"points_earned":293,"phase":"task","trial_type":"horizons-task","trial_index":91,"time_elapsed":1489364,"internal_node_id":"0.0-87.0","task_version":"0.2"},{"rt":24456,"responses":{"age":"20","gender-categorical":"Male","gender-free-response":"","ethnicity":"Not Hispanic or Latino","race":["White"],"language":"Yes","fluency":"Very well"},"survey":"demographics","trial_type":"survey-demo","trial_index":92,"time_elapsed":1513833,"internal_node_id":"0.0-88.0","task_version":"0.2"},{"rt":25724,"responses":{"difficulty":"5","fun":"5","clarity":"4","strategy":"Did some minor calculations in my head","feedback":":D"},"survey":"debrief","trial_type":"survey-debrief","trial_index":93,"time_elapsed":1539566,"internal_node_id":"0.0-89.0","task_version":"0.2","interactions":"[{\"event\":\"focus\",\"trial\":0,\"time\":0}]"}]