[{"view_history":"[{\"page_index\":0,\"viewing_time\":3277.5149999943096}]","rt":3279.464999999618,"trial_type":"instructions","trial_index":0,"time_elapsed":3292,"internal_node_id":"0.0-0.0","task_version":"0.2"},{"item_order":[1,13,9,15,4,2,5,14,0,12,8,10,7,3,6,11],"responses":{"Q02":"1","Q14":"1","Q10":"3","Q16":"5","Q05":"1","Q03":"3","Q06":"4","Q15":"3","Q01":"4","Q13":"4","Q09":"1","Q11":"1","Q08":"1","Q04":"4","Q07":"4","Q12":"4"},"radio_events":[8242.865000007441,12790.990000008605,19095.06500000134,24462.750000006054,32220.045000009122,33601.780000011786,37580.66500000132,40482.14000000735,45626.44000000728,49100.579999998445,54942.12000000698,58354.785000003176,60045.98500000429,64494.18000000878,68618.14000000595,72296.8600000022,76688.0600000004,77923.16500000015,81621.77000001248,86062.95500000124],"key_events":[],"mouse_events":[0.26000000070780516,4800.185000000056,5879.750000007334,7373.025000008056,8242.865000007441,12790.990000008605,16994.91000000853,18240.590000001248,19095.06500000134,22215.990000011516,23486.564999999246,24462.750000006054,30229.745000004186,31410.81000000122,32220.045000009122,33601.780000011786,37580.66500000132,40482.14000000735,44868.84500000451,45626.44000000728,49100.579999998445,53851.445000007516,54942.12000000698,57527.48000000429,58354.785000003176,60045.98500000429,64494.18000000878,68618.14000000595,71401.20000000752,72296.8600000022,76688.0600000004,77923.16500000015,81621.77000001248,86062.95500000124,87238.43500000658],"rt":87248.96500000614,"survey":"nfc","trial_type":"survey-template","trial_index":1,"time_elapsed":90560,"internal_node_id":"0.0-1.0","task_version":"0.2"},{"item_order":[14,10,8,3,11,2,15,5,12,4,9,16,13,0,6,1,7],"responses":{"Q15":"3","Q11":"2","Q09":"2","Q04":"3","Q12":"3","Q03":"4","Q16":"2","Q06":"4","Q13":"3","Q05":"2","Q10":"4","Q17":"0","Q14":"2","Q01":"3","Q07":"2","Q02":"2","Q08":"3"},"radio_events":[3611.994999999297,9265.095000009751,10451.564999995753,14663.085000007413,17760.705000007874,21653.65500000189,23815.870000005816,26813.374999997905,30029.73500000371,33563.18500000634,40685.54000000586,42119.14500000421,45953.080000006594,51580.05000000412,57903.76000000106,61589.495000007446,64487.61500000546,65907.14500000468,69312.83999999869],"key_events":[],"mouse_events":[3611.994999999297,9265.095000009751,10451.564999995753,14663.085000007413,17062.950000006822,17760.705000007874,21653.65500000189,23815.870000005816,26813.374999997905,30029.73500000371,33563.18500000634,38597.99999999814,40685.54000000586,42119.14500000421,44462.87000000302,45953.080000006594,51580.05000000412,57903.76000000106,61589.495000007446,64487.61500000546,65907.14500000468,69312.83999999869,70520.42000000074],"rt":70529.39500000502,"survey":"pswq","trial_type":"survey-template","trial_index":2,"time_elapsed":161112,"internal_node_id":"0.0-2.0","task_version":"0.2"},{"item_order":[11,7,2,4,10,5,6,0,12,1,3,9,8],"responses":{"Q12":"1","Q08":"2","Q03":"2","Q05":"0","Q11":"1","Q06":"1","Q07":"2","Q01":"2","Q13":"4","Q02":"3","Q04":"3","Q10":"1","Q09":"1"},"radio_events":[6551.869999995688,11294.490000000224,15025.024999995367,17015.56499999424,23806.77499999001,29733.504999996512,31941.099999996368,37211.92999999039,40083.53499999794,46329.38499999,49524.219999992056,56338.55999998923,61445.84000000032,66998.25999999302,69553.00999998872],"key_events":[],"mouse_events":[4763.670000000275,6551.869999995688,11294.490000000224,15025.024999995367,17015.56499999424,21156.964999987395,22526.74499999557,23806.77499999001,27049.64499999187,29733.504999996512,31246.259999999893,31941.099999996368,37211.92999999039,40083.53499999794,46329.38499999,49524.219999992056,56338.55999998923,61445.84000000032,66998.25999999302,69553.00999998872,70788.80499998922],"rt":70795.1150000008,"survey":"ius12","trial_type":"survey-template","trial_index":3,"time_elapsed":231924,"internal_node_id":"0.0-3.0","task_version":"0.2"},{"view_history":"[{\"page_index\":0,\"viewing_time\":3456.5850000071805},{\"page_index\":1,\"viewing_time\":7023.849999997765},{\"page_index\":2,\"viewing_time\":10551.560000007157},{\"page_index\":3,\"viewing_time\":7951.889999996638},{\"page_index\":4,\"viewing_time\":7803.664999999455},{\"page_index\":5,\"viewing_time\":9420.945000005304},{\"page_index\":6,\"viewing_time\":11459.534999987227},{\"page_index\":7,\"viewing_time\":12693.69000000006},{\"page_index\":8,\"viewing_time\":8526.10500001174},{\"page_index\":9,\"viewing_time\":9165.17500000191}]","rt":88055.47000000661,"trial_type":"instructions","trial_index":4,"time_elapsed":319994,"internal_node_id":"0.0-4.0-0.0","task_version":"0.2"},{"response_times":[2606.8599999998696,1106.8900000100257,590.5849999981001,850.8350000047358,3805.560000007972],"keys_pressed":["rightarrow","leftarrow","rightarrow","rightarrow","leftarrow"],"horizon":5,"forced_choices":["rightarrow","leftarrow","rightarrow","rightarrow"],"right_color":"lightblue","left_color":"orange","left_mu":40,"right_mu":20,"left_numbers":[41,42,41,48,35],"right_numbers":[21,17,15,23,11],"points_earned":136,"phase":"practice","trial_type":"horizons-task","trial_index":5,"time_elapsed":330490,"internal_node_id":"0.0-4.0-1.0","task_version":"0.2"},{"response_times":[1348.1599999940954,897.6049999910174,993.3749999909196,624.8749999940628,4644.570000004023,3185.66999999166,727.1150000015041,557.1750000090105,2278.7399999942863,662.609999999404],"keys_pressed":["leftarrow","leftarrow","rightarrow","rightarrow","rightarrow","rightarrow","rightarrow","rightarrow","rightarrow","rightarrow"],"horizon":10,"forced_choices":["leftarrow","leftarrow","rightarrow","rightarrow"],"right_color":"orange","left_color":"lightblue","left_mu":60,"right_mu":70,"left_numbers":[60,51,58,66,55,65,79,64,74,65],"right_numbers":[79,69,63,70,71,77,78,57,74,70],"points_earned":671,"phase":"practice","trial_type":"horizons-task","trial_index":6,"time_elapsed":347916,"internal_node_id":"0.0-4.0-2.0","task_version":"0.2"},{"view_history":"[{\"page_index\":0,\"viewing_time\":3042.7049999998417},{\"page_index\":1,\"viewing_time\":6666.354999993928},{\"page_index\":2,\"viewing_time\":5861.730000004172},{\"page_index\":3,\"viewing_time\":3950.519999998505}]","rt":19521.96999998705,"trial_type":"instructions","trial_index":7,"time_elapsed":367440,"internal_node_id":"0.0-4.0-3.0","task_version":"0.2"},{"responses":["true","false","true"],"num_errors":0,"rt":11668.975000007777,"trial_type":"horizons-comprehension","trial_index":8,"time_elapsed":379117,"internal_node_id":"0.0-4.0-4.0","task_version":"0.2"},{"trial_type":"call-function","trial_index":9,"time_elapsed":379133,"internal_node_id":"0.0-5.0","task_version":"0.2"},{"view_history":"[{\"page_index\":0,\"viewing_time\":2799.2450000019744},{\"page_index\":1,\"viewing_time\":5630.615000001853}]","rt":8430.449999999837,"trial_type":"instructions","trial_index":10,"time_elapsed":387565,"internal_node_id":"0.0-6.0","task_version":"0.2"},{"response_times":[2352.4000000033993,1316.7950000060955,2255.9199999959674,1516.4800000056857,1688.9050000027055],"keys_pressed":["leftarrow","rightarrow","rightarrow","leftarrow","rightarrow"],"horizon":5,"forced_choices":["leftarrow","rightarrow","rightarrow","leftarrow"],"right_color":"lightblue","left_color":"orange","left_mu":60,"right_mu":80,"left_numbers":[59,53,70,51,55],"right_numbers":[80,87,82,80,72],"points_earned":351,"phase":"task","trial_type":"horizons-task","trial_index":11,"time_elapsed":398216,"internal_node_id":"0.0-7.0","task_version":"0.2"},{"response_times":[1147.7100000047358,727.999999988242,741.0799999925075,781.3200000091456,3805.160000003525,2067.6950000051875,2248.3700000011595,1595.6100000039442,1390.0900000007823,552.3300000058953],"keys_pressed":["rightarrow","rightarrow","leftarrow","rightarrow","rightarrow","rightarrow","rightarrow","rightarrow","rightarrow","rightarrow"],"horizon":10,"forced_choices":["rightarrow","rightarrow","leftarrow","rightarrow"],"right_color":"orange","left_color":"lightblue","left_mu":40,"right_mu":44,"left_numbers":[33,30,30,36,41,34,41,28,37,45],"right_numbers":[52,36,45,43,47,46,44,35,45,47],"points_earned":425,"phase":"task","trial_type":"horizons-task","trial_index":12,"time_elapsed":414779,"internal_node_id":"0.0-8.0","task_version":"0.2"},{"response_times":[1067.9700000036974,890.7950000138953,768.5700000001816,1323.6849999957485,1455.0000000017462],"keys_pressed":["rightarrow","rightarrow","leftarrow","leftarrow","leftarrow"],"horizon":5,"forced_choices":["rightarrow","rightarrow","leftarrow","leftarrow"],"right_color":"lightblue","left_color":"orange","left_mu":40,"right_mu":28,"left_numbers":[46,42,38,51,38],"right_numbers":[27,22,41,33,15],"points_earned":176,"phase":"task","trial_type":"horizons-task","trial_index":13,"time_elapsed":421820,"internal_node_id":"0.0-9.0","task_version":"0.2"},{"response_times":[896.9700000016019,793.7450000026729,837.0999999897322,976.7050000082236,2592.3800000018673,1149.9250000051688,3375.4249999910826,977.7850000100443,1468.045000001439,654.3499999970663],"keys_pressed":["rightarrow","rightarrow","leftarrow","leftarrow","leftarrow","leftarrow","leftarrow","leftarrow","leftarrow","leftarrow"],"horizon":10,"forced_choices":["rightarrow","rightarrow","leftarrow","leftarrow"],"right_color":"orange","left_color":"lightblue","left_mu":40,"right_mu":10,"left_numbers":[50,40,16,50,32,62,37,25,43,38],"right_numbers":[7,13,1,6,17,11,0,7,15,19],"points_earned":323,"phase":"task","trial_type":"horizons-task","trial_index":14,"time_elapsed":437050,"internal_node_id":"0.0-10.0","task_version":"0.2"},{"response_times":[1112.4500000005355,1087.4449999973876,1069.4800000055693,961.025000011432,2653.265000000829,2060.5999999970663,7923.524999991059,1655.1550000003772,1349.449999994249,1737.5899999897229],"keys_pressed":["leftarrow","rightarrow","leftarrow","leftarrow","rightarrow","rightarrow","rightarrow","rightarrow","rightarrow","rightarrow"],"horizon":10,"forced_choices":["leftarrow","rightarrow","leftarrow","leftarrow"],"right_color":"lightblue","left_color":"orange","left_mu":60,"right_mu":64,"left_numbers":[56,55,58,57,57,66,64,63,59,51],"right_numbers":[62,72,60,64,59,57,63,70,67,54],"points_earned":613,"phase":"task","trial_type":"horizons-task","trial_index":15,"time_elapsed":460192,"internal_node_id":"0.0-11.0","task_version":"0.2"},{"response_times":[1058.0950000003213,759.3099999940023,981.2950000050478,1254.159999996773,687.0800000033341],"keys_pressed":["rightarrow","leftarrow","rightarrow","leftarrow","rightarrow"],"horizon":5,"forced_choices":["rightarrow","leftarrow","rightarrow","leftarrow"],"right_color":"orange","left_color":"lightblue","left_mu":60,"right_mu":72,"left_numbers":[48,52,49,56,56],"right_numbers":[78,73,67,82,73],"points_earned":326,"phase":"task","trial_type":"horizons-task","trial_index":16,"time_elapsed":466437,"internal_node_id":"0.0-12.0","task_version":"0.2"},{"response_times":[844.4600000075297,844.7049999958836,855.7399999990594,1640.6700000079582,4089.4100000004983,2157.599999991362,2568.90499999281,1032.4600000021746,1156.635000006645,1426.6000000061467],"keys_pressed":["rightarrow","leftarrow","rightarrow","rightarrow","rightarrow","rightarrow","leftarrow","rightarrow","rightarrow","rightarrow"],"horizon":10,"forced_choices":["rightarrow","leftarrow","rightarrow","rightarrow"],"right_color":"orange","left_color":"lightblue","left_mu":60,"right_mu":68,"left_numbers":[65,69,70,60,66,64,56,63,46,62],"right_numbers":[72,56,71,64,76,57,80,66,60,65],"points_earned":656,"phase":"task","trial_type":"horizons-task","trial_index":17,"time_elapsed":484559,"internal_node_id":"0.0-13.0","task_version":"0.2"},{"response_times":[937.404999989667,1683.6900000052992,1461.9449999881908,1359.7849999932805,7406.650000004447,1574.5400000014342,2101.054999991902,656.025000003865,549.8899999947753,519.9450000072829],"keys_pressed":["leftarrow","leftarrow","rightarrow","rightarrow","rightarrow","rightarrow","rightarrow","rightarrow","rightarrow","rightarrow"],"horizon":10,"forced_choices":["leftarrow","leftarrow","rightarrow","rightarrow"],"right_color":"lightblue","left_color":"orange","left_mu":60,"right_mu":90,"left_numbers":[67,59,49,54,61,50,66,56,63,54],"right_numbers":[87,88,72,95,95,87,81,86,97,90],"points_earned":829,"phase":"task","trial_type":"horizons-task","trial_index":18,"time_elapsed":504313,"internal_node_id":"0.0-14.0","task_version":"0.2"},{"response_times":[764.2800000030547,1362.410000001546,937.3049999994691,1558.9400000026217,1446.1199999932433],"keys_pressed":["rightarrow","rightarrow","leftarrow","rightarrow","leftarrow"],"horizon":5,"forced_choices":["rightarrow","rightarrow","leftarrow","rightarrow"],"right_color":"lightblue","left_color":"orange","left_mu":40,"right_mu":28,"left_numbers":[37,41,51,32,21],"right_numbers":[25,10,24,28,42],"points_earned":135,"phase":"task","trial_type":"horizons-task","trial_index":19,"time_elapsed":511887,"internal_node_id":"0.0-15.0","task_version":"0.2"},{"response_times":[946.5550000022631,990.7299999904353,1081.6300000005867,1270.9699999977602,8623.990000007325],"keys_pressed":["rightarrow","leftarrow","leftarrow","rightarrow","leftarrow"],"horizon":5,"forced_choices":["rightarrow","leftarrow","leftarrow","rightarrow"],"right_color":"lightblue","left_color":"orange","left_mu":60,"right_mu":56,"left_numbers":[63,66,71,52,61],"right_numbers":[68,63,70,51,78],"points_earned":317,"phase":"task","trial_type":"horizons-task","trial_index":20,"time_elapsed":526305,"internal_node_id":"0.0-16.0","task_version":"0.2"},{"response_times":[885.7849999913014,772.3600000026636,3386.689999999362,1132.8799999901094,1164.0250000054948],"keys_pressed":["rightarrow","leftarrow","leftarrow","leftarrow","rightarrow"],"horizon":5,"forced_choices":["rightarrow","leftarrow","leftarrow","leftarrow"],"right_color":"lightblue","left_color":"orange","left_mu":40,"right_mu":32,"left_numbers":[43,38,35,28,26],"right_numbers":[42,19,39,39,47],"points_earned":190,"phase":"task","trial_type":"horizons-task","trial_index":21,"time_elapsed":535151,"internal_node_id":"0.0-17.0","task_version":"0.2"},{"response_times":[1048.0200000019977,1020.1450000022305,694.5550000091316,1252.0299999887357,5388.220000008005,1380.0300000002608,708.7300000130199,590.939999994589,561.1449999996694,651.9850000040606],"keys_pressed":["rightarrow","leftarrow","rightarrow","leftarrow","rightarrow","rightarrow","rightarrow","rightarrow","rightarrow","rightarrow"],"horizon":10,"forced_choices":["rightarrow","leftarrow","rightarrow","leftarrow"],"right_color":"orange","left_color":"lightblue","left_mu":60,"right_mu":72,"left_numbers":[54,66,61,57,78,58,52,63,55,50],"right_numbers":[71,77,65,75,72,72,73,85,64,68],"points_earned":693,"phase":"task","trial_type":"horizons-task","trial_index":22,"time_elapsed":549953,"internal_node_id":"0.0-18.0","task_version":"0.2"},{"response_times":[850.2500000031432,1069.4499999954132,715.6799999938812,1188.4550000104355,1197.0299999957206],"keys_pressed":["leftarrow","leftarrow","rightarrow","rightarrow","rightarrow"],"horizon":5,"forced_choices":["leftarrow","leftarrow","rightarrow","rightarrow"],"right_color":"lightblue","left_color":"orange","left_mu":60,"right_mu":90,"left_numbers":[62,56,51,70,63],"right_numbers":[83,80,89,92,73],"points_earned":372,"phase":"task","trial_type":"horizons-task","trial_index":23,"time_elapsed":556480,"internal_node_id":"0.0-19.0","task_version":"0.2"},{"response_times":[833.9099999866448,1064.4049999973504,871.4900000049965,784.3000000139,3265.419999996084,2373.070000001462,999.5599999965634,957.8300000139279,976.9500000111293,1092.3650000040652],"keys_pressed":["leftarrow","leftarrow","leftarrow","rightarrow","rightarrow","rightarrow","rightarrow","rightarrow","rightarrow","rightarrow"],"horizon":10,"forced_choices":["leftarrow","leftarrow","leftarrow","rightarrow"],"right_color":"lightblue","left_color":"orange","left_mu":60,"right_mu":90,"left_numbers":[52,54,59,66,50,63,62,66,53,55],"right_numbers":[97,84,90,90,98,102,95,92,105,82],"points_earned":829,"phase":"task","trial_type":"horizons-task","trial_index":24,"time_elapsed":571204,"internal_node_id":"0.0-20.0","task_version":"0.2"},{"response_times":[824.1950000083307,1229.6149999892805,2552.060000001802,1026.5999999974156,1412.834999995539],"keys_pressed":["rightarrow","leftarrow","leftarrow","leftarrow","leftarrow"],"horizon":5,"forced_choices":["rightarrow","leftarrow","leftarrow","leftarrow"],"right_color":"lightblue","left_color":"orange","left_mu":60,"right_mu":30,"left_numbers":[56,37,56,63,57],"right_numbers":[7,37,23,23,30],"points_earned":220,"phase":"task","trial_type":"horizons-task","trial_index":25,"time_elapsed":579754,"internal_node_id":"0.0-21.0","task_version":"0.2"},{"response_times":[693.120000010822,693.0200000060722,1158.4799999982351,1974.130000002333,2310.5300000024727],"keys_pressed":["leftarrow","rightarrow","leftarrow","leftarrow","rightarrow"],"horizon":5,"forced_choices":["leftarrow","rightarrow","leftarrow","leftarrow"],"right_color":"lightblue","left_color":"orange","left_mu":60,"right_mu":64,"left_numbers":[51,62,53,66,64],"right_numbers":[64,75,75,57,62],"points_earned":307,"phase":"task","trial_type":"horizons-task","trial_index":26,"time_elapsed":588088,"internal_node_id":"0.0-22.0","task_version":"0.2"},{"response_times":[847.1600000048056,1016.0350000078324,1038.075000004028,1266.3400000019465,818.9649999985704],"keys_pressed":["rightarrow","rightarrow","leftarrow","leftarrow","rightarrow"],"horizon":5,"forced_choices":["rightarrow","rightarrow","leftarrow","leftarrow"],"right_color":"lightblue","left_color":"orange","left_mu":40,"right_mu":70,"left_numbers":[42,42,39,40,40],"right_numbers":[75,68,73,61,66],"points_earned":288,"phase":"task","trial_type":"horizons-task","trial_index":27,"time_elapsed":594579,"internal_node_id":"0.0-23.0","task_version":"0.2"},{"response_times":[1077.3150000022724,1599.900000001071,588.9100000058534,746.209999997518,1324.914999990142,1126.6999999934342,2131.1900000000605,774.8300000093877,541.2650000071153,395.619999995688],"keys_pressed":["rightarrow","rightarrow","leftarrow","rightarrow","leftarrow","leftarrow","leftarrow","leftarrow","leftarrow","leftarrow"],"horizon":10,"forced_choices":["rightarrow","rightarrow","leftarrow","rightarrow"],"right_color":"lightblue","left_color":"orange","left_mu":40,"right_mu":28,"left_numbers":[43,31,40,29,38,32,49,50,33,41],"right_numbers":[28,30,33,18,30,25,20,29,32,17],"points_earned":359,"phase":"task","trial_type":"horizons-task","trial_index":28,"time_elapsed":606391,"internal_node_id":"0.0-24.0","task_version":"0.2"},{"response_times":[902.7249999926426,587.6199999911478,1589.2449999955716,1570.0999999971827,2303.7049999984447,19207.995000004303,6564.375000001746,768.7149999983376,7200.6600000022445,600.0749999948312],"keys_pressed":["leftarrow","leftarrow","leftarrow","rightarrow","rightarrow","rightarrow","rightarrow","rightarrow","rightarrow","rightarrow"],"horizon":10,"forced_choices":["leftarrow","leftarrow","leftarrow","rightarrow"],"right_color":"lightblue","left_color":"orange","left_mu":40,"right_mu":36,"left_numbers":[45,36,35,43,35,42,45,48,51,40],"right_numbers":[28,29,18,53,30,41,46,13,34,19],"points_earned":352,"phase":"task","trial_type":"horizons-task","trial_index":29,"time_elapsed":649192,"internal_node_id":"0.0-25.0","task_version":"0.2"},{"response_times":[1029.5449999975972,564.010000001872,668.9900000055786,1356.0649999999441,2017.1100000006845,1107.9599999939092,1461.0299999912968,1084.7700000012992,775.724999999511,485.68499999237247],"keys_pressed":["rightarrow","rightarrow","leftarrow","leftarrow","leftarrow","leftarrow","leftarrow","leftarrow","leftarrow","leftarrow"],"horizon":10,"forced_choices":["rightarrow","rightarrow","leftarrow","leftarrow"],"right_color":"lightblue","left_color":"orange","left_mu":40,"right_mu":28,"left_numbers":[40,58,33,40,45,32,55,54,51,34],"right_numbers":[28,30,22,16,12,35,32,32,15,32],"points_earned":402,"phase":"task","trial_type":"horizons-task","trial_index":30,"time_elapsed":661248,"internal_node_id":"0.0-26.0","task_version":"0.2"},{"response_times":[797.5599999917904,485.2950000058627,1047.1050000051036,925.7700000016484,1880.0950000004377,1206.304999999702,621.9299999938812,470.01999999338295,611.3699999987148,389.4750000035856],"keys_pressed":["leftarrow","rightarrow","leftarrow","rightarrow","rightarrow","rightarrow","rightarrow","rightarrow","rightarrow","rightarrow"],"horizon":10,"forced_choices":["leftarrow","rightarrow","leftarrow","rightarrow"],"right_color":"orange","left_color":"lightblue","left_mu":40,"right_mu":48,"left_numbers":[39,43,49,33,46,41,35,47,46,43],"right_numbers":[50,49,45,49,41,47,48,37,49,36],"points_earned":444,"phase":"task","trial_type":"horizons-task","trial_index":31,"time_elapsed":671189,"internal_node_id":"0.0-27.0","task_version":"0.2"},{"response_times":[978.8250000128755,779.739999998128,690.7400000054622,1475.0199999980396,713.74000000651],"keys_pressed":["leftarrow","leftarrow","rightarrow","leftarrow","rightarrow"],"horizon":5,"forced_choices":["leftarrow","leftarrow","rightarrow","leftarrow"],"right_color":"orange","left_color":"lightblue","left_mu":60,"right_mu":72,"left_numbers":[52,67,60,48,75],"right_numbers":[60,79,78,77,65],"points_earned":310,"phase":"task","trial_type":"horizons-task","trial_index":32,"time_elapsed":677334,"internal_node_id":"0.0-28.0","task_version":"0.2"},{"response_times":[507.68999999854714,594.825000007404,1157.2199999936856,1933.8049999932991,4567.71000000299],"keys_pressed":["leftarrow","rightarrow","rightarrow","leftarrow","leftarrow"],"horizon":5,"forced_choices":["leftarrow","rightarrow","rightarrow","leftarrow"],"right_color":"orange","left_color":"lightblue","left_mu":60,"right_mu":52,"left_numbers":[62,56,67,57,63],"right_numbers":[55,47,64,57,41],"points_earned":293,"phase":"task","trial_type":"horizons-task","trial_index":33,"time_elapsed":687601,"internal_node_id":"0.0-29.0","task_version":"0.2"},{"response_times":[871.4449999970384,664.665000003879,929.4799999915995,1045.880000005127,1775.6250000093132,2202.1249999961583,636.4449999964563,622.4849999998696,459.3849999946542,501.4249999949243],"keys_pressed":["rightarrow","rightarrow","rightarrow","leftarrow","leftarrow","leftarrow","leftarrow","leftarrow","leftarrow","leftarrow"],"horizon":10,"forced_choices":["rightarrow","rightarrow","rightarrow","leftarrow"],"right_color":"orange","left_color":"lightblue","left_mu":40,"right_mu":10,"left_numbers":[34,39,45,29,45,32,45,34,19,45],"right_numbers":[4,11,15,10,4,4,12,10,0,10],"points_earned":279,"phase":"task","trial_type":"horizons-task","trial_index":34,"time_elapsed":698815,"internal_node_id":"0.0-30.0","task_version":"0.2"},{"response_times":[767.5850000086939,924.7049999976298,1455.6849999935366,956.6550000017742,1909.6349999890663,798.5749999934342,666.7750000051456,483.47999999532476,519.495000000461,437.275000003865],"keys_pressed":["rightarrow","leftarrow","leftarrow","rightarrow","leftarrow","leftarrow","leftarrow","leftarrow","leftarrow","leftarrow"],"horizon":10,"forced_choices":["rightarrow","leftarrow","leftarrow","rightarrow"],"right_color":"orange","left_color":"lightblue","left_mu":60,"right_mu":48,"left_numbers":[49,55,58,51,55,73,73,69,71,57],"right_numbers":[50,28,49,49,52,46,54,39,44,53],"points_earned":610,"phase":"task","trial_type":"horizons-task","trial_index":35,"time_elapsed":709241,"internal_node_id":"0.0-31.0","task_version":"0.2"},{"response_times":[849.3149999994785,621.4499999914551,613.8349999964703,1971.7399999935878,1007.0950000081211,852.0349999889731,494.074999995064,396.1049999925308,397.3799999948824,411.8000000016764],"keys_pressed":["leftarrow","leftarrow","rightarrow","leftarrow","rightarrow","rightarrow","rightarrow","rightarrow","rightarrow","rightarrow"],"horizon":10,"forced_choices":["leftarrow","leftarrow","rightarrow","leftarrow"],"right_color":"orange","left_color":"lightblue","left_mu":60,"right_mu":72,"left_numbers":[61,59,54,58,58,54,58,48,56,53],"right_numbers":[68,70,79,60,76,75,57,80,72,79],"points_earned":696,"phase":"task","trial_type":"horizons-task","trial_index":36,"time_elapsed":718381,"internal_node_id":"0.0-32.0","task_version":"0.2"},{"response_times":[780.094999994617,763.6649999913061,839.944999999716,772.7149999991525,6558.535000003758,1203.8599999941653,763.0999999964843,384.08000000345055,366.1100000026636,303.85999999998603],"keys_pressed":["rightarrow","rightarrow","leftarrow","rightarrow","rightarrow","rightarrow","rightarrow","rightarrow","rightarrow","rightarrow"],"horizon":10,"forced_choices":["rightarrow","rightarrow","leftarrow","rightarrow"],"right_color":"lightblue","left_color":"orange","left_mu":40,"right_mu":60,"left_numbers":[44,41,49,35,56,39,41,44,33,36],"right_numbers":[51,42,58,54,63,75,56,70,44,73],"points_earned":577,"phase":"task","trial_type":"horizons-task","trial_index":37,"time_elapsed":732622,"internal_node_id":"0.0-33.0","task_version":"0.2"},{"response_times":[671.4299999875948,559.9899999942863,1190.6600000074832,3391.6949999984354,1681.3249999977415],"keys_pressed":["rightarrow","leftarrow","leftarrow","rightarrow","leftarrow"],"horizon":5,"forced_choices":["rightarrow","leftarrow","leftarrow","rightarrow"],"right_color":"orange","left_color":"lightblue","left_mu":60,"right_mu":48,"left_numbers":[63,62,53,55,71],"right_numbers":[37,54,36,45,60],"points_earned":268,"phase":"task","trial_type":"horizons-task","trial_index":38,"time_elapsed":741621,"internal_node_id":"0.0-34.0","task_version":"0.2"},{"response_times":[709.8149999947054,469.6200000034878,1176.8600000068545,832.1300000097835,1106.2000000092667,1248.5599999927217,485.73500000929926,418.38499999721535,575.1000000018394,321.0349999862956],"keys_pressed":["leftarrow","rightarrow","rightarrow","rightarrow","rightarrow","rightarrow","rightarrow","rightarrow","rightarrow","rightarrow"],"horizon":10,"forced_choices":["leftarrow","rightarrow","rightarrow","rightarrow"],"right_color":"lightblue","left_color":"orange","left_mu":40,"right_mu":70,"left_numbers":[31,37,38,43,40,36,39,31,51,29],"right_numbers":[71,73,67,70,54,81,63,79,86,66],"points_earned":670,"phase":"task","trial_type":"horizons-task","trial_index":39,"time_elapsed":750470,"internal_node_id":"0.0-35.0","task_version":"0.2"},{"response_times":[753.8349999958882,494.3199999979697,839.4550000084564,789.7950000042329,2487.5000000029104,2858.879999999772,666.4199999941047,467.37000001303386,453.3850000007078,809.2350000079023],"keys_pressed":["leftarrow","rightarrow","leftarrow","rightarrow","leftarrow","leftarrow","leftarrow","leftarrow","leftarrow","leftarrow"],"horizon":10,"forced_choices":["leftarrow","rightarrow","leftarrow","rightarrow"],"right_color":"lightblue","left_color":"orange","left_mu":40,"right_mu":36,"left_numbers":[30,53,54,41,40,48,40,43,37,38],"right_numbers":[33,37,45,29,34,30,38,36,40,45],"points_earned":396,"phase":"task","trial_type":"horizons-task","trial_index":40,"time_elapsed":762595,"internal_node_id":"0.0-36.0","task_version":"0.2"},{"response_times":[747.6650000025984,456.8849999923259,846.9650000042748,1195.7599999877857,1453.1699999934062],"keys_pressed":["rightarrow","leftarrow","leftarrow","rightarrow","rightarrow"],"horizon":5,"forced_choices":["rightarrow","leftarrow","leftarrow","rightarrow"],"right_color":"lightblue","left_color":"orange","left_mu":60,"right_mu":64,"left_numbers":[56,62,57,63,75],"right_numbers":[75,52,69,68,87],"points_earned":349,"phase":"task","trial_type":"horizons-task","trial_index":41,"time_elapsed":768800,"internal_node_id":"0.0-37.0","task_version":"0.2"},{"response_times":[750.4049999988638,421.14500000025146,705.4899999930058,566.00000000617,2060.9850000037113,1565.8950000070035,1673.54499999783,1699.9650000070687,705.1200000132667,466.35499999683816],"keys_pressed":["leftarrow","rightarrow","leftarrow","rightarrow","leftarrow","leftarrow","leftarrow","leftarrow","leftarrow","leftarrow"],"horizon":10,"forced_choices":["leftarrow","rightarrow","leftarrow","rightarrow"],"right_color":"lightblue","left_color":"orange","left_mu":40,"right_mu":32,"left_numbers":[38,34,40,41,37,42,52,37,53,44],"right_numbers":[24,25,40,31,25,44,25,27,21,27],"points_earned":399,"phase":"task","trial_type":"horizons-task","trial_index":42,"time_elapsed":780920,"internal_node_id":"0.0-38.0","task_version":"0.2"},{"response_times":[699.5999999926426,741.2500000064028,1276.2749999965308,544.2449999973178,1736.6250000050059,446.46999999531545,300.99499999778345,222.39999999874271,235.36999999487307,323.9549999998417],"keys_pressed":["rightarrow","rightarrow","leftarrow","leftarrow","rightarrow","rightarrow","rightarrow","rightarrow","rightarrow","rightarrow"],"horizon":10,"forced_choices":["rightarrow","rightarrow","leftarrow","leftarrow"],"right_color":"lightblue","left_color":"orange","left_mu":40,"right_mu":70,"left_numbers":[47,22,49,41,46,43,34,28,48,50],"right_numbers":[79,74,67,67,65,66,62,59,84,66],"points_earned":645,"phase":"task","trial_type":"horizons-task","trial_index":43,"time_elapsed":788981,"internal_node_id":"0.0-39.0","task_version":"0.2"},{"response_times":[760.1999999897089,1339.4600000028731,908.2900000066729,1915.1549999951385,725.2650000009453],"keys_pressed":["rightarrow","leftarrow","rightarrow","leftarrow","leftarrow"],"horizon":5,"forced_choices":["rightarrow","leftarrow","rightarrow","leftarrow"],"right_color":"orange","left_color":"lightblue","left_mu":40,"right_mu":20,"left_numbers":[30,40,41,34,40],"right_numbers":[17,33,16,19,19],"points_earned":147,"phase":"task","trial_type":"horizons-task","trial_index":44,"time_elapsed":796135,"internal_node_id":"0.0-40.0","task_version":"0.2"},{"response_times":[801.579999999376,398.124999992433,1061.8949999916367,913.1150000030175,2493.0850000091596,839.7100000001956,553.1650000048103,326.9399999990128,312.275000003865,308.16000000049826],"keys_pressed":["leftarrow","rightarrow","rightarrow","leftarrow","rightarrow","rightarrow","rightarrow","rightarrow","rightarrow","rightarrow"],"horizon":10,"forced_choices":["leftarrow","rightarrow","rightarrow","leftarrow"],"right_color":"orange","left_color":"lightblue","left_mu":40,"right_mu":52,"left_numbers":[19,50,37,38,43,31,41,49,26,47],"right_numbers":[58,40,41,56,62,56,65,63,46,56],"points_earned":486,"phase":"task","trial_type":"horizons-task","trial_index":45,"time_elapsed":805649,"internal_node_id":"0.0-41.0","task_version":"0.2"},{"response_times":[1018.0899999977555,619.154999993043,922.0549999881769,631.2699999980396,2200.0649999972666,1532.680000003893,2159.5050000032643,534.1950000001816,349.0250000031665,280.2450000017416],"keys_pressed":["leftarrow","rightarrow","leftarrow","leftarrow","rightarrow","rightarrow","rightarrow","rightarrow","rightarrow","rightarrow"],"horizon":10,"forced_choices":["leftarrow","rightarrow","leftarrow","leftarrow"],"right_color":"lightblue","left_color":"orange","left_mu":60,"right_mu":80,"left_numbers":[59,54,59,70,49,77,76,57,53,65],"right_numbers":[80,87,84,79,87,80,78,74,69,53],"points_earned":716,"phase":"task","trial_type":"horizons-task","trial_index":46,"time_elapsed":817400,"internal_node_id":"0.0-42.0","task_version":"0.2"},{"response_times":[784.4349999941187,656.925000002957,896.2849999952596,997.6650000025984,2277.2249999979977,6064.135000007809,977.9150000103982,565.8150000090245,344.0300000074785,438.92000000050757],"keys_pressed":["rightarrow","leftarrow","leftarrow","leftarrow","rightarrow","leftarrow","leftarrow","leftarrow","leftarrow","leftarrow"],"horizon":10,"forced_choices":["rightarrow","leftarrow","leftarrow","leftarrow"],"right_color":"orange","left_color":"lightblue","left_mu":60,"right_mu":48,"left_numbers":[54,58,46,47,73,54,50,77,69,62],"right_numbers":[45,43,54,57,41,62,55,60,54,59],"points_earned":549,"phase":"task","trial_type":"horizons-task","trial_index":47,"time_elapsed":832909,"internal_node_id":"0.0-43.0","task_version":"0.2"},{"response_times":[766.9049999967683,629.3299999961164,1054.759999999078,699.9650000070687,2311.535000000731],"keys_pressed":["rightarrow","leftarrow","rightarrow","leftarrow","rightarrow"],"horizon":5,"forced_choices":["rightarrow","leftarrow","rightarrow","leftarrow"],"right_color":"lightblue","left_color":"orange","left_mu":40,"right_mu":60,"left_numbers":[38,41,26,40,50],"right_numbers":[54,56,54,50,55],"points_earned":244,"phase":"task","trial_type":"horizons-task","trial_index":48,"time_elapsed":839877,"internal_node_id":"0.0-44.0","task_version":"0.2"},{"response_times":[715.1350000058301,507.8450000000885,483.3500000095228,663.5700000042561,2520.889999999781],"keys_pressed":["rightarrow","leftarrow","rightarrow","rightarrow","leftarrow"],"horizon":5,"forced_choices":["rightarrow","leftarrow","rightarrow","rightarrow"],"right_color":"orange","left_color":"lightblue","left_mu":60,"right_mu":68,"left_numbers":[72,73,71,70,48],"right_numbers":[65,72,57,54,77],"points_earned":297,"phase":"task","trial_type":"horizons-task","trial_index":49,"time_elapsed":846272,"internal_node_id":"0.0-45.0","task_version":"0.2"},{"response_times":[665.8100000058766,370.3699999896344,499.4200000073761,780.4599999944912,11407.334999996237,4639.804999998887,8507.119999994757,1213.3650000032503,575.2250000077765,377.3350000119535],"keys_pressed":["rightarrow","leftarrow","rightarrow","rightarrow","leftarrow","leftarrow","rightarrow","leftarrow","leftarrow","leftarrow"],"horizon":10,"forced_choices":["rightarrow","leftarrow","rightarrow","rightarrow"],"right_color":"orange","left_color":"lightblue","left_mu":60,"right_mu":52,"left_numbers":[45,54,57,70,61,58,63,72,51,53],"right_numbers":[46,48,59,54,38,58,45,57,55,47],"points_earned":553,"phase":"task","trial_type":"horizons-task","trial_index":50,"time_elapsed":876813,"internal_node_id":"0.0-46.0","task_version":"0.2"},{"view_history":"[{\"page_index\":0,\"viewing_time\":19902.880000008736},{\"page_index\":1,\"viewing_time\":3854.024999993271}]","rt":23757.754999998724,"trial_type":"instructions","trial_index":51,"time_elapsed":900573,"internal_node_id":"0.0-47.0","task_version":"0.2"},{"response_times":[843.0200000002515,460.1199999888195,685.7099999906495,439.0949999942677,2702.1249999961583,760.5800000019372,472.7849999908358,224.83500000089407,180.14499999117106,424.32999999437016],"keys_pressed":["leftarrow","leftarrow","rightarrow","rightarrow","rightarrow","rightarrow","rightarrow","rightarrow","rightarrow","rightarrow"],"horizon":10,"forced_choices":["leftarrow","leftarrow","rightarrow","rightarrow"],"right_color":"orange","left_color":"lightblue","left_mu":40,"right_mu":44,"left_numbers":[22,45,44,47,31,46,37,52,43,37],"right_numbers":[61,41,42,31,48,43,51,54,32,44],"points_earned":412,"phase":"task","trial_type":"horizons-task","trial_index":52,"time_elapsed":909286,"internal_node_id":"0.0-48.0","task_version":"0.2"},{"response_times":[743.9250000024913,543.9749999932246,539.9400000023888,865.7249999960186,2883.110000009765,879.2600000015227,1084.3349999922793,440.9449999948265,288.0499999882886,216.92000000621192],"keys_pressed":["rightarrow","leftarrow","leftarrow","leftarrow","leftarrow","leftarrow","leftarrow","leftarrow","leftarrow","leftarrow"],"horizon":10,"forced_choices":["rightarrow","leftarrow","leftarrow","leftarrow"],"right_color":"lightblue","left_color":"orange","left_mu":40,"right_mu":32,"left_numbers":[30,41,51,39,28,44,28,41,35,36],"right_numbers":[35,35,43,42,36,41,36,32,44,32],"points_earned":378,"phase":"task","trial_type":"horizons-task","trial_index":53,"time_elapsed":919278,"internal_node_id":"0.0-49.0","task_version":"0.2"},{"response_times":[628.035000001546,520.9350000077393,747.0099999918602,1597.3749999975553,1054.6600000088802],"keys_pressed":["rightarrow","leftarrow","leftarrow","leftarrow","leftarrow"],"horizon":5,"forced_choices":["rightarrow","leftarrow","leftarrow","leftarrow"],"right_color":"orange","left_color":"lightblue","left_mu":60,"right_mu":48,"left_numbers":[70,54,59,63,56],"right_numbers":[30,42,52,46,40],"points_earned":262,"phase":"task","trial_type":"horizons-task","trial_index":54,"time_elapsed":925330,"internal_node_id":"0.0-50.0","task_version":"0.2"},{"response_times":[531.2850000045728,518.580000003567,589.1699999920093,1022.7000000013504,2478.4899999940535,1930.064999993192,1139.3749999988358,572.6399999985006,570.1149999949848,412.9699999903096],"keys_pressed":["rightarrow","leftarrow","leftarrow","rightarrow","rightarrow","rightarrow","rightarrow","rightarrow","rightarrow","rightarrow"],"horizon":10,"forced_choices":["rightarrow","leftarrow","leftarrow","rightarrow"],"right_color":"lightblue","left_color":"orange","left_mu":60,"right_mu":56,"left_numbers":[65,59,43,46,64,46,54,71,78,71],"right_numbers":[58,55,65,59,49,55,62,57,68,52],"points_earned":562,"phase":"task","trial_type":"horizons-task","trial_index":55,"time_elapsed":936602,"internal_node_id":"0.0-51.0","task_version":"0.2"},{"response_times":[702.0550000015646,515.9249999996973,1222.9300000035437,678.5350000136532,14060.209999996005],"keys_pressed":["leftarrow","rightarrow","leftarrow","rightarrow","leftarrow"],"horizon":5,"forced_choices":["leftarrow","rightarrow","leftarrow","rightarrow"],"right_color":"lightblue","left_color":"orange","left_mu":40,"right_mu":36,"left_numbers":[43,41,45,39,36],"right_numbers":[34,33,26,50,35],"points_earned":207,"phase":"task","trial_type":"horizons-task","trial_index":56,"time_elapsed":955287,"internal_node_id":"0.0-52.0","task_version":"0.2"},{"response_times":[892.6749999955064,665.6800000055227,459.2700000066543,1032.4849999888102,1530.205000002752],"keys_pressed":["leftarrow","rightarrow","leftarrow","rightarrow","rightarrow"],"horizon":5,"forced_choices":["leftarrow","rightarrow","leftarrow","rightarrow"],"right_color":"orange","left_color":"lightblue","left_mu":40,"right_mu":48,"left_numbers":[27,42,34,49,37],"right_numbers":[47,38,33,50,52],"points_earned":201,"phase":"task","trial_type":"horizons-task","trial_index":57,"time_elapsed":961373,"internal_node_id":"0.0-53.0","task_version":"0.2"},{"response_times":[737.9750000109198,820.305000001099,851.7150000116089,1041.4599999930942,4750.1199999969685],"keys_pressed":["rightarrow","rightarrow","rightarrow","leftarrow","rightarrow"],"horizon":5,"forced_choices":["rightarrow","rightarrow","rightarrow","leftarrow"],"right_color":"orange","left_color":"lightblue","left_mu":40,"right_mu":48,"left_numbers":[38,48,28,43,39],"right_numbers":[54,47,41,62,46],"points_earned":231,"phase":"task","trial_type":"horizons-task","trial_index":58,"time_elapsed":971079,"internal_node_id":"0.0-54.0","task_version":"0.2"},{"response_times":[872.8700000065146,604.2250000027707,516.0800000012387,641.7349999974249,3675.5899999989197,5642.724999997881,1688.2199999963632,386.3700000074459,298.8200000108918,298.5400000034133],"keys_pressed":["rightarrow","leftarrow","leftarrow","leftarrow","leftarrow","rightarrow","leftarrow","leftarrow","leftarrow","leftarrow"],"horizon":10,"forced_choices":["rightarrow","leftarrow","leftarrow","leftarrow"],"right_color":"lightblue","left_color":"orange","left_mu":60,"right_mu":30,"left_numbers":[57,57,69,59,62,53,55,56,63,58],"right_numbers":[27,39,32,33,40,36,33,50,24,28],"points_earned":542,"phase":"task","trial_type":"horizons-task","trial_index":59,"time_elapsed":987210,"internal_node_id":"0.0-55.0","task_version":"0.2"},{"response_times":[688.5650000040187,636.144999996759,1001.4950000040699,1427.1600000065519,929.8150000104215],"keys_pressed":["rightarrow","rightarrow","leftarrow","rightarrow","rightarrow"],"horizon":5,"forced_choices":["rightarrow","rightarrow","leftarrow","rightarrow"],"right_color":"lightblue","left_color":"orange","left_mu":40,"right_mu":60,"left_numbers":[38,48,43,45,36],"right_numbers":[49,60,62,60,70],"points_earned":282,"phase":"task","trial_type":"horizons-task","trial_index":60,"time_elapsed":993398,"internal_node_id":"0.0-56.0","task_version":"0.2"},{"response_times":[572.729999999865,678.604999993695,387.70999999542255,521.150000000489,2318.760000009206,536.5300000121351,439.1899999900488,321.7399999994086,209.14999999513384,205.76500000606757],"keys_pressed":["rightarrow","leftarrow","rightarrow","leftarrow","leftarrow","leftarrow","leftarrow","leftarrow","leftarrow","leftarrow"],"horizon":10,"forced_choices":["rightarrow","leftarrow","rightarrow","leftarrow"],"right_color":"orange","left_color":"lightblue","left_mu":40,"right_mu":20,"left_numbers":[50,45,32,40,38,31,49,45,42,43],"right_numbers":[28,17,20,22,37,20,17,12,14,15],"points_earned":381,"phase":"task","trial_type":"horizons-task","trial_index":61,"time_elapsed":1001094,"internal_node_id":"0.0-57.0","task_version":"0.2"},{"response_times":[1014.1050000092946,460.92500000668224,447.6799999974901,452.02500000596046,1778.8750000036089,535.5399999971269,334.11500000511296,315.15500000386965,305.9099999954924,300.67500000586733],"keys_pressed":["leftarrow","rightarrow","leftarrow","rightarrow","leftarrow","leftarrow","leftarrow","leftarrow","leftarrow","leftarrow"],"horizon":10,"forced_choices":["leftarrow","rightarrow","leftarrow","rightarrow"],"right_color":"lightblue","left_color":"orange","left_mu":60,"right_mu":30,"left_numbers":[54,52,60,69,77,50,62,55,61,65],"right_numbers":[22,32,14,40,31,29,21,25,41,26],"points_earned":556,"phase":"task","trial_type":"horizons-task","trial_index":62,"time_elapsed":1008544,"internal_node_id":"0.0-58.0","task_version":"0.2"},{"response_times":[876.2600000045495,464.430000007269,623.0300000024727,506.13999999768566,2770.1149999920744,742.2200000000885,438.6500000109663,265.3850000060629,261.5650000079768,259.2049999948358],"keys_pressed":["rightarrow","leftarrow","leftarrow","rightarrow","rightarrow","rightarrow","rightarrow","rightarrow","rightarrow","rightarrow"],"horizon":10,"forced_choices":["rightarrow","leftarrow","leftarrow","rightarrow"],"right_color":"lightblue","left_color":"orange","left_mu":60,"right_mu":64,"left_numbers":[74,46,62,60,60,57,56,59,50,65],"right_numbers":[60,59,74,61,72,65,77,56,71,75],"points_earned":645,"phase":"task","trial_type":"horizons-task","trial_index":63,"time_elapsed":1017255,"internal_node_id":"0.0-59.0","task_version":"0.2"},{"response_times":[754.1349999955855,416.5199999988545,524.5149999973364,1306.6650000109803,3121.115000001737],"keys_pressed":["leftarrow","rightarrow","rightarrow","rightarrow","leftarrow"],"horizon":5,"forced_choices":["leftarrow","rightarrow","rightarrow","rightarrow"],"right_color":"orange","left_color":"lightblue","left_mu":40,"right_mu":20,"left_numbers":[42,48,30,38,41],"right_numbers":[36,23,17,26,29],"points_earned":149,"phase":"task","trial_type":"horizons-task","trial_index":64,"time_elapsed":1024883,"internal_node_id":"0.0-60.0","task_version":"0.2"},{"response_times":[731.7649999895366,387.0500000048196,515.1550000009593,801.4550000079907,2049.909999986994],"keys_pressed":["leftarrow","rightarrow","rightarrow","rightarrow","rightarrow"],"horizon":5,"forced_choices":["leftarrow","rightarrow","rightarrow","rightarrow"],"right_color":"orange","left_color":"lightblue","left_mu":40,"right_mu":52,"left_numbers":[45,35,36,31,47],"right_numbers":[60,57,53,50,44],"points_earned":249,"phase":"task","trial_type":"horizons-task","trial_index":65,"time_elapsed":1030874,"internal_node_id":"0.0-61.0","task_version":"0.2"},{"response_times":[770.2600000047823,524.8949999950128,496.9249999994645,828.73500000278,7245.0149999931455],"keys_pressed":["leftarrow","leftarrow","rightarrow","rightarrow","rightarrow"],"horizon":5,"forced_choices":["leftarrow","leftarrow","rightarrow","rightarrow"],"right_color":"orange","left_color":"lightblue","left_mu":40,"right_mu":44,"left_numbers":[36,41,44,42,36],"right_numbers":[39,29,34,44,39],"points_earned":194,"phase":"task","trial_type":"horizons-task","trial_index":66,"time_elapsed":1042244,"internal_node_id":"0.0-62.0","task_version":"0.2"},{"response_times":[710.5100000044331,511.305000007269,465.98000000813045,607.7599999989616,2190.824999997858],"keys_pressed":["rightarrow","leftarrow","leftarrow","rightarrow","rightarrow"],"horizon":5,"forced_choices":["rightarrow","leftarrow","leftarrow","rightarrow"],"right_color":"orange","left_color":"lightblue","left_mu":60,"right_mu":68,"left_numbers":[50,63,63,49,52],"right_numbers":[75,78,74,70,69],"points_earned":340,"phase":"task","trial_type":"horizons-task","trial_index":67,"time_elapsed":1048236,"internal_node_id":"0.0-63.0","task_version":"0.2"},{"response_times":[800.8049999915529,427.5899999921676,458.9399999966845,891.2249999996275,4463.084999995772],"keys_pressed":["leftarrow","rightarrow","rightarrow","rightarrow","rightarrow"],"horizon":5,"forced_choices":["leftarrow","rightarrow","rightarrow","rightarrow"],"right_color":"lightblue","left_color":"orange","left_mu":40,"right_mu":70,"left_numbers":[36,33,50,32,38],"right_numbers":[60,81,68,84,63],"points_earned":332,"phase":"task","trial_type":"horizons-task","trial_index":68,"time_elapsed":1056785,"internal_node_id":"0.0-64.0","task_version":"0.2"},{"response_times":[732.6499999908265,420.8599999982398,380.58000001194887,501.30499999807216,1237.4950000084937],"keys_pressed":["leftarrow","leftarrow","leftarrow","rightarrow","rightarrow"],"horizon":5,"forced_choices":["leftarrow","leftarrow","leftarrow","rightarrow"],"right_color":"lightblue","left_color":"orange","left_mu":60,"right_mu":90,"left_numbers":[51,67,56,49,61],"right_numbers":[99,87,82,92,93],"points_earned":359,"phase":"task","trial_type":"horizons-task","trial_index":69,"time_elapsed":1061566,"internal_node_id":"0.0-65.0","task_version":"0.2"},{"response_times":[740.9699999990407,384.8299999954179,387.2199999894947,645.4249999951571,884.7500000118744],"keys_pressed":["rightarrow","rightarrow","rightarrow","leftarrow","leftarrow"],"horizon":5,"forced_choices":["rightarrow","rightarrow","rightarrow","leftarrow"],"right_color":"orange","left_color":"lightblue","left_mu":40,"right_mu":10,"left_numbers":[55,52,42,38,47],"right_numbers":[5,9,15,10,23],"points_earned":114,"phase":"task","trial_type":"horizons-task","trial_index":70,"time_elapsed":1066113,"internal_node_id":"0.0-66.0","task_version":"0.2"},{"response_times":[443.54499998735264,363.10499999672174,705.4999999962747,715.765000000596,1299.0399999981746],"keys_pressed":["rightarrow","rightarrow","leftarrow","leftarrow","leftarrow"],"horizon":5,"forced_choices":["rightarrow","rightarrow","leftarrow","leftarrow"],"right_color":"orange","left_color":"lightblue","left_mu":40,"right_mu":10,"left_numbers":[46,49,33,31,35],"right_numbers":[4,0,18,7,14],"points_earned":103,"phase":"task","trial_type":"horizons-task","trial_index":71,"time_elapsed":1071144,"internal_node_id":"0.0-67.0","task_version":"0.2"},{"response_times":[983.0149999905843,465.37499999976717,431.10000000172295,443.40999999269843,5086.720000006724,478.8950000074692,415.85000000474975,334.419999999227,317.3399999940302,385.8349999936763],"keys_pressed":["leftarrow","rightarrow","rightarrow","rightarrow","rightarrow","rightarrow","rightarrow","rightarrow","rightarrow","rightarrow"],"horizon":10,"forced_choices":["leftarrow","rightarrow","rightarrow","rightarrow"],"right_color":"orange","left_color":"lightblue","left_mu":40,"right_mu":52,"left_numbers":[36,49,36,28,38,48,41,32,37,45],"right_numbers":[42,50,46,46,51,64,58,64,54,34],"points_earned":503,"phase":"task","trial_type":"horizons-task","trial_index":72,"time_elapsed":1081991,"internal_node_id":"0.0-68.0","task_version":"0.2"},{"response_times":[799.2950000043493,504.17499999469146,421.4300000022631,495.2800000028219,2477.3750000020955,1595.0299999967683,485.27000000467524,421.12500000791624,384.28500000713393,269.7950000001583],"keys_pressed":["rightarrow","leftarrow","leftarrow","rightarrow","rightarrow","rightarrow","rightarrow","rightarrow","rightarrow","rightarrow"],"horizon":10,"forced_choices":["rightarrow","leftarrow","leftarrow","rightarrow"],"right_color":"orange","left_color":"lightblue","left_mu":60,"right_mu":68,"left_numbers":[52,59,54,59,66,49,57,59,52,68],"right_numbers":[68,63,77,77,64,68,78,73,74,60],"points_earned":675,"phase":"task","trial_type":"horizons-task","trial_index":73,"time_elapsed":1091348,"internal_node_id":"0.0-69.0","task_version":"0.2"},{"response_times":[730.129999996163,379.06000000657514,510.4199999915436,1213.6199999949895,999.0800000084564],"keys_pressed":["leftarrow","rightarrow","leftarrow","rightarrow","leftarrow"],"horizon":5,"forced_choices":["leftarrow","rightarrow","leftarrow","rightarrow"],"right_color":"lightblue","left_color":"orange","left_mu":60,"right_mu":30,"left_numbers":[51,53,45,56,61],"right_numbers":[27,31,29,24,30],"points_earned":212,"phase":"task","trial_type":"horizons-task","trial_index":74,"time_elapsed":1096686,"internal_node_id":"0.0-70.0","task_version":"0.2"},{"response_times":[739.5099999995437,409.15999999572523,503.71000000461936,1973.754999998957,7295.324999999022],"keys_pressed":["leftarrow","rightarrow","leftarrow","rightarrow","leftarrow"],"horizon":5,"forced_choices":["leftarrow","rightarrow","leftarrow","rightarrow"],"right_color":"lightblue","left_color":"orange","left_mu":40,"right_mu":32,"left_numbers":[42,41,44,30,46],"right_numbers":[29,45,32,32,32],"points_earned":209,"phase":"task","trial_type":"horizons-task","trial_index":75,"time_elapsed":1109113,"internal_node_id":"0.0-71.0","task_version":"0.2"},{"response_times":[750.4800000023097,1421.2300000071991,4964.9199999985285,1347.6999999983236,2069.78000000515],"keys_pressed":["leftarrow","leftarrow","leftarrow","rightarrow","leftarrow"],"horizon":5,"forced_choices":["leftarrow","leftarrow","leftarrow","rightarrow"],"right_color":"lightblue","left_color":"orange","left_mu":40,"right_mu":36,"left_numbers":[52,32,52,32,39],"right_numbers":[40,47,35,39,44],"points_earned":214,"phase":"task","trial_type":"horizons-task","trial_index":76,"time_elapsed":1121173,"internal_node_id":"0.0-72.0","task_version":"0.2"},{"response_times":[720.1849999984261,453.7549999952316,512.2800000100397,542.4950000015087,7071.614999993704,4424.28500000108,497.08500000974163,329.4400000013411,236.7050000031013,187.26500000036322],"keys_pressed":["leftarrow","rightarrow","rightarrow","leftarrow","leftarrow","leftarrow","leftarrow","leftarrow","leftarrow","leftarrow"],"horizon":10,"forced_choices":["leftarrow","rightarrow","rightarrow","leftarrow"],"right_color":"orange","left_color":"lightblue","left_mu":60,"right_mu":52,"left_numbers":[63,78,49,56,66,64,62,66,46,55],"right_numbers":[59,51,47,53,55,47,57,36,42,60],"points_earned":576,"phase":"task","trial_type":"horizons-task","trial_index":77,"time_elapsed":1137653,"internal_node_id":"0.0-73.0","task_version":"0.2"},{"response_times":[899.5849999920465,445.0900000084657,1231.6300000092015,907.0349999966566,590.2150000038091],"keys_pressed":["leftarrow","rightarrow","rightarrow","leftarrow","rightarrow"],"horizon":5,"forced_choices":["leftarrow","rightarrow","rightarrow","leftarrow"],"right_color":"orange","left_color":"lightblue","left_mu":40,"right_mu":52,"left_numbers":[34,44,41,33,49],"right_numbers":[59,52,68,47,48],"points_earned":235,"phase":"task","trial_type":"horizons-task","trial_index":78,"time_elapsed":1143229,"internal_node_id":"0.0-74.0","task_version":"0.2"},{"response_times":[670.9649999975227,392.67000000108965,406.18000000552274,969.3100000002887,4022.835000010673,689.94000001112,591.8600000005681,4579.089999999385,5167.495000001509,4411.240000001155],"keys_pressed":["rightarrow","rightarrow","rightarrow","leftarrow","rightarrow","rightarrow","rightarrow","leftarrow","leftarrow","rightarrow"],"horizon":10,"forced_choices":["rightarrow","rightarrow","rightarrow","leftarrow"],"right_color":"orange","left_color":"lightblue","left_mu":40,"right_mu":48,"left_numbers":[54,27,36,38,32,38,51,48,47,35],"right_numbers":[50,36,44,43,56,45,38,42,54,40],"points_earned":442,"phase":"task","trial_type":"horizons-task","trial_index":79,"time_elapsed":1166636,"internal_node_id":"0.0-75.0","task_version":"0.2"},{"response_times":[822.6449999930337,392.69499998772517,494.80499999481253,674.0050000078045,2381.389999995008,627.7349999872968,409.0499999874737,341.5099999983795,424.7800000011921,291.92499999771826],"keys_pressed":["leftarrow","leftarrow","rightarrow","rightarrow","leftarrow","leftarrow","leftarrow","leftarrow","leftarrow","leftarrow"],"horizon":10,"forced_choices":["leftarrow","leftarrow","rightarrow","rightarrow"],"right_color":"orange","left_color":"lightblue","left_mu":60,"right_mu":40,"left_numbers":[51,50,69,47,64,60,46,57,65,59],"right_numbers":[54,50,40,47,42,46,44,43,35,32],"points_earned":539,"phase":"task","trial_type":"horizons-task","trial_index":80,"time_elapsed":1175002,"internal_node_id":"0.0-76.0","task_version":"0.2"},{"response_times":[722.3150000064634,476.54499999783,514.4100000034086,620.9150000067893,5605.3699999901,706.5049999945331,429.0849999960046,387.48999999370426,377.13500000257045,417.8400000091642],"keys_pressed":["leftarrow","leftarrow","rightarrow","leftarrow","leftarrow","leftarrow","leftarrow","leftarrow","leftarrow","leftarrow"],"horizon":10,"forced_choices":["leftarrow","leftarrow","rightarrow","leftarrow"],"right_color":"lightblue","left_color":"orange","left_mu":60,"right_mu":56,"left_numbers":[51,52,48,58,64,60,59,50,61,65],"right_numbers":[49,49,50,41,51,60,49,56,65,52],"points_earned":570,"phase":"task","trial_type":"horizons-task","trial_index":81,"time_elapsed":1186766,"internal_node_id":"0.0-77.0","task_version":"0.2"},{"response_times":[803.7399999883492,556.3899999978021,639.9749999982305,713.0150000012945,2301.2000000015832,523.7449999987148,705.1400000057183,391.98499999474734,2197.6350000042003,290.31000001123175],"keys_pressed":["rightarrow","leftarrow","rightarrow","leftarrow","rightarrow","rightarrow","rightarrow","rightarrow","rightarrow","rightarrow"],"horizon":10,"forced_choices":["rightarrow","leftarrow","rightarrow","leftarrow"],"right_color":"lightblue","left_color":"orange","left_mu":40,"right_mu":60,"left_numbers":[32,42,40,39,39,49,31,46,52,32],"right_numbers":[58,58,69,57,52,62,40,51,51,54],"points_earned":518,"phase":"task","trial_type":"horizons-task","trial_index":82,"time_elapsed":1197396,"internal_node_id":"0.0-78.0","task_version":"0.2"},{"response_times":[733.3550000041723,485.16000001109205,645.5100000021048,703.0850000008941,3116.8949999990873],"keys_pressed":["rightarrow","rightarrow","leftarrow","rightarrow","rightarrow"],"horizon":5,"forced_choices":["rightarrow","rightarrow","leftarrow","rightarrow"],"right_color":"orange","left_color":"lightblue","left_mu":40,"right_mu":44,"left_numbers":[47,43,41,40,36],"right_numbers":[44,39,45,50,43],"points_earned":217,"phase":"task","trial_type":"horizons-task","trial_index":83,"time_elapsed":1204584,"internal_node_id":"0.0-79.0","task_version":"0.2"},{"response_times":[705.8749999995343,520.0000000039581,498.2549999987241,844.4949999973178,1410.144999987213,4254.150000007823,1566.034999995958,706.8099999886472,272.8400000052061,223.1000000028871],"keys_pressed":["leftarrow","rightarrow","rightarrow","rightarrow","leftarrow","leftarrow","rightarrow","leftarrow","leftarrow","leftarrow"],"horizon":10,"forced_choices":["leftarrow","rightarrow","rightarrow","rightarrow"],"right_color":"orange","left_color":"lightblue","left_mu":40,"right_mu":20,"left_numbers":[40,52,38,36,16,38,47,46,38,28],"right_numbers":[10,17,18,25,18,0,13,17,30,12],"points_earned":279,"phase":"task","trial_type":"horizons-task","trial_index":84,"time_elapsed":1217091,"internal_node_id":"0.0-80.0","task_version":"0.2"},{"response_times":[716.6849999921396,367.8900000087451,507.9950000073295,710.1350000011735,2237.210000006715,1173.6699999892153,488.515000004787,328.9949999889359,345.20499999052845,460.2849999938626],"keys_pressed":["leftarrow","leftarrow","rightarrow","leftarrow","leftarrow","leftarrow","leftarrow","leftarrow","leftarrow","leftarrow"],"horizon":10,"forced_choices":["leftarrow","leftarrow","rightarrow","leftarrow"],"right_color":"orange","left_color":"lightblue","left_mu":60,"right_mu":40,"left_numbers":[68,55,65,71,55,61,54,67,59,43],"right_numbers":[34,46,48,38,22,48,38,46,26,42],"points_earned":581,"phase":"task","trial_type":"horizons-task","trial_index":85,"time_elapsed":1225932,"internal_node_id":"0.0-81.0","task_version":"0.2"},{"response_times":[523.6300000105985,404.31499999249354,911.3800000050105,1769.1800000029616,3225.214999998687],"keys_pressed":["leftarrow","rightarrow","leftarrow","leftarrow","rightarrow"],"horizon":5,"forced_choices":["leftarrow","rightarrow","leftarrow","leftarrow"],"right_color":"lightblue","left_color":"orange","left_mu":60,"right_mu":80,"left_numbers":[70,49,67,70,68],"right_numbers":[73,85,71,79,87],"points_earned":379,"phase":"task","trial_type":"horizons-task","trial_index":86,"time_elapsed":1234271,"internal_node_id":"0.0-82.0","task_version":"0.2"},{"response_times":[691.2149999989197,475.5500000026077,453.694999989355,829.1800000006333,2333.419999995269],"keys_pressed":["leftarrow","leftarrow","rightarrow","rightarrow","leftarrow"],"horizon":5,"forced_choices":["leftarrow","leftarrow","rightarrow","rightarrow"],"right_color":"orange","left_color":"lightblue","left_mu":60,"right_mu":40,"left_numbers":[46,62,62,69,54],"right_numbers":[39,42,38,36,49],"points_earned":236,"phase":"task","trial_type":"horizons-task","trial_index":87,"time_elapsed":1240559,"internal_node_id":"0.0-83.0","task_version":"0.2"},{"response_times":[776.7499999899883,385.86499998904765,435.47499999124557,467.0299999997951,1912.5249999924563,928.7049999984447,1713.4700000025332,722.6999999985565,375.1799999882933,301.98999999277294],"keys_pressed":["leftarrow","rightarrow","rightarrow","leftarrow","rightarrow","rightarrow","rightarrow","rightarrow","rightarrow","rightarrow"],"horizon":10,"forced_choices":["leftarrow","rightarrow","rightarrow","leftarrow"],"right_color":"lightblue","left_color":"orange","left_mu":60,"right_mu":80,"left_numbers":[65,52,71,65,50,58,51,49,42,51],"right_numbers":[82,82,80,71,99,72,77,75,75,85],"points_earned":775,"phase":"task","trial_type":"horizons-task","trial_index":88,"time_elapsed":1250083,"internal_node_id":"0.0-84.0","task_version":"0.2"},{"response_times":[761.8999999978114,431.86500000581145,400.92500000889413,928.5099999979138,990.2199999925215],"keys_pressed":["leftarrow","leftarrow","rightarrow","leftarrow","leftarrow"],"horizon":5,"forced_choices":["leftarrow","leftarrow","rightarrow","leftarrow"],"right_color":"orange","left_color":"lightblue","left_mu":60,"right_mu":40,"left_numbers":[53,54,45,64,66],"right_numbers":[34,33,32,43,42],"points_earned":269,"phase":"task","trial_type":"horizons-task","trial_index":89,"time_elapsed":1255105,"internal_node_id":"0.0-85.0","task_version":"0.2"},{"response_times":[771.6900000085589,403.3499999931082,523.6599999917671,890.1599999954924,5828.265000003856],"keys_pressed":["leftarrow","leftarrow","rightarrow","leftarrow","leftarrow"],"horizon":5,"forced_choices":["leftarrow","leftarrow","rightarrow","leftarrow"],"right_color":"lightblue","left_color":"orange","left_mu":60,"right_mu":56,"left_numbers":[59,60,50,33,46],"right_numbers":[67,57,50,66,50],"points_earned":248,"phase":"task","trial_type":"horizons-task","trial_index":90,"time_elapsed":1265027,"internal_node_id":"0.0-86.0","task_version":"0.2"},{"response_times":[754.6050000092946,480.0049999903422,477.1250000051223,1176.5949999969453,2229.2149999993853],"keys_pressed":["rightarrow","leftarrow","rightarrow","rightarrow","leftarrow"],"horizon":5,"forced_choices":["rightarrow","leftarrow","rightarrow","rightarrow"],"right_color":"orange","left_color":"lightblue","left_mu":60,"right_mu":52,"left_numbers":[65,63,53,58,67],"right_numbers":[58,33,32,53,42],"points_earned":273,"phase":"task","trial_type":"horizons-task","trial_index":91,"time_elapsed":1271651,"internal_node_id":"0.0-87.0","task_version":"0.2"},{"rt":15232.665000003297,"responses":{"age":"20","gender-categorical":"Female","gender-free-response":"","ethnicity":"Not Hispanic or Latino","race":["White"],"language":"Yes","fluency":"Very well"},"survey":"demographics","trial_type":"survey-demo","trial_index":92,"time_elapsed":1286899,"internal_node_id":"0.0-88.0","task_version":"0.2"},{"rt":115340.49000000209,"responses":{"difficulty":"4","fun":"5","clarity":"5","strategy":"didn't write anything down, just went with rule of thumb to go with higher average one based on first four non-choice, then if a result came out significantly lower than the numbers I got on the other side, pause to reconsider","feedback":""},"survey":"debrief","trial_type":"survey-debrief","trial_index":93,"time_elapsed":1402256,"internal_node_id":"0.0-89.0","task_version":"0.2","interactions":"[]"}]