[{"view_history":"[{\"page_index\":0,\"viewing_time\":3224}]","rt":3224,"trial_type":"instructions","trial_index":0,"time_elapsed":3229,"internal_node_id":"0.0-0.0","task_version":"0.2"},{"item_order":[2,8,0,5,12,10,6,11,9,4,3,1,7],"responses":{"Q03":"1","Q09":"2","Q01":"1","Q06":"1","Q13":"4","Q11":"2","Q07":"1","Q12":"1","Q10":"1","Q05":"2","Q04":"1","Q02":"0","Q08":"1"},"radio_events":[4640,9068,16948,18148,21293,22804,24020,26515,28749,32300,35533,38972,40972,44316],"key_events":[],"mouse_events":[14,4640,9068,10500,10981,13148,16388,16948,18148,20820,21293,22804,24020,26515,28399,28749,32300,35533,38972,40972,41708,44316,45232],"rt":45234,"survey":"ius12","trial_type":"survey-template","trial_index":1,"time_elapsed":48478,"internal_node_id":"0.0-1.0","task_version":"0.2"},{"item_order":[7,10,12,4,9,5,13,11,15,1,16,0,14,6,3,8,2],"responses":{"Q08":"1","Q11":"3","Q13":"2","Q05":"1","Q10":"4","Q06":"1","Q14":"0","Q12":"0","Q16":"2","Q02":"1","Q17":"0","Q01":"3","Q15":"0","Q07":"0","Q04":"2","Q09":"2","Q03":"3"},"radio_events":[4051,9900,13651,16171,17915,21538,24875,26451,30075,32291,36332,41372,42587,45467,46451,48547,53355,56490],"key_events":[],"mouse_events":[4051,9900,13651,16171,17915,21235,21538,24875,26451,29611,30075,31796,32291,35546,36332,41372,42587,45467,46451,48547,53002,53355,56490,57632],"rt":57632,"survey":"pswq","trial_type":"survey-template","trial_index":2,"time_elapsed":106125,"internal_node_id":"0.0-2.0","task_version":"0.2"},{"item_order":[7,4,8,1,6,5,11,0,10,15,12,2,13,9,3,14],"responses":{"Q08":"3","Q05":"1","Q09":"1","Q02":"0","Q07":"2","Q06":"3","Q12":"5","Q01":"1","Q11":"3","Q16":"4","Q13":"5","Q03":"5","Q14":"0","Q10":"2","Q04":"1","Q15":"2"},"radio_events":[5496,8319,11897,16817,20511,24672,27655,29881,33343,36856,38984,41288,43888,49816,55656,57640],"key_events":[],"mouse_events":[5032,5496,8319,11897,14632,16369,16817,20511,24287,24672,27655,29881,32961,33343,36472,36856,38984,41288,43888,49816,55656,57640,58843],"rt":58844,"survey":"nfc","trial_type":"survey-template","trial_index":3,"time_elapsed":164981,"internal_node_id":"0.0-3.0","task_version":"0.2"},{"view_history":"[{\"page_index\":0,\"viewing_time\":3540},{\"page_index\":1,\"viewing_time\":5007},{\"page_index\":2,\"viewing_time\":7624},{\"page_index\":3,\"viewing_time\":5304},{\"page_index\":4,\"viewing_time\":4936},{\"page_index\":5,\"viewing_time\":4064},{\"page_index\":6,\"viewing_time\":5168},{\"page_index\":7,\"viewing_time\":9823},{\"page_index\":8,\"viewing_time\":6081},{\"page_index\":9,\"viewing_time\":8007}]","rt":59556,"trial_type":"instructions","trial_index":4,"time_elapsed":224541,"internal_node_id":"0.0-4.0-0.0","task_version":"0.2"},{"response_times":[1411,566,431,537,3096],"keys_pressed":["rightarrow","leftarrow","rightarrow","rightarrow","leftarrow"],"horizon":5,"forced_choices":["rightarrow","leftarrow","rightarrow","rightarrow"],"right_color":"lightblue","left_color":"orange","left_mu":40,"right_mu":20,"left_numbers":[35,44,39,37,28],"right_numbers":[23,28,17,9,24],"points_earned":121,"phase":"practice","trial_type":"horizons-task","trial_index":5,"time_elapsed":232101,"internal_node_id":"0.0-4.0-1.0","task_version":"0.2"},{"response_times":[1034,472,496,616,2504,1760,975,656,976,560],"keys_pressed":["leftarrow","leftarrow","rightarrow","rightarrow","rightarrow","rightarrow","rightarrow","rightarrow","rightarrow","rightarrow"],"horizon":10,"forced_choices":["leftarrow","leftarrow","rightarrow","rightarrow"],"right_color":"orange","left_color":"lightblue","left_mu":60,"right_mu":70,"left_numbers":[59,80,60,51,64,67,52,61,57,62],"right_numbers":[55,69,72,62,75,76,84,62,70,61],"points_earned":701,"phase":"practice","trial_type":"horizons-task","trial_index":6,"time_elapsed":243666,"internal_node_id":"0.0-4.0-2.0","task_version":"0.2"},{"view_history":"[{\"page_index\":0,\"viewing_time\":2273},{\"page_index\":1,\"viewing_time\":3207},{\"page_index\":2,\"viewing_time\":3193},{\"page_index\":3,\"viewing_time\":2023}]","rt":10697,"trial_type":"instructions","trial_index":7,"time_elapsed":254365,"internal_node_id":"0.0-4.0-3.0","task_version":"0.2"},{"responses":["true","false","true"],"num_errors":0,"rt":10711,"trial_type":"horizons-comprehension","trial_index":8,"time_elapsed":265080,"internal_node_id":"0.0-4.0-4.0","task_version":"0.2"},{"trial_type":"call-function","trial_index":9,"time_elapsed":265086,"internal_node_id":"0.0-5.0","task_version":"0.2"},{"view_history":"[{\"page_index\":0,\"viewing_time\":1515},{\"page_index\":1,\"viewing_time\":2753}]","rt":4268,"trial_type":"instructions","trial_index":10,"time_elapsed":269356,"internal_node_id":"0.0-6.0","task_version":"0.2"},{"response_times":[1257,560,456,616,1895,1103,640,439,1112,505],"keys_pressed":["rightarrow","rightarrow","leftarrow","rightarrow","rightarrow","rightarrow","rightarrow","rightarrow","rightarrow","rightarrow"],"horizon":10,"forced_choices":["rightarrow","rightarrow","leftarrow","rightarrow"],"right_color":"orange","left_color":"lightblue","left_mu":60,"right_mu":40,"left_numbers":[63,52,33,49,47,65,54,57,49,53],"right_numbers":[47,39,38,49,40,41,43,27,19,31],"points_earned":369,"phase":"task","trial_type":"horizons-task","trial_index":11,"time_elapsed":279469,"internal_node_id":"0.0-7.0","task_version":"0.2"},{"response_times":[1045,520,584,1167,1735],"keys_pressed":["leftarrow","leftarrow","leftarrow","rightarrow","rightarrow"],"horizon":5,"forced_choices":["leftarrow","leftarrow","leftarrow","rightarrow"],"right_color":"orange","left_color":"lightblue","left_mu":60,"right_mu":80,"left_numbers":[60,55,58,62,46],"right_numbers":[95,85,69,72,87],"points_earned":332,"phase":"task","trial_type":"horizons-task","trial_index":12,"time_elapsed":286033,"internal_node_id":"0.0-8.0","task_version":"0.2"},{"response_times":[1152,512,383,401,2199,1025,503,584,415,752],"keys_pressed":["leftarrow","rightarrow","leftarrow","rightarrow","rightarrow","rightarrow","rightarrow","rightarrow","rightarrow","rightarrow"],"horizon":10,"forced_choices":["leftarrow","rightarrow","leftarrow","rightarrow"],"right_color":"orange","left_color":"lightblue","left_mu":60,"right_mu":68,"left_numbers":[44,53,54,65,66,51,54,53,61,58],"right_numbers":[65,70,74,43,54,84,55,66,41,71],"points_earned":582,"phase":"task","trial_type":"horizons-task","trial_index":13,"time_elapsed":295472,"internal_node_id":"0.0-9.0","task_version":"0.2"},{"response_times":[936,392,409,552,2384,1192,775,489,464,615],"keys_pressed":["rightarrow","leftarrow","rightarrow","rightarrow","leftarrow","leftarrow","leftarrow","leftarrow","leftarrow","leftarrow"],"horizon":10,"forced_choices":["rightarrow","leftarrow","rightarrow","rightarrow"],"right_color":"lightblue","left_color":"orange","left_mu":40,"right_mu":20,"left_numbers":[30,34,29,33,53,33,40,39,32,38],"right_numbers":[32,18,21,25,23,26,28,23,22,27],"points_earned":347,"phase":"task","trial_type":"horizons-task","trial_index":14,"time_elapsed":305192,"internal_node_id":"0.0-10.0","task_version":"0.2"},{"response_times":[801,481,432,568,1319],"keys_pressed":["rightarrow","rightarrow","leftarrow","leftarrow","leftarrow"],"horizon":5,"forced_choices":["rightarrow","rightarrow","leftarrow","leftarrow"],"right_color":"lightblue","left_color":"orange","left_mu":40,"right_mu":32,"left_numbers":[29,38,47,42,52],"right_numbers":[31,24,45,32,34],"points_earned":196,"phase":"task","trial_type":"horizons-task","trial_index":15,"time_elapsed":310302,"internal_node_id":"0.0-11.0","task_version":"0.2"},{"response_times":[623,351,376,352,1759,1000,480,448,424,401],"keys_pressed":["leftarrow","rightarrow","leftarrow","rightarrow","leftarrow","leftarrow","leftarrow","leftarrow","leftarrow","leftarrow"],"horizon":10,"forced_choices":["leftarrow","rightarrow","leftarrow","rightarrow"],"right_color":"orange","left_color":"lightblue","left_mu":40,"right_mu":10,"left_numbers":[38,50,43,41,26,52,48,41,33,37],"right_numbers":[0,15,11,17,7,5,2,14,0,18],"points_earned":350,"phase":"task","trial_type":"horizons-task","trial_index":16,"time_elapsed":318038,"internal_node_id":"0.0-12.0","task_version":"0.2"},{"response_times":[732,471,440,521,488,2623,1136,944,1343,1177],"keys_pressed":["rightarrow","rightarrow","leftarrow","leftarrow","rightarrow","leftarrow","rightarrow","leftarrow","rightarrow","leftarrow"],"horizon":10,"forced_choices":["rightarrow","rightarrow","leftarrow","leftarrow"],"right_color":"lightblue","left_color":"orange","left_mu":40,"right_mu":20,"left_numbers":[43,39,38,31,33,40,35,50,38,37],"right_numbers":[22,21,13,12,40,28,20,4,3,22],"points_earned":302,"phase":"task","trial_type":"horizons-task","trial_index":17,"time_elapsed":329431,"internal_node_id":"0.0-13.0","task_version":"0.2"},{"response_times":[835,384,632,488,1592],"keys_pressed":["leftarrow","rightarrow","rightarrow","leftarrow","leftarrow"],"horizon":5,"forced_choices":["leftarrow","rightarrow","rightarrow","leftarrow"],"right_color":"orange","left_color":"lightblue","left_mu":60,"right_mu":40,"left_numbers":[64,68,57,64,46],"right_numbers":[47,34,45,38,49],"points_earned":253,"phase":"task","trial_type":"horizons-task","trial_index":18,"time_elapsed":334869,"internal_node_id":"0.0-14.0","task_version":"0.2"},{"response_times":[812,272,296,968,1319,1281,856,448,671,1552],"keys_pressed":["leftarrow","rightarrow","leftarrow","leftarrow","rightarrow","rightarrow","rightarrow","leftarrow","rightarrow","leftarrow"],"horizon":10,"forced_choices":["leftarrow","rightarrow","leftarrow","leftarrow"],"right_color":"lightblue","left_color":"orange","left_mu":60,"right_mu":56,"left_numbers":[60,60,60,58,60,49,69,49,60,59],"right_numbers":[63,72,50,57,54,53,74,66,54,59],"points_earned":593,"phase":"task","trial_type":"horizons-task","trial_index":19,"time_elapsed":344856,"internal_node_id":"0.0-15.0","task_version":"0.2"},{"response_times":[635,448,512,551,1467],"keys_pressed":["rightarrow","rightarrow","leftarrow","leftarrow","leftarrow"],"horizon":5,"forced_choices":["rightarrow","rightarrow","leftarrow","leftarrow"],"right_color":"lightblue","left_color":"orange","left_mu":40,"right_mu":20,"left_numbers":[55,25,50,29,50],"right_numbers":[7,24,20,10,0],"points_earned":160,"phase":"task","trial_type":"horizons-task","trial_index":20,"time_elapsed":349982,"internal_node_id":"0.0-16.0","task_version":"0.2"},{"response_times":[635,352,297,392,1175],"keys_pressed":["rightarrow","leftarrow","rightarrow","leftarrow","rightarrow"],"horizon":5,"forced_choices":["rightarrow","leftarrow","rightarrow","leftarrow"],"right_color":"lightblue","left_color":"orange","left_mu":40,"right_mu":70,"left_numbers":[42,43,39,48,39],"right_numbers":[90,68,63,73,66],"points_earned":310,"phase":"task","trial_type":"horizons-task","trial_index":21,"time_elapsed":354342,"internal_node_id":"0.0-17.0","task_version":"0.2"},{"response_times":[723,335,488,447,2016,767,896,448,728,999],"keys_pressed":["rightarrow","leftarrow","leftarrow","rightarrow","rightarrow","leftarrow","leftarrow","rightarrow","rightarrow","leftarrow"],"horizon":10,"forced_choices":["rightarrow","leftarrow","leftarrow","rightarrow"],"right_color":"orange","left_color":"lightblue","left_mu":40,"right_mu":44,"left_numbers":[50,40,34,43,35,39,51,52,43,42],"right_numbers":[47,45,38,64,43,31,40,40,47,54],"points_earned":447,"phase":"task","trial_type":"horizons-task","trial_index":22,"time_elapsed":363705,"internal_node_id":"0.0-18.0","task_version":"0.2"},{"response_times":[452,273,264,264,295,2577,615,552,664,680],"keys_pressed":["leftarrow","rightarrow","leftarrow","rightarrow","leftarrow","rightarrow","leftarrow","rightarrow","leftarrow","rightarrow"],"horizon":10,"forced_choices":["leftarrow","rightarrow","leftarrow","rightarrow"],"right_color":"lightblue","left_color":"orange","left_mu":60,"right_mu":56,"left_numbers":[60,59,77,56,57,41,58,55,60,66],"right_numbers":[57,60,50,65,56,49,63,67,63,65],"points_earned":618,"phase":"task","trial_type":"horizons-task","trial_index":23,"time_elapsed":371863,"internal_node_id":"0.0-19.0","task_version":"0.2"},{"response_times":[467,239,697,615,688],"keys_pressed":["leftarrow","rightarrow","rightarrow","rightarrow","leftarrow"],"horizon":5,"forced_choices":["leftarrow","rightarrow","rightarrow","rightarrow"],"right_color":"orange","left_color":"lightblue","left_mu":40,"right_mu":44,"left_numbers":[34,46,37,9,42],"right_numbers":[26,52,43,46,49],"points_earned":217,"phase":"task","trial_type":"horizons-task","trial_index":24,"time_elapsed":376082,"internal_node_id":"0.0-20.0","task_version":"0.2"},{"response_times":[558,417,472,440,1159],"keys_pressed":["rightarrow","rightarrow","leftarrow","rightarrow","leftarrow"],"horizon":5,"forced_choices":["rightarrow","rightarrow","leftarrow","rightarrow"],"right_color":"orange","left_color":"lightblue","left_mu":40,"right_mu":10,"left_numbers":[47,35,43,41,50],"right_numbers":[7,8,0,11,9],"points_earned":119,"phase":"task","trial_type":"horizons-task","trial_index":25,"time_elapsed":380647,"internal_node_id":"0.0-21.0","task_version":"0.2"},{"response_times":[513,416,632,504,1623],"keys_pressed":["rightarrow","leftarrow","leftarrow","leftarrow","rightarrow"],"horizon":5,"forced_choices":["rightarrow","leftarrow","leftarrow","leftarrow"],"right_color":"orange","left_color":"lightblue","left_mu":40,"right_mu":48,"left_numbers":[34,32,44,37,24],"right_numbers":[43,48,57,44,58],"points_earned":214,"phase":"task","trial_type":"horizons-task","trial_index":26,"time_elapsed":385850,"internal_node_id":"0.0-22.0","task_version":"0.2"},{"response_times":[768,439,496,553,1295],"keys_pressed":["rightarrow","rightarrow","leftarrow","rightarrow","rightarrow"],"horizon":5,"forced_choices":["rightarrow","rightarrow","leftarrow","rightarrow"],"right_color":"orange","left_color":"lightblue","left_mu":60,"right_mu":40,"left_numbers":[63,58,39,53,62],"right_numbers":[34,27,39,45,58],"points_earned":203,"phase":"task","trial_type":"horizons-task","trial_index":27,"time_elapsed":390913,"internal_node_id":"0.0-23.0","task_version":"0.2"},{"response_times":[595,368,441,488,1007],"keys_pressed":["rightarrow","leftarrow","leftarrow","rightarrow","leftarrow"],"horizon":5,"forced_choices":["rightarrow","leftarrow","leftarrow","rightarrow"],"right_color":"lightblue","left_color":"orange","left_mu":60,"right_mu":52,"left_numbers":[57,65,54,61,38],"right_numbers":[46,54,40,50,45],"points_earned":253,"phase":"task","trial_type":"horizons-task","trial_index":28,"time_elapsed":395320,"internal_node_id":"0.0-24.0","task_version":"0.2"},{"response_times":[378,432,431,449,1312],"keys_pressed":["rightarrow","rightarrow","rightarrow","leftarrow","rightarrow"],"horizon":5,"forced_choices":["rightarrow","rightarrow","rightarrow","leftarrow"],"right_color":"lightblue","left_color":"orange","left_mu":60,"right_mu":52,"left_numbers":[62,62,55,64,57],"right_numbers":[42,59,60,56,67],"points_earned":292,"phase":"task","trial_type":"horizons-task","trial_index":29,"time_elapsed":399841,"internal_node_id":"0.0-25.0","task_version":"0.2"},{"response_times":[482,295,289,375,1497],"keys_pressed":["leftarrow","rightarrow","leftarrow","rightarrow","leftarrow"],"horizon":5,"forced_choices":["leftarrow","rightarrow","leftarrow","rightarrow"],"right_color":"lightblue","left_color":"orange","left_mu":60,"right_mu":56,"left_numbers":[50,67,47,50,71],"right_numbers":[60,55,65,47,56],"points_earned":270,"phase":"task","trial_type":"horizons-task","trial_index":30,"time_elapsed":404291,"internal_node_id":"0.0-26.0","task_version":"0.2"},{"response_times":[766,264,256,825,855],"keys_pressed":["leftarrow","rightarrow","leftarrow","leftarrow","rightarrow"],"horizon":5,"forced_choices":["leftarrow","rightarrow","leftarrow","leftarrow"],"right_color":"lightblue","left_color":"orange","left_mu":60,"right_mu":56,"left_numbers":[65,65,48,63,63],"right_numbers":[45,65,59,42,56],"points_earned":297,"phase":"task","trial_type":"horizons-task","trial_index":31,"time_elapsed":408763,"internal_node_id":"0.0-27.0","task_version":"0.2"},{"response_times":[542,288,440,408,1216,752,400,704,591,473],"keys_pressed":["leftarrow","rightarrow","rightarrow","leftarrow","leftarrow","leftarrow","rightarrow","rightarrow","leftarrow","rightarrow"],"horizon":10,"forced_choices":["leftarrow","rightarrow","rightarrow","leftarrow"],"right_color":"orange","left_color":"lightblue","left_mu":60,"right_mu":80,"left_numbers":[57,56,54,64,69,70,73,57,54,76],"right_numbers":[82,94,76,78,73,76,76,103,82,67],"points_earned":730,"phase":"task","trial_type":"horizons-task","trial_index":32,"time_elapsed":416092,"internal_node_id":"0.0-28.0","task_version":"0.2"},{"response_times":[439,176,239,857,1344,992,399,976,496,696],"keys_pressed":["leftarrow","rightarrow","leftarrow","leftarrow","rightarrow","leftarrow","rightarrow","leftarrow","rightarrow","leftarrow"],"horizon":10,"forced_choices":["leftarrow","rightarrow","leftarrow","leftarrow"],"right_color":"lightblue","left_color":"orange","left_mu":40,"right_mu":32,"left_numbers":[41,48,33,35,42,39,35,59,37,43],"right_numbers":[29,26,25,31,38,31,28,44,28,35],"points_earned":370,"phase":"task","trial_type":"horizons-task","trial_index":33,"time_elapsed":424218,"internal_node_id":"0.0-29.0","task_version":"0.2"},{"response_times":[472,552,360,231,1016],"keys_pressed":["leftarrow","leftarrow","rightarrow","leftarrow","rightarrow"],"horizon":5,"forced_choices":["leftarrow","leftarrow","rightarrow","leftarrow"],"right_color":"lightblue","left_color":"orange","left_mu":40,"right_mu":60,"left_numbers":[59,40,36,41,41],"right_numbers":[55,58,57,61,76],"points_earned":273,"phase":"task","trial_type":"horizons-task","trial_index":34,"time_elapsed":428359,"internal_node_id":"0.0-30.0","task_version":"0.2"},{"response_times":[397,241,352,288,1032,688,488,439,617,2271],"keys_pressed":["leftarrow","rightarrow","leftarrow","rightarrow","rightarrow","leftarrow","rightarrow","leftarrow","rightarrow","rightarrow"],"horizon":10,"forced_choices":["leftarrow","rightarrow","leftarrow","rightarrow"],"right_color":"lightblue","left_color":"orange","left_mu":40,"right_mu":36,"left_numbers":[28,37,40,39,42,46,43,33,41,44],"right_numbers":[21,24,33,31,34,31,32,31,37,35],"points_earned":340,"phase":"task","trial_type":"horizons-task","trial_index":35,"time_elapsed":436689,"internal_node_id":"0.0-31.0","task_version":"0.2"},{"response_times":[494,615,536,455,728],"keys_pressed":["rightarrow","rightarrow","leftarrow","leftarrow","rightarrow"],"horizon":5,"forced_choices":["rightarrow","rightarrow","leftarrow","leftarrow"],"right_color":"orange","left_color":"lightblue","left_mu":40,"right_mu":52,"left_numbers":[31,32,28,45,47],"right_numbers":[57,51,49,41,33],"points_earned":214,"phase":"task","trial_type":"horizons-task","trial_index":36,"time_elapsed":441033,"internal_node_id":"0.0-32.0","task_version":"0.2"},{"response_times":[422,377,472,576,1128],"keys_pressed":["rightarrow","leftarrow","leftarrow","rightarrow","rightarrow"],"horizon":5,"forced_choices":["rightarrow","leftarrow","leftarrow","rightarrow"],"right_color":"orange","left_color":"lightblue","left_mu":40,"right_mu":44,"left_numbers":[36,41,37,39,39],"right_numbers":[42,35,37,40,43],"points_earned":203,"phase":"task","trial_type":"horizons-task","trial_index":37,"time_elapsed":445519,"internal_node_id":"0.0-33.0","task_version":"0.2"},{"response_times":[577,351,464,632,624,416,528,367,584,1696],"keys_pressed":["rightarrow","leftarrow","leftarrow","rightarrow","leftarrow","rightarrow","leftarrow","rightarrow","leftarrow","leftarrow"],"horizon":10,"forced_choices":["rightarrow","leftarrow","leftarrow","rightarrow"],"right_color":"lightblue","left_color":"orange","left_mu":60,"right_mu":52,"left_numbers":[67,58,53,48,66,78,47,61,60,58],"right_numbers":[58,57,41,44,58,54,62,49,47,42],"points_earned":547,"phase":"task","trial_type":"horizons-task","trial_index":38,"time_elapsed":453271,"internal_node_id":"0.0-34.0","task_version":"0.2"},{"response_times":[466,289,464,464,1960],"keys_pressed":["rightarrow","leftarrow","leftarrow","leftarrow","leftarrow"],"horizon":5,"forced_choices":["rightarrow","leftarrow","leftarrow","leftarrow"],"right_color":"orange","left_color":"lightblue","left_mu":60,"right_mu":30,"left_numbers":[60,62,70,42,60],"right_numbers":[38,13,23,33,32],"points_earned":272,"phase":"task","trial_type":"horizons-task","trial_index":39,"time_elapsed":458428,"internal_node_id":"0.0-35.0","task_version":"0.2"},{"response_times":[838,408,423,384,681],"keys_pressed":["leftarrow","leftarrow","rightarrow","leftarrow","rightarrow"],"horizon":5,"forced_choices":["leftarrow","leftarrow","rightarrow","leftarrow"],"right_color":"orange","left_color":"lightblue","left_mu":60,"right_mu":68,"left_numbers":[51,55,46,49,60],"right_numbers":[57,59,68,70,67],"points_earned":290,"phase":"task","trial_type":"horizons-task","trial_index":40,"time_elapsed":462679,"internal_node_id":"0.0-36.0","task_version":"0.2"},{"response_times":[417,343,287,423,1129],"keys_pressed":["leftarrow","rightarrow","leftarrow","rightarrow","leftarrow"],"horizon":5,"forced_choices":["leftarrow","rightarrow","leftarrow","rightarrow"],"right_color":"orange","left_color":"lightblue","left_mu":60,"right_mu":68,"left_numbers":[77,62,51,60,66],"right_numbers":[75,67,63,60,61],"points_earned":321,"phase":"task","trial_type":"horizons-task","trial_index":41,"time_elapsed":466789,"internal_node_id":"0.0-37.0","task_version":"0.2"},{"response_times":[379,224,609,600,1135,529,495,552,528,511],"keys_pressed":["leftarrow","rightarrow","rightarrow","rightarrow","leftarrow","rightarrow","leftarrow","leftarrow","leftarrow","rightarrow"],"horizon":10,"forced_choices":["leftarrow","rightarrow","rightarrow","rightarrow"],"right_color":"orange","left_color":"lightblue","left_mu":40,"right_mu":52,"left_numbers":[41,45,37,35,31,43,46,38,39,37],"right_numbers":[51,57,56,49,53,54,57,49,58,41],"points_earned":452,"phase":"task","trial_type":"horizons-task","trial_index":42,"time_elapsed":473867,"internal_node_id":"0.0-38.0","task_version":"0.2"},{"response_times":[496,368,408,711,600,528,480,552,408,601],"keys_pressed":["leftarrow","leftarrow","rightarrow","rightarrow","rightarrow","leftarrow","rightarrow","leftarrow","rightarrow","rightarrow"],"horizon":10,"forced_choices":["leftarrow","leftarrow","rightarrow","rightarrow"],"right_color":"lightblue","left_color":"orange","left_mu":60,"right_mu":72,"left_numbers":[64,67,68,45,64,63,58,59,57,60],"right_numbers":[60,72,77,76,70,69,83,80,71,78],"points_earned":708,"phase":"task","trial_type":"horizons-task","trial_index":43,"time_elapsed":480543,"internal_node_id":"0.0-39.0","task_version":"0.2"},{"response_times":[564,263,465,535,321,703,561,567,728,1665],"keys_pressed":["rightarrow","leftarrow","leftarrow","leftarrow","leftarrow","rightarrow","rightarrow","rightarrow","rightarrow","rightarrow"],"horizon":10,"forced_choices":["rightarrow","leftarrow","leftarrow","leftarrow"],"right_color":"lightblue","left_color":"orange","left_mu":40,"right_mu":36,"left_numbers":[43,45,34,34,37,40,43,29,49,40],"right_numbers":[38,35,25,36,43,41,32,34,37,41],"points_earned":373,"phase":"task","trial_type":"horizons-task","trial_index":44,"time_elapsed":488420,"internal_node_id":"0.0-40.0","task_version":"0.2"},{"response_times":[533,392,424,336,1128,553,432,431,296,543],"keys_pressed":["leftarrow","leftarrow","rightarrow","rightarrow","leftarrow","rightarrow","rightarrow","rightarrow","leftarrow","rightarrow"],"horizon":10,"forced_choices":["leftarrow","leftarrow","rightarrow","rightarrow"],"right_color":"orange","left_color":"lightblue","left_mu":40,"right_mu":48,"left_numbers":[48,37,27,30,39,33,49,43,33,37],"right_numbers":[49,46,36,59,46,52,43,51,52,43],"points_earned":441,"phase":"task","trial_type":"horizons-task","trial_index":45,"time_elapsed":495000,"internal_node_id":"0.0-41.0","task_version":"0.2"},{"response_times":[528,327,297,527,393],"keys_pressed":["leftarrow","rightarrow","leftarrow","leftarrow","rightarrow"],"horizon":5,"forced_choices":["leftarrow","rightarrow","leftarrow","leftarrow"],"right_color":"lightblue","left_color":"orange","left_mu":40,"right_mu":32,"left_numbers":[30,50,32,32,23],"right_numbers":[39,23,24,33,29],"points_earned":146,"phase":"task","trial_type":"horizons-task","trial_index":46,"time_elapsed":498582,"internal_node_id":"0.0-42.0","task_version":"0.2"},{"response_times":[555,344,288,888,456,479,408,321,624,440],"keys_pressed":["rightarrow","leftarrow","rightarrow","rightarrow","rightarrow","rightarrow","leftarrow","leftarrow","leftarrow","rightarrow"],"horizon":10,"forced_choices":["rightarrow","leftarrow","rightarrow","rightarrow"],"right_color":"lightblue","left_color":"orange","left_mu":60,"right_mu":72,"left_numbers":[58,62,48,64,58,53,57,66,59,49],"right_numbers":[75,67,75,70,80,61,83,71,65,58],"points_earned":663,"phase":"task","trial_type":"horizons-task","trial_index":47,"time_elapsed":504894,"internal_node_id":"0.0-43.0","task_version":"0.2"},{"response_times":[547,353,487,416,432,480,393,343,264,671],"keys_pressed":["rightarrow","leftarrow","rightarrow","leftarrow","rightarrow","leftarrow","leftarrow","leftarrow","rightarrow","rightarrow"],"horizon":10,"forced_choices":["rightarrow","leftarrow","rightarrow","leftarrow"],"right_color":"lightblue","left_color":"orange","left_mu":40,"right_mu":70,"left_numbers":[46,27,37,17,30,36,37,41,30,47],"right_numbers":[80,64,86,72,57,72,72,67,64,70],"points_earned":515,"phase":"task","trial_type":"horizons-task","trial_index":48,"time_elapsed":510786,"internal_node_id":"0.0-44.0","task_version":"0.2"},{"response_times":[552,295,385,527,417],"keys_pressed":["rightarrow","leftarrow","leftarrow","leftarrow","rightarrow"],"horizon":5,"forced_choices":["rightarrow","leftarrow","leftarrow","leftarrow"],"right_color":"lightblue","left_color":"orange","left_mu":40,"right_mu":36,"left_numbers":[27,46,29,31,31],"right_numbers":[26,52,37,43,25],"points_earned":157,"phase":"task","trial_type":"horizons-task","trial_index":49,"time_elapsed":514476,"internal_node_id":"0.0-45.0","task_version":"0.2"},{"response_times":[1078,376,439,904,576],"keys_pressed":["rightarrow","rightarrow","leftarrow","rightarrow","leftarrow"],"horizon":5,"forced_choices":["rightarrow","rightarrow","leftarrow","rightarrow"],"right_color":"orange","left_color":"lightblue","left_mu":40,"right_mu":28,"left_numbers":[41,34,44,40,41],"right_numbers":[34,28,35,28,28],"points_earned":175,"phase":"task","trial_type":"horizons-task","trial_index":50,"time_elapsed":519368,"internal_node_id":"0.0-46.0","task_version":"0.2"},{"view_history":"[{\"page_index\":0,\"viewing_time\":672388},{\"page_index\":1,\"viewing_time\":2168}]","rt":674557,"trial_type":"instructions","trial_index":51,"time_elapsed":1193926,"internal_node_id":"0.0-47.0","task_version":"0.2"},{"response_times":[1554,424,352,359,1496],"keys_pressed":["rightarrow","leftarrow","rightarrow","leftarrow","leftarrow"],"horizon":5,"forced_choices":["rightarrow","leftarrow","rightarrow","leftarrow"],"right_color":"lightblue","left_color":"orange","left_mu":60,"right_mu":48,"left_numbers":[61,59,58,42,67],"right_numbers":[56,45,51,43,66],"points_earned":275,"phase":"task","trial_type":"horizons-task","trial_index":52,"time_elapsed":1199638,"internal_node_id":"0.0-48.0","task_version":"0.2"},{"response_times":[459,311,280,520,1152],"keys_pressed":["rightarrow","leftarrow","rightarrow","rightarrow","leftarrow"],"horizon":5,"forced_choices":["rightarrow","leftarrow","rightarrow","rightarrow"],"right_color":"lightblue","left_color":"orange","left_mu":40,"right_mu":20,"left_numbers":[46,24,47,38,56],"right_numbers":[27,18,18,15,23],"points_earned":140,"phase":"task","trial_type":"horizons-task","trial_index":53,"time_elapsed":1203873,"internal_node_id":"0.0-49.0","task_version":"0.2"},{"response_times":[489,303,248,328,1376],"keys_pressed":["leftarrow","rightarrow","leftarrow","rightarrow","leftarrow"],"horizon":5,"forced_choices":["leftarrow","rightarrow","leftarrow","rightarrow"],"right_color":"lightblue","left_color":"orange","left_mu":40,"right_mu":36,"left_numbers":[37,52,36,34,26],"right_numbers":[24,26,38,39,41],"points_earned":164,"phase":"task","trial_type":"horizons-task","trial_index":54,"time_elapsed":1208131,"internal_node_id":"0.0-50.0","task_version":"0.2"},{"response_times":[471,384,359,392,1007,304,352,272,360,1984],"keys_pressed":["rightarrow","rightarrow","leftarrow","leftarrow","leftarrow","rightarrow","leftarrow","rightarrow","leftarrow","rightarrow"],"horizon":10,"forced_choices":["rightarrow","rightarrow","leftarrow","leftarrow"],"right_color":"orange","left_color":"lightblue","left_mu":40,"right_mu":52,"left_numbers":[39,35,30,42,38,24,38,45,50,32],"right_numbers":[62,56,69,55,57,48,45,54,56,61],"points_earned":479,"phase":"task","trial_type":"horizons-task","trial_index":55,"time_elapsed":1215522,"internal_node_id":"0.0-51.0","task_version":"0.2"},{"response_times":[439,368,352,384,400,688,920,392,409,487],"keys_pressed":["leftarrow","leftarrow","rightarrow","leftarrow","rightarrow","rightarrow","rightarrow","leftarrow","leftarrow","rightarrow"],"horizon":10,"forced_choices":["leftarrow","leftarrow","rightarrow","leftarrow"],"right_color":"orange","left_color":"lightblue","left_mu":60,"right_mu":68,"left_numbers":[49,70,51,58,51,71,45,57,51,55],"right_numbers":[73,79,66,62,71,69,63,51,63,69],"points_earned":623,"phase":"task","trial_type":"horizons-task","trial_index":56,"time_elapsed":1221870,"internal_node_id":"0.0-52.0","task_version":"0.2"},{"response_times":[435,240,240,407,888],"keys_pressed":["rightarrow","leftarrow","rightarrow","leftarrow","rightarrow"],"horizon":5,"forced_choices":["rightarrow","leftarrow","rightarrow","leftarrow"],"right_color":"lightblue","left_color":"orange","left_mu":60,"right_mu":64,"left_numbers":[63,51,50,50,63],"right_numbers":[56,57,55,58,77],"points_earned":289,"phase":"task","trial_type":"horizons-task","trial_index":57,"time_elapsed":1225589,"internal_node_id":"0.0-53.0","task_version":"0.2"},{"response_times":[524,368,400,504,288,552,360,288,399,487],"keys_pressed":["rightarrow","rightarrow","leftarrow","leftarrow","rightarrow","rightarrow","rightarrow","leftarrow","leftarrow","rightarrow"],"horizon":10,"forced_choices":["rightarrow","rightarrow","leftarrow","leftarrow"],"right_color":"lightblue","left_color":"orange","left_mu":40,"right_mu":32,"left_numbers":[38,44,41,38,48,24,57,33,51,43],"right_numbers":[31,38,37,41,25,17,35,33,17,45],"points_earned":354,"phase":"task","trial_type":"horizons-task","trial_index":58,"time_elapsed":1231278,"internal_node_id":"0.0-54.0","task_version":"0.2"},{"response_times":[431,287,576,360,495,664,288,408,433,431],"keys_pressed":["leftarrow","rightarrow","rightarrow","leftarrow","leftarrow","rightarrow","leftarrow","rightarrow","leftarrow","rightarrow"],"horizon":10,"forced_choices":["leftarrow","rightarrow","rightarrow","leftarrow"],"right_color":"orange","left_color":"lightblue","left_mu":60,"right_mu":90,"left_numbers":[43,74,51,56,55,59,63,67,54,61],"right_numbers":[77,94,85,88,79,92,75,92,83,100],"points_earned":734,"phase":"task","trial_type":"horizons-task","trial_index":59,"time_elapsed":1237172,"internal_node_id":"0.0-55.0","task_version":"0.2"},{"response_times":[439,280,448,368,1423],"keys_pressed":["leftarrow","rightarrow","rightarrow","leftarrow","rightarrow"],"horizon":5,"forced_choices":["leftarrow","rightarrow","rightarrow","leftarrow"],"right_color":"orange","left_color":"lightblue","left_mu":60,"right_mu":80,"left_numbers":[66,78,67,58,87],"right_numbers":[78,62,74,94,88],"points_earned":348,"phase":"task","trial_type":"horizons-task","trial_index":60,"time_elapsed":1241640,"internal_node_id":"0.0-56.0","task_version":"0.2"},{"response_times":[360,328,296,343,745],"keys_pressed":["leftarrow","rightarrow","leftarrow","rightarrow","leftarrow"],"horizon":5,"forced_choices":["leftarrow","rightarrow","leftarrow","rightarrow"],"right_color":"orange","left_color":"lightblue","left_mu":40,"right_mu":10,"left_numbers":[29,44,47,25,35],"right_numbers":[3,12,20,8,20],"points_earned":131,"phase":"task","trial_type":"horizons-task","trial_index":61,"time_elapsed":1245220,"internal_node_id":"0.0-57.0","task_version":"0.2"},{"response_times":[397,280,544,424,968,247,512,288,304,575],"keys_pressed":["rightarrow","leftarrow","leftarrow","leftarrow","rightarrow","rightarrow","leftarrow","leftarrow","rightarrow","leftarrow"],"horizon":10,"forced_choices":["rightarrow","leftarrow","leftarrow","leftarrow"],"right_color":"orange","left_color":"lightblue","left_mu":60,"right_mu":30,"left_numbers":[61,51,66,61,56,51,50,64,63,60],"right_numbers":[30,26,21,37,36,37,22,35,31,27],"points_earned":486,"phase":"task","trial_type":"horizons-task","trial_index":62,"time_elapsed":1251268,"internal_node_id":"0.0-58.0","task_version":"0.2"},{"response_times":[384,384,328,351,264,455,345,288,320,680],"keys_pressed":["leftarrow","leftarrow","rightarrow","leftarrow","rightarrow","rightarrow","leftarrow","rightarrow","leftarrow","rightarrow"],"horizon":10,"forced_choices":["leftarrow","leftarrow","rightarrow","leftarrow"],"right_color":"lightblue","left_color":"orange","left_mu":60,"right_mu":64,"left_numbers":[51,75,56,59,55,53,58,64,74,58],"right_numbers":[55,64,65,77,68,64,65,74,68,37],"points_earned":625,"phase":"task","trial_type":"horizons-task","trial_index":63,"time_elapsed":1256580,"internal_node_id":"0.0-59.0","task_version":"0.2"},{"response_times":[821,560,336,311,360,464,278,288,568,376],"keys_pressed":["rightarrow","rightarrow","rightarrow","leftarrow","leftarrow","leftarrow","rightarrow","rightarrow","rightarrow","leftarrow"],"horizon":10,"forced_choices":["rightarrow","rightarrow","rightarrow","leftarrow"],"right_color":"lightblue","left_color":"orange","left_mu":60,"right_mu":52,"left_numbers":[75,67,64,46,65,61,74,60,56,62],"right_numbers":[57,54,50,43,48,49,58,66,54,64],"points_earned":573,"phase":"task","trial_type":"horizons-task","trial_index":64,"time_elapsed":1262457,"internal_node_id":"0.0-60.0","task_version":"0.2"},{"response_times":[473,352,344,384,352,632,632,159,304,487],"keys_pressed":["rightarrow","rightarrow","leftarrow","rightarrow","leftarrow","leftarrow","leftarrow","rightarrow","rightarrow","leftarrow"],"horizon":10,"forced_choices":["rightarrow","rightarrow","leftarrow","rightarrow"],"right_color":"orange","left_color":"lightblue","left_mu":40,"right_mu":28,"left_numbers":[36,38,44,36,49,42,32,33,31,29],"right_numbers":[25,31,34,17,30,26,24,20,28,26],"points_earned":317,"phase":"task","trial_type":"horizons-task","trial_index":65,"time_elapsed":1268085,"internal_node_id":"0.0-61.0","task_version":"0.2"},{"response_times":[581,513,599,416,352,328,304,240,176,855],"keys_pressed":["rightarrow","rightarrow","rightarrow","leftarrow","leftarrow","leftarrow","rightarrow","rightarrow","rightarrow","rightarrow"],"horizon":10,"forced_choices":["rightarrow","rightarrow","rightarrow","leftarrow"],"right_color":"lightblue","left_color":"orange","left_mu":40,"right_mu":70,"left_numbers":[40,31,33,42,27,26,38,43,40,35],"right_numbers":[64,77,72,52,60,62,82,71,73,72],"points_earned":606,"phase":"task","trial_type":"horizons-task","trial_index":66,"time_elapsed":1273962,"internal_node_id":"0.0-62.0","task_version":"0.2"},{"response_times":[521,343,392,368,415,312,248,416,424,728],"keys_pressed":["rightarrow","leftarrow","leftarrow","rightarrow","rightarrow","rightarrow","leftarrow","leftarrow","leftarrow","leftarrow"],"horizon":10,"forced_choices":["rightarrow","leftarrow","leftarrow","rightarrow"],"right_color":"orange","left_color":"lightblue","left_mu":60,"right_mu":30,"left_numbers":[66,65,47,70,60,71,66,66,55,53],"right_numbers":[31,35,24,25,29,31,28,28,35,28],"points_earned":468,"phase":"task","trial_type":"horizons-task","trial_index":67,"time_elapsed":1279637,"internal_node_id":"0.0-63.0","task_version":"0.2"},{"response_times":[381,376,384,376,568],"keys_pressed":["leftarrow","leftarrow","rightarrow","rightarrow","rightarrow"],"horizon":5,"forced_choices":["leftarrow","leftarrow","rightarrow","rightarrow"],"right_color":"lightblue","left_color":"orange","left_mu":60,"right_mu":72,"left_numbers":[61,56,66,66,66],"right_numbers":[74,58,81,76,75],"points_earned":349,"phase":"task","trial_type":"horizons-task","trial_index":68,"time_elapsed":1283232,"internal_node_id":"0.0-64.0","task_version":"0.2"},{"response_times":[442,327,471,400,480],"keys_pressed":["leftarrow","leftarrow","rightarrow","rightarrow","leftarrow"],"horizon":5,"forced_choices":["leftarrow","leftarrow","rightarrow","rightarrow"],"right_color":"orange","left_color":"lightblue","left_mu":40,"right_mu":28,"left_numbers":[43,27,41,37,30],"right_numbers":[30,22,22,29,29],"points_earned":151,"phase":"task","trial_type":"horizons-task","trial_index":69,"time_elapsed":1286858,"internal_node_id":"0.0-65.0","task_version":"0.2"},{"response_times":[361,424,320,512,416,520,320,528,272,504],"keys_pressed":["leftarrow","leftarrow","rightarrow","leftarrow","leftarrow","rightarrow","rightarrow","rightarrow","leftarrow","rightarrow"],"horizon":10,"forced_choices":["leftarrow","leftarrow","rightarrow","leftarrow"],"right_color":"lightblue","left_color":"orange","left_mu":40,"right_mu":60,"left_numbers":[40,35,31,33,56,28,31,30,34,38],"right_numbers":[65,71,61,53,69,60,75,67,68,54],"points_earned":515,"phase":"task","trial_type":"horizons-task","trial_index":70,"time_elapsed":1292547,"internal_node_id":"0.0-66.0","task_version":"0.2"},{"response_times":[440,335,392,321,376,336,361,311,488,544],"keys_pressed":["leftarrow","rightarrow","rightarrow","leftarrow","leftarrow","rightarrow","rightarrow","leftarrow","leftarrow","leftarrow"],"horizon":10,"forced_choices":["leftarrow","rightarrow","rightarrow","leftarrow"],"right_color":"orange","left_color":"lightblue","left_mu":60,"right_mu":40,"left_numbers":[62,60,53,70,52,70,42,62,63,72],"right_numbers":[44,35,50,37,43,26,44,33,41,35],"points_earned":536,"phase":"task","trial_type":"horizons-task","trial_index":71,"time_elapsed":1297954,"internal_node_id":"0.0-67.0","task_version":"0.2"},{"response_times":[384,327,361,383,544],"keys_pressed":["leftarrow","leftarrow","rightarrow","rightarrow","rightarrow"],"horizon":5,"forced_choices":["leftarrow","leftarrow","rightarrow","rightarrow"],"right_color":"orange","left_color":"lightblue","left_mu":40,"right_mu":48,"left_numbers":[50,30,31,35,36],"right_numbers":[54,68,58,49,36],"points_earned":223,"phase":"task","trial_type":"horizons-task","trial_index":72,"time_elapsed":1301471,"internal_node_id":"0.0-68.0","task_version":"0.2"},{"response_times":[442,417,352,839,1000],"keys_pressed":["leftarrow","rightarrow","rightarrow","rightarrow","rightarrow"],"horizon":5,"forced_choices":["leftarrow","rightarrow","rightarrow","rightarrow"],"right_color":"lightblue","left_color":"orange","left_mu":60,"right_mu":48,"left_numbers":[57,71,73,67,67],"right_numbers":[35,52,57,61,49],"points_earned":276,"phase":"task","trial_type":"horizons-task","trial_index":73,"time_elapsed":1306034,"internal_node_id":"0.0-69.0","task_version":"0.2"},{"response_times":[456,360,375,408,432,352,344,344,752,480],"keys_pressed":["rightarrow","rightarrow","leftarrow","rightarrow","rightarrow","leftarrow","leftarrow","leftarrow","leftarrow","leftarrow"],"horizon":10,"forced_choices":["rightarrow","rightarrow","leftarrow","rightarrow"],"right_color":"orange","left_color":"lightblue","left_mu":40,"right_mu":10,"left_numbers":[32,30,34,43,35,32,46,46,46,34],"right_numbers":[12,9,10,16,13,6,8,18,32,9],"points_earned":288,"phase":"task","trial_type":"horizons-task","trial_index":74,"time_elapsed":1311848,"internal_node_id":"0.0-70.0","task_version":"0.2"},{"response_times":[370,336,352,456,448],"keys_pressed":["leftarrow","rightarrow","rightarrow","leftarrow","rightarrow"],"horizon":5,"forced_choices":["leftarrow","rightarrow","rightarrow","leftarrow"],"right_color":"orange","left_color":"lightblue","left_mu":60,"right_mu":90,"left_numbers":[63,57,65,52,63],"right_numbers":[86,89,66,97,89],"points_earned":359,"phase":"task","trial_type":"horizons-task","trial_index":75,"time_elapsed":1315316,"internal_node_id":"0.0-71.0","task_version":"0.2"},{"response_times":[379,352,320,552,584],"keys_pressed":["leftarrow","leftarrow","rightarrow","leftarrow","rightarrow"],"horizon":5,"forced_choices":["leftarrow","leftarrow","rightarrow","leftarrow"],"right_color":"lightblue","left_color":"orange","left_mu":60,"right_mu":64,"left_numbers":[64,55,69,64,46],"right_numbers":[55,65,60,46,54],"points_earned":297,"phase":"task","trial_type":"horizons-task","trial_index":76,"time_elapsed":1319022,"internal_node_id":"0.0-72.0","task_version":"0.2"},{"response_times":[403,335,344,376,400,472,352,304,384,512],"keys_pressed":["leftarrow","leftarrow","rightarrow","rightarrow","leftarrow","leftarrow","rightarrow","rightarrow","leftarrow","leftarrow"],"horizon":10,"forced_choices":["leftarrow","leftarrow","rightarrow","rightarrow"],"right_color":"orange","left_color":"lightblue","left_mu":40,"right_mu":28,"left_numbers":[46,45,42,40,42,52,45,45,36,33],"right_numbers":[21,14,23,23,13,39,20,27,22,23],"points_earned":347,"phase":"task","trial_type":"horizons-task","trial_index":77,"time_elapsed":1324414,"internal_node_id":"0.0-73.0","task_version":"0.2"},{"response_times":[447,375,320,328,320,424,560,176,584,592],"keys_pressed":["rightarrow","leftarrow","rightarrow","leftarrow","rightarrow","leftarrow","leftarrow","rightarrow","rightarrow","rightarrow"],"horizon":10,"forced_choices":["rightarrow","leftarrow","rightarrow","leftarrow"],"right_color":"lightblue","left_color":"orange","left_mu":60,"right_mu":64,"left_numbers":[54,53,65,60,69,58,62,61,71,55],"right_numbers":[63,66,63,55,72,62,70,77,73,60],"points_earned":641,"phase":"task","trial_type":"horizons-task","trial_index":78,"time_elapsed":1330056,"internal_node_id":"0.0-74.0","task_version":"0.2"},{"response_times":[370,352,360,560,255,384,353,487,576,552],"keys_pressed":["leftarrow","rightarrow","rightarrow","rightarrow","leftarrow","leftarrow","rightarrow","leftarrow","rightarrow","leftarrow"],"horizon":10,"forced_choices":["leftarrow","rightarrow","rightarrow","rightarrow"],"right_color":"lightblue","left_color":"orange","left_mu":60,"right_mu":48,"left_numbers":[51,63,61,52,69,67,57,68,58,50],"right_numbers":[56,55,32,60,40,70,42,58,43,40],"points_earned":537,"phase":"task","trial_type":"horizons-task","trial_index":79,"time_elapsed":1335823,"internal_node_id":"0.0-75.0","task_version":"0.2"},{"response_times":[444,368,776,400,592],"keys_pressed":["leftarrow","leftarrow","leftarrow","rightarrow","rightarrow"],"horizon":5,"forced_choices":["leftarrow","leftarrow","leftarrow","rightarrow"],"right_color":"orange","left_color":"lightblue","left_mu":60,"right_mu":90,"left_numbers":[67,59,70,69,50],"right_numbers":[94,92,84,78,94],"points_earned":368,"phase":"task","trial_type":"horizons-task","trial_index":80,"time_elapsed":1339917,"internal_node_id":"0.0-76.0","task_version":"0.2"},{"response_times":[437,296,303,704,407,400,281,335,600,504],"keys_pressed":["rightarrow","leftarrow","leftarrow","leftarrow","leftarrow","rightarrow","rightarrow","rightarrow","leftarrow","rightarrow"],"horizon":10,"forced_choices":["rightarrow","leftarrow","leftarrow","leftarrow"],"right_color":"orange","left_color":"lightblue","left_mu":40,"right_mu":48,"left_numbers":[37,30,35,39,56,38,34,52,40,32],"right_numbers":[53,50,34,61,47,59,43,43,50,53],"points_earned":451,"phase":"task","trial_type":"horizons-task","trial_index":81,"time_elapsed":1345699,"internal_node_id":"0.0-77.0","task_version":"0.2"},{"response_times":[462,328,328,913,639],"keys_pressed":["rightarrow","leftarrow","rightarrow","rightarrow","rightarrow"],"horizon":5,"forced_choices":["rightarrow","leftarrow","rightarrow","rightarrow"],"right_color":"lightblue","left_color":"orange","left_mu":60,"right_mu":72,"left_numbers":[64,64,60,54,78],"right_numbers":[96,71,77,68,79],"points_earned":384,"phase":"task","trial_type":"horizons-task","trial_index":82,"time_elapsed":1349888,"internal_node_id":"0.0-78.0","task_version":"0.2"},{"response_times":[500,310,320,352,328,352,304,288,320,2088],"keys_pressed":["rightarrow","leftarrow","rightarrow","leftarrow","rightarrow","rightarrow","leftarrow","rightarrow","leftarrow","leftarrow"],"horizon":10,"forced_choices":["rightarrow","leftarrow","rightarrow","leftarrow"],"right_color":"lightblue","left_color":"orange","left_mu":60,"right_mu":48,"left_numbers":[55,55,50,59,63,65,58,55,78,62],"right_numbers":[48,52,49,45,40,39,57,41,47,47],"points_earned":529,"phase":"task","trial_type":"horizons-task","trial_index":83,"time_elapsed":1356561,"internal_node_id":"0.0-79.0","task_version":"0.2"},{"response_times":[593,288,344,344,376,280,287,287,264,640],"keys_pressed":["rightarrow","leftarrow","leftarrow","rightarrow","rightarrow","leftarrow","rightarrow","leftarrow","rightarrow","rightarrow"],"horizon":10,"forced_choices":["rightarrow","leftarrow","leftarrow","rightarrow"],"right_color":"lightblue","left_color":"orange","left_mu":40,"right_mu":60,"left_numbers":[37,39,35,40,22,48,34,28,36,43],"right_numbers":[63,60,65,48,49,63,64,66,68,51],"points_earned":493,"phase":"task","trial_type":"horizons-task","trial_index":84,"time_elapsed":1361770,"internal_node_id":"0.0-80.0","task_version":"0.2"},{"response_times":[441,320,584,296,407,304,416,367,256,743],"keys_pressed":["leftarrow","rightarrow","rightarrow","rightarrow","leftarrow","leftarrow","rightarrow","leftarrow","rightarrow","leftarrow"],"horizon":10,"forced_choices":["leftarrow","rightarrow","rightarrow","rightarrow"],"right_color":"orange","left_color":"lightblue","left_mu":40,"right_mu":44,"left_numbers":[36,45,33,47,41,20,43,42,19,53],"right_numbers":[50,51,55,41,45,36,40,50,37,46],"points_earned":416,"phase":"task","trial_type":"horizons-task","trial_index":85,"time_elapsed":1367427,"internal_node_id":"0.0-81.0","task_version":"0.2"},{"response_times":[455,319,647,352,768],"keys_pressed":["rightarrow","leftarrow","leftarrow","rightarrow","leftarrow"],"horizon":5,"forced_choices":["rightarrow","leftarrow","leftarrow","rightarrow"],"right_color":"orange","left_color":"lightblue","left_mu":60,"right_mu":30,"left_numbers":[57,55,60,66,71],"right_numbers":[18,34,41,20,44],"points_earned":224,"phase":"task","trial_type":"horizons-task","trial_index":86,"time_elapsed":1371475,"internal_node_id":"0.0-82.0","task_version":"0.2"},{"response_times":[464,288,664,425,960],"keys_pressed":["leftarrow","rightarrow","rightarrow","rightarrow","leftarrow"],"horizon":5,"forced_choices":["leftarrow","rightarrow","rightarrow","rightarrow"],"right_color":"orange","left_color":"lightblue","left_mu":40,"right_mu":52,"left_numbers":[50,45,34,31,46],"right_numbers":[56,46,59,62,60],"points_earned":263,"phase":"task","trial_type":"horizons-task","trial_index":87,"time_elapsed":1375788,"internal_node_id":"0.0-83.0","task_version":"0.2"},{"response_times":[446,328,672,352,991],"keys_pressed":["rightarrow","leftarrow","leftarrow","rightarrow","rightarrow"],"horizon":5,"forced_choices":["rightarrow","leftarrow","leftarrow","rightarrow"],"right_color":"lightblue","left_color":"orange","left_mu":40,"right_mu":60,"left_numbers":[21,37,51,47,57],"right_numbers":[66,43,59,62,57],"points_earned":273,"phase":"task","trial_type":"horizons-task","trial_index":88,"time_elapsed":1380087,"internal_node_id":"0.0-84.0","task_version":"0.2"},{"response_times":[443,584,352,496,904],"keys_pressed":["rightarrow","rightarrow","rightarrow","leftarrow","rightarrow"],"horizon":5,"forced_choices":["rightarrow","rightarrow","rightarrow","leftarrow"],"right_color":"lightblue","left_color":"orange","left_mu":40,"right_mu":70,"left_numbers":[35,38,39,31,40],"right_numbers":[66,75,47,62,74],"points_earned":293,"phase":"task","trial_type":"horizons-task","trial_index":89,"time_elapsed":1384370,"internal_node_id":"0.0-85.0","task_version":"0.2"},{"response_times":[584,560,336,344,247,384,328,464,344,552],"keys_pressed":["leftarrow","leftarrow","leftarrow","rightarrow","rightarrow","rightarrow","leftarrow","leftarrow","rightarrow","rightarrow"],"horizon":10,"forced_choices":["leftarrow","leftarrow","leftarrow","rightarrow"],"right_color":"orange","left_color":"lightblue","left_mu":60,"right_mu":90,"left_numbers":[54,46,68,64,54,67,64,63,70,64],"right_numbers":[101,89,92,92,83,86,91,105,94,90],"points_earned":740,"phase":"task","trial_type":"horizons-task","trial_index":90,"time_elapsed":1390027,"internal_node_id":"0.0-86.0","task_version":"0.2"},{"response_times":[495,295,320,232,288,303,224,384,489,615],"keys_pressed":["leftarrow","leftarrow","leftarrow","rightarrow","rightarrow","rightarrow","leftarrow","rightarrow","leftarrow","rightarrow"],"horizon":10,"forced_choices":["leftarrow","leftarrow","leftarrow","rightarrow"],"right_color":"orange","left_color":"lightblue","left_mu":60,"right_mu":80,"left_numbers":[69,62,64,66,63,63,71,72,59,58],"right_numbers":[65,72,80,65,56,94,80,85,72,75],"points_earned":700,"phase":"task","trial_type":"horizons-task","trial_index":91,"time_elapsed":1395185,"internal_node_id":"0.0-87.0","task_version":"0.2"},{"rt":15832,"responses":{"age":"23","gender-categorical":"Female","gender-free-response":"","ethnicity":"Not Hispanic or Latino","race":["White"],"language":"Yes","fluency":"Very well"},"survey":"demographics","trial_type":"survey-demo","trial_index":92,"time_elapsed":1411028,"internal_node_id":"0.0-88.0","task_version":"0.2"},{"rt":27360,"responses":{"difficulty":"5","fun":"5","clarity":"5","strategy":"summed up the total numbers in my head","feedback":""},"survey":"debrief","trial_type":"survey-debrief","trial_index":93,"time_elapsed":1438395,"internal_node_id":"0.0-89.0","task_version":"0.2","interactions":"[{\"event\":\"focus\",\"trial\":0,\"time\":0},{\"event\":\"blur\",\"trial\":51,\"time\":998105},{\"event\":\"focus\",\"trial\":51,\"time\":1118201}]"}]