[{"view_history":"[{\"page_index\":0,\"viewing_time\":1865.1299999910407}]","rt":1865.6499999924563,"trial_type":"instructions","trial_index":0,"time_elapsed":1897,"internal_node_id":"0.0-0.0","task_version":"0.2"},{"item_order":[4,11,6,9,5,3,10,7,0,15,1,13,12,8,16,14,2],"responses":{"Q05":"4","Q12":"4","Q07":"4","Q10":"0","Q06":"4","Q04":"4","Q11":"2","Q08":"1","Q01":"2","Q16":"3","Q02":"3","Q14":"4","Q13":"3","Q09":"2","Q17":"0","Q15":"2","Q03":"4"},"radio_events":[9849.170000001322,10770.870000007562,16718.639999977313,18511.124999960884,19178.68000001181,24510.574999963865,27518.36499996716,30053.52999997558,35131.374999997206,39158.460000006016,43688.52500000503,44521.07499999693,47768.67999997921,50670.96999997739,53123.68499999866,56071.08999998309,58508.51000001421],"key_events":[],"mouse_events":[0.6149999680928886,8025.964999978896,9849.170000001322,10770.870000007562,14842.230000009295,16718.639999977313,18511.124999960884,19178.68000001181,20686.11000000965,24510.574999963865,27518.36499996716,30053.52999997558,35131.374999997206,39158.460000006016,43688.52500000503,44521.07499999693,47768.67999997921,50055.92000001343,50670.96999997739,53123.68499999866,56071.08999998309,58508.51000001421,59978.60999999102],"rt":59982.30999999214,"survey":"pswq","trial_type":"survey-template","trial_index":1,"time_elapsed":61888,"internal_node_id":"0.0-1.0","task_version":"0.2"},{"item_order":[2,0,10,6,5,3,7,12,11,1,9,4,8],"responses":{"Q03":"3","Q01":"2","Q11":"4","Q07":"3","Q06":"2","Q04":"3","Q08":"3","Q13":"4","Q12":"2","Q02":"2","Q10":"3","Q05":"3","Q09":"3"},"radio_events":[5107.505000021774,6892.434999987017,8257.634999987204,13050.099999993108,16207.620000001043,18330.0150000141,23422.554999997374,24472.600000037346,26925.050000019837,35452.705000003334,36179.83500001719,37710.12000000337,39360.03500001971,44579.91500000935,44992.7950000274],"key_events":[],"mouse_events":[5107.505000021774,6892.434999987017,8257.634999987204,13050.099999993108,16207.620000001043,18330.0150000141,23422.554999997374,24472.600000037346,26925.050000019837,34867.70499998238,35452.705000003334,36179.83500001719,37710.12000000337,39360.03500001971,40492.78500000946,41587.57999999216,43605.389999982435,44579.91500000935,44992.7950000274,45832.775000017136],"rt":45835.49500000663,"survey":"ius12","trial_type":"survey-template","trial_index":2,"time_elapsed":107733,"internal_node_id":"0.0-2.0","task_version":"0.2"},{"item_order":[14,10,7,6,12,11,8,2,1,3,9,4,0,5,15,13],"responses":{"Q15":"3","Q11":"4","Q08":"4","Q07":"4","Q13":"5","Q12":"5","Q09":"3","Q03":"2","Q02":"3","Q04":"4","Q10":"3","Q05":"3","Q01":"4","Q06":"4","Q16":"5","Q14":"2"},"radio_events":[2483.4549999795854,6668.564999999944,8123.45000001369,9705.699999991339,11934.550000005402,17888.404999976046,18653.545000008307,23153.42500002589,27436.044999980368,35746.02000002051,41596.03000001516,42465.789999987464,47972.045000002254,51390.98999998532,56138.5499999742,58111.269999993965,61636.01999997627,67448.29000002937],"key_events":[],"mouse_events":[2483.4549999795854,3180.99500000244,6668.564999999944,8123.45000001369,9705.699999991339,11363.100000016857,11934.550000005402,16396.125000028405,17888.404999976046,18653.545000008307,23153.42500002589,26793.56999997981,27436.044999980368,35746.02000002051,38596.17500001332,41596.03000001516,42465.789999987464,43718.7350000022,47972.045000002254,51390.98999998532,56138.5499999742,58111.269999993965,61636.01999997627,66556.69499997748,67448.29000002937,69023.6300000106],"rt":69027.46000001207,"survey":"nfc","trial_type":"survey-template","trial_index":3,"time_elapsed":176772,"internal_node_id":"0.0-3.0","task_version":"0.2"},{"view_history":"[{\"page_index\":0,\"viewing_time\":1929.839999997057},{\"page_index\":1,\"viewing_time\":5242.855000018608},{\"page_index\":2,\"viewing_time\":12127.680000034161},{\"page_index\":3,\"viewing_time\":4281.994999968447},{\"page_index\":4,\"viewing_time\":4102.665000013076},{\"page_index\":5,\"viewing_time\":2850.52999999607},{\"page_index\":6,\"viewing_time\":5759.054999973159},{\"page_index\":7,\"viewing_time\":6803.075000003446},{\"page_index\":8,\"viewing_time\":6667.665000015404},{\"page_index\":9,\"viewing_time\":2924.750000005588}]","rt":52690.50500000594,"trial_type":"instructions","trial_index":4,"time_elapsed":229474,"internal_node_id":"0.0-4.0-0.0","task_version":"0.2"},{"response_times":[1323.659999994561,922.8800000273623,806.1149999848567,1058.9299999992363,1900.9450000012293],"keys_pressed":["rightarrow","leftarrow","rightarrow","rightarrow","leftarrow"],"horizon":5,"forced_choices":["rightarrow","leftarrow","rightarrow","rightarrow"],"right_color":"lightblue","left_color":"orange","left_mu":40,"right_mu":20,"left_numbers":[30,30,28,27,45],"right_numbers":[32,14,27,13,30],"points_earned":147,"phase":"practice","trial_type":"horizons-task","trial_index":5,"time_elapsed":237010,"internal_node_id":"0.0-4.0-1.0","task_version":"0.2"},{"response_times":[1317.7099999738857,705.614999984391,587.7849999815226,656.4050000160933,2482.2799999965355,1944.9400000157766,1374.065000039991,1528.615000017453,820.4549999791197,769.9649999849498],"keys_pressed":["leftarrow","leftarrow","rightarrow","rightarrow","rightarrow","rightarrow","rightarrow","rightarrow","rightarrow","rightarrow"],"horizon":10,"forced_choices":["leftarrow","leftarrow","rightarrow","rightarrow"],"right_color":"orange","left_color":"lightblue","left_mu":60,"right_mu":70,"left_numbers":[53,63,67,76,76,69,57,57,61,48],"right_numbers":[53,74,61,66,71,62,73,77,69,64],"points_earned":659,"phase":"practice","trial_type":"horizons-task","trial_index":6,"time_elapsed":250706,"internal_node_id":"0.0-4.0-2.0","task_version":"0.2"},{"view_history":"[{\"page_index\":0,\"viewing_time\":1873.8049999810755},{\"page_index\":1,\"viewing_time\":1567.7649999852292},{\"page_index\":2,\"viewing_time\":967.2300000092946},{\"page_index\":3,\"viewing_time\":555.0950000179}]","rt":4964.259999978822,"trial_type":"instructions","trial_index":7,"time_elapsed":255672,"internal_node_id":"0.0-4.0-3.0","task_version":"0.2"},{"responses":["true","false","true"],"num_errors":0,"rt":9207.794999994803,"trial_type":"horizons-comprehension","trial_index":8,"time_elapsed":264884,"internal_node_id":"0.0-4.0-4.0","task_version":"0.2"},{"trial_type":"call-function","trial_index":9,"time_elapsed":264891,"internal_node_id":"0.0-5.0","task_version":"0.2"},{"view_history":"[{\"page_index\":0,\"viewing_time\":1129.1300000157207},{\"page_index\":1,\"viewing_time\":1672.8250000160187}]","rt":2802.465000015218,"trial_type":"instructions","trial_index":10,"time_elapsed":267695,"internal_node_id":"0.0-6.0","task_version":"0.2"},{"response_times":[1210.0599999539554,524.3100000079721,575.0500000431202,596.7250000103377,1527.0049999817275,1119.2499999888241,726.555000001099,723.519999999553,730.0249999971129,591.5399999939837],"keys_pressed":["leftarrow","rightarrow","rightarrow","rightarrow","rightarrow","rightarrow","rightarrow","rightarrow","rightarrow","rightarrow"],"horizon":10,"forced_choices":["leftarrow","rightarrow","rightarrow","rightarrow"],"right_color":"lightblue","left_color":"orange","left_mu":60,"right_mu":80,"left_numbers":[56,61,72,60,66,59,52,61,52,60],"right_numbers":[89,86,86,80,71,84,67,86,75,76],"points_earned":767,"phase":"task","trial_type":"horizons-task","trial_index":11,"time_elapsed":277537,"internal_node_id":"0.0-7.0","task_version":"0.2"},{"response_times":[943.859999999404,498.7400000100024,709.5800000242889,1879.209999984596,2895.50500002224],"keys_pressed":["leftarrow","rightarrow","leftarrow","leftarrow","leftarrow"],"horizon":5,"forced_choices":["leftarrow","rightarrow","leftarrow","leftarrow"],"right_color":"orange","left_color":"lightblue","left_mu":40,"right_mu":36,"left_numbers":[36,45,47,45,36],"right_numbers":[18,45,32,51,38],"points_earned":209,"phase":"task","trial_type":"horizons-task","trial_index":12,"time_elapsed":285971,"internal_node_id":"0.0-8.0","task_version":"0.2"},{"response_times":[781.6799999563955,471.0549999726936,736.8550000246614,888.1650000112131,2291.9000000110827],"keys_pressed":["leftarrow","rightarrow","rightarrow","leftarrow","leftarrow"],"horizon":5,"forced_choices":["leftarrow","rightarrow","rightarrow","leftarrow"],"right_color":"lightblue","left_color":"orange","left_mu":60,"right_mu":52,"left_numbers":[66,50,64,56,65],"right_numbers":[54,56,45,49,49],"points_earned":288,"phase":"task","trial_type":"horizons-task","trial_index":13,"time_elapsed":292647,"internal_node_id":"0.0-9.0","task_version":"0.2"},{"response_times":[605.5649999761954,697.7799999876879,452.42000004509464,669.1349999746308,755.9699999983422],"keys_pressed":["rightarrow","leftarrow","rightarrow","leftarrow","leftarrow"],"horizon":5,"forced_choices":["rightarrow","leftarrow","rightarrow","leftarrow"],"right_color":"orange","left_color":"lightblue","left_mu":60,"right_mu":56,"left_numbers":[58,73,47,63,55],"right_numbers":[70,46,59,49,56],"points_earned":320,"phase":"task","trial_type":"horizons-task","trial_index":14,"time_elapsed":297370,"internal_node_id":"0.0-10.0","task_version":"0.2"},{"response_times":[685.3300000075251,622.3000000463799,540.3850000002421,481.1399999889545,1617.6400000113063,894.9399999692105,880.5649999994785,814.4450000254437,885.1799999829382,624.3849999736995],"keys_pressed":["leftarrow","leftarrow","leftarrow","rightarrow","leftarrow","leftarrow","leftarrow","leftarrow","rightarrow","leftarrow"],"horizon":10,"forced_choices":["leftarrow","leftarrow","leftarrow","rightarrow"],"right_color":"orange","left_color":"lightblue","left_mu":60,"right_mu":30,"left_numbers":[51,58,58,54,70,60,56,49,62,52],"right_numbers":[29,40,26,45,17,29,40,34,17,31],"points_earned":516,"phase":"task","trial_type":"horizons-task","trial_index":15,"time_elapsed":306925,"internal_node_id":"0.0-11.0","task_version":"0.2"},{"response_times":[821.5249999775551,703.6499999812804,840.5650000204332,972.0850000157952,812.7499999827705],"keys_pressed":["rightarrow","leftarrow","leftarrow","leftarrow","leftarrow"],"horizon":5,"forced_choices":["rightarrow","leftarrow","leftarrow","leftarrow"],"right_color":"orange","left_color":"lightblue","left_mu":40,"right_mu":20,"left_numbers":[46,42,47,50,35],"right_numbers":[18,11,19,29,25],"points_earned":192,"phase":"task","trial_type":"horizons-task","trial_index":16,"time_elapsed":312589,"internal_node_id":"0.0-12.0","task_version":"0.2"},{"response_times":[1141.0500000347383,943.3950000093319,558.6699999985285,505.5500000016764,1310.364999982994,1082.9750000266358,1096.3400000473484,6234.835000010207,538.2849999587052,611.9649999891408],"keys_pressed":["rightarrow","leftarrow","leftarrow","rightarrow","leftarrow","leftarrow","leftarrow","leftarrow","leftarrow","leftarrow"],"horizon":10,"forced_choices":["rightarrow","leftarrow","leftarrow","rightarrow"],"right_color":"orange","left_color":"lightblue","left_mu":40,"right_mu":10,"left_numbers":[24,36,43,29,46,47,48,49,40,53],"right_numbers":[14,13,17,0,33,9,0,19,2,5],"points_earned":376,"phase":"task","trial_type":"horizons-task","trial_index":17,"time_elapsed":328127,"internal_node_id":"0.0-13.0","task_version":"0.2"},{"response_times":[717.6199999521486,441.8549999827519,761.9049999630079,544.9699999880977,1693.6149999964982],"keys_pressed":["leftarrow","leftarrow","rightarrow","leftarrow","rightarrow"],"horizon":5,"forced_choices":["leftarrow","leftarrow","rightarrow","leftarrow"],"right_color":"orange","left_color":"lightblue","left_mu":60,"right_mu":72,"left_numbers":[53,53,60,62,67],"right_numbers":[76,62,66,82,65],"points_earned":299,"phase":"task","trial_type":"horizons-task","trial_index":18,"time_elapsed":333798,"internal_node_id":"0.0-14.0","task_version":"0.2"},{"response_times":[946.0650000255555,569.0049999975599,516.5649999980815,609.195000026375,843.6349999974482,583.8300000177696,570.8299999823794,543.5700000380166,622.9649999877438,512.8350000013597],"keys_pressed":["rightarrow","rightarrow","leftarrow","leftarrow","leftarrow","leftarrow","leftarrow","leftarrow","leftarrow","leftarrow"],"horizon":10,"forced_choices":["rightarrow","rightarrow","leftarrow","leftarrow"],"right_color":"orange","left_color":"lightblue","left_mu":60,"right_mu":30,"left_numbers":[64,54,61,51,62,58,64,55,74,65],"right_numbers":[24,23,46,40,21,50,35,37,37,34],"points_earned":537,"phase":"task","trial_type":"horizons-task","trial_index":19,"time_elapsed":341630,"internal_node_id":"0.0-15.0","task_version":"0.2"},{"response_times":[705.6549999979325,635.3900000103749,516.0899999900721,534.3550000106916,700.3249999834225],"keys_pressed":["rightarrow","rightarrow","rightarrow","leftarrow","leftarrow"],"horizon":5,"forced_choices":["rightarrow","rightarrow","rightarrow","leftarrow"],"right_color":"orange","left_color":"lightblue","left_mu":40,"right_mu":28,"left_numbers":[39,39,44,49,27],"right_numbers":[27,28,31,25,19],"points_earned":162,"phase":"task","trial_type":"horizons-task","trial_index":20,"time_elapsed":346258,"internal_node_id":"0.0-16.0","task_version":"0.2"},{"response_times":[719.550000037998,424.02999999467283,591.7999999946915,448.4550000051968,1344.310000014957,938.3650000090711,518.51500000339,571.0700000054203,643.0900000268593,696.0749999852851],"keys_pressed":["leftarrow","rightarrow","leftarrow","rightarrow","rightarrow","rightarrow","rightarrow","rightarrow","rightarrow","rightarrow"],"horizon":10,"forced_choices":["leftarrow","rightarrow","leftarrow","rightarrow"],"right_color":"orange","left_color":"lightblue","left_mu":40,"right_mu":52,"left_numbers":[47,38,38,27,31,48,36,22,40,45],"right_numbers":[41,55,45,46,52,51,76,54,60,33],"points_earned":512,"phase":"task","trial_type":"horizons-task","trial_index":21,"time_elapsed":354671,"internal_node_id":"0.0-17.0","task_version":"0.2"},{"response_times":[702.7149999630637,565.0899999891408,729.204999981448,1143.2549999444745,875.4750000080094],"keys_pressed":["rightarrow","leftarrow","leftarrow","rightarrow","leftarrow"],"horizon":5,"forced_choices":["rightarrow","leftarrow","leftarrow","rightarrow"],"right_color":"orange","left_color":"lightblue","left_mu":40,"right_mu":10,"left_numbers":[37,22,48,39,23],"right_numbers":[6,11,17,3,22],"points_earned":102,"phase":"task","trial_type":"horizons-task","trial_index":22,"time_elapsed":360195,"internal_node_id":"0.0-18.0","task_version":"0.2"},{"response_times":[680.469999962952,476.23999998904765,415.8750000060536,476.42500000074506,1112.3249999945983],"keys_pressed":["rightarrow","leftarrow","rightarrow","leftarrow","leftarrow"],"horizon":5,"forced_choices":["rightarrow","leftarrow","rightarrow","leftarrow"],"right_color":"orange","left_color":"lightblue","left_mu":40,"right_mu":36,"left_numbers":[35,34,57,44,39],"right_numbers":[28,21,38,36,27],"points_earned":183,"phase":"task","trial_type":"horizons-task","trial_index":23,"time_elapsed":364866,"internal_node_id":"0.0-19.0","task_version":"0.2"},{"response_times":[758.8349999859929,574.4100000010803,501.48999999510124,745.8300000289455,1521.2649999884889,768.4199999785051,579.2149999761023,649.2750000325032,599.7799999895506,575.394999992568],"keys_pressed":["leftarrow","leftarrow","rightarrow","leftarrow","rightarrow","rightarrow","rightarrow","rightarrow","rightarrow","rightarrow"],"horizon":10,"forced_choices":["leftarrow","leftarrow","rightarrow","leftarrow"],"right_color":"orange","left_color":"lightblue","left_mu":60,"right_mu":72,"left_numbers":[67,46,68,56,52,65,74,70,51,55],"right_numbers":[64,70,67,79,72,63,67,68,58,73],"points_earned":637,"phase":"task","trial_type":"horizons-task","trial_index":24,"time_elapsed":373647,"internal_node_id":"0.0-20.0","task_version":"0.2"},{"response_times":[919.7300000232644,624.6099999989383,728.8800000096671,1346.3950000004843,634.6699999994598],"keys_pressed":["rightarrow","rightarrow","leftarrow","rightarrow","leftarrow"],"horizon":5,"forced_choices":["rightarrow","rightarrow","leftarrow","rightarrow"],"right_color":"orange","left_color":"lightblue","left_mu":60,"right_mu":56,"left_numbers":[57,49,62,62,43],"right_numbers":[49,46,61,51,71],"points_earned":251,"phase":"task","trial_type":"horizons-task","trial_index":25,"time_elapsed":379414,"internal_node_id":"0.0-21.0","task_version":"0.2"},{"response_times":[758.9649999863468,503.1749999616295,647.1700000111014,728.8149999803863,681.975000014063],"keys_pressed":["leftarrow","leftarrow","rightarrow","rightarrow","rightarrow"],"horizon":5,"forced_choices":["leftarrow","leftarrow","rightarrow","rightarrow"],"right_color":"lightblue","left_color":"orange","left_mu":40,"right_mu":70,"left_numbers":[40,33,32,45,50],"right_numbers":[70,67,65,73,70],"points_earned":281,"phase":"task","trial_type":"horizons-task","trial_index":26,"time_elapsed":384242,"internal_node_id":"0.0-22.0","task_version":"0.2"},{"response_times":[745.340000023134,396.4800000539981,720.1399999903515,540.6400000210851,376.04999996256083],"keys_pressed":["rightarrow","rightarrow","leftarrow","leftarrow","leftarrow"],"horizon":5,"forced_choices":["rightarrow","rightarrow","leftarrow","leftarrow"],"right_color":"orange","left_color":"lightblue","left_mu":60,"right_mu":30,"left_numbers":[68,42,50,53,66],"right_numbers":[27,17,25,30,27],"points_earned":213,"phase":"task","trial_type":"horizons-task","trial_index":27,"time_elapsed":388527,"internal_node_id":"0.0-23.0","task_version":"0.2"},{"response_times":[537.4950000550598,475.6049999850802,578.9450000156648,491.7600000044331,622.4800000200048,732.9249999602325,605.8700000285171,750.4600000102073,655.4000000469387,464.2050000256859],"keys_pressed":["rightarrow","leftarrow","leftarrow","rightarrow","leftarrow","leftarrow","leftarrow","leftarrow","leftarrow","leftarrow"],"horizon":10,"forced_choices":["rightarrow","leftarrow","leftarrow","rightarrow"],"right_color":"lightblue","left_color":"orange","left_mu":40,"right_mu":32,"left_numbers":[28,50,31,32,43,28,51,43,50,35],"right_numbers":[23,26,41,30,40,31,38,43,28,48],"points_earned":384,"phase":"task","trial_type":"horizons-task","trial_index":28,"time_elapsed":395954,"internal_node_id":"0.0-24.0","task_version":"0.2"},{"response_times":[673.6900000250898,517.9149999748915,449.9599999981001,634.6050000283867,1130.4649999947287],"keys_pressed":["rightarrow","rightarrow","leftarrow","leftarrow","leftarrow"],"horizon":5,"forced_choices":["rightarrow","rightarrow","leftarrow","leftarrow"],"right_color":"orange","left_color":"lightblue","left_mu":60,"right_mu":64,"left_numbers":[50,52,53,68,57],"right_numbers":[62,62,65,60,61],"points_earned":302,"phase":"task","trial_type":"horizons-task","trial_index":29,"time_elapsed":400872,"internal_node_id":"0.0-25.0","task_version":"0.2"},{"response_times":[590.7749999896623,475.88500002166256,550.2649999689311,651.8100000103004,1003.2750000245869,770.6099999486469,464.7050000494346,460.93000000109896,449.85000003362074,465.1949999970384],"keys_pressed":["leftarrow","leftarrow","rightarrow","rightarrow","rightarrow","rightarrow","rightarrow","rightarrow","rightarrow","rightarrow"],"horizon":10,"forced_choices":["leftarrow","leftarrow","rightarrow","rightarrow"],"right_color":"lightblue","left_color":"orange","left_mu":40,"right_mu":70,"left_numbers":[42,40,32,33,57,57,38,51,33,49],"right_numbers":[68,61,54,70,64,74,68,73,65,66],"points_earned":616,"phase":"task","trial_type":"horizons-task","trial_index":30,"time_elapsed":408268,"internal_node_id":"0.0-26.0","task_version":"0.2"},{"response_times":[703.3200000296347,434.29000000469387,350.1900000264868,455.0499999895692,1414.710000040941,529.1849999921396,309.9200000287965,352.5849999859929,469.18000001460314,377.329999988433],"keys_pressed":["leftarrow","rightarrow","leftarrow","leftarrow","rightarrow","rightarrow","rightarrow","rightarrow","rightarrow","rightarrow"],"horizon":10,"forced_choices":["leftarrow","rightarrow","leftarrow","leftarrow"],"right_color":"lightblue","left_color":"orange","left_mu":40,"right_mu":44,"left_numbers":[40,48,49,33,38,42,39,52,37,31],"right_numbers":[46,47,40,41,58,43,51,44,22,61],"points_earned":448,"phase":"task","trial_type":"horizons-task","trial_index":31,"time_elapsed":415173,"internal_node_id":"0.0-27.0","task_version":"0.2"},{"response_times":[648.7450000131503,505.2649999852292,709.8350000451319,687.534999975469,856.3999999896623,623.5250000027008,431.3050000346266,630.6049999548122,714.9100000387989,426.3599999831058],"keys_pressed":["rightarrow","leftarrow","rightarrow","leftarrow","leftarrow","leftarrow","leftarrow","leftarrow","leftarrow","leftarrow"],"horizon":10,"forced_choices":["rightarrow","leftarrow","rightarrow","leftarrow"],"right_color":"orange","left_color":"lightblue","left_mu":40,"right_mu":36,"left_numbers":[43,52,48,42,39,17,40,44,49,34],"right_numbers":[37,32,26,45,40,47,37,28,61,39],"points_earned":380,"phase":"task","trial_type":"horizons-task","trial_index":32,"time_elapsed":422919,"internal_node_id":"0.0-28.0","task_version":"0.2"},{"response_times":[570.0049999868497,454.3800000101328,585.4449999751523,443.2700000470504,999.8650000197813,881.6849999711849,426.8299999530427,409.5649999799207,418.10999996960163,331.0449999989942],"keys_pressed":["leftarrow","leftarrow","rightarrow","rightarrow","leftarrow","leftarrow","leftarrow","leftarrow","leftarrow","leftarrow"],"horizon":10,"forced_choices":["leftarrow","leftarrow","rightarrow","rightarrow"],"right_color":"lightblue","left_color":"orange","left_mu":60,"right_mu":40,"left_numbers":[55,70,57,56,52,52,57,56,50,66],"right_numbers":[42,27,41,35,53,35,32,46,42,54],"points_earned":534,"phase":"task","trial_type":"horizons-task","trial_index":33,"time_elapsed":429948,"internal_node_id":"0.0-29.0","task_version":"0.2"},{"response_times":[656.4650000073016,411.55999997863546,565.9300000406802,600.5349999759346,1192.2950000152923,582.0550000062212,312.355000001844,233.66999998688698,477.515000035055,507.94500001939014],"keys_pressed":["leftarrow","rightarrow","rightarrow","leftarrow","rightarrow","rightarrow","rightarrow","rightarrow","rightarrow","rightarrow"],"horizon":10,"forced_choices":["leftarrow","rightarrow","rightarrow","leftarrow"],"right_color":"lightblue","left_color":"orange","left_mu":60,"right_mu":68,"left_numbers":[67,53,65,59,56,61,66,48,38,64],"right_numbers":[78,75,57,76,74,77,72,56,65,78],"points_earned":680,"phase":"task","trial_type":"horizons-task","trial_index":34,"time_elapsed":436996,"internal_node_id":"0.0-30.0","task_version":"0.2"},{"response_times":[4156.759999983478,7105.56999995606,642.5750000053085,332.6150000211783,518.5599999967963],"keys_pressed":["leftarrow","rightarrow","leftarrow","rightarrow","rightarrow"],"horizon":5,"forced_choices":["leftarrow","rightarrow","leftarrow","rightarrow"],"right_color":"orange","left_color":"lightblue","left_mu":60,"right_mu":90,"left_numbers":[52,70,66,66,63],"right_numbers":[85,89,83,97,98],"points_earned":402,"phase":"task","trial_type":"horizons-task","trial_index":35,"time_elapsed":451265,"internal_node_id":"0.0-31.0","task_version":"0.2"},{"response_times":[677.8350000386126,405.75999999418855,503.15999996382743,505.7350000133738,1532.294999982696,647.705000010319,960.5199999641627,1262.8099999856204,904.015000036452,544.8050000122748],"keys_pressed":["leftarrow","rightarrow","rightarrow","leftarrow","rightarrow","rightarrow","leftarrow","leftarrow","leftarrow","leftarrow"],"horizon":10,"forced_choices":["leftarrow","rightarrow","rightarrow","leftarrow"],"right_color":"lightblue","left_color":"orange","left_mu":40,"right_mu":44,"left_numbers":[39,43,34,27,44,40,40,39,37,45],"right_numbers":[33,53,27,54,34,34,46,35,50,34],"points_earned":375,"phase":"task","trial_type":"horizons-task","trial_index":36,"time_elapsed":460723,"internal_node_id":"0.0-32.0","task_version":"0.2"},{"response_times":[710.6100000091828,544.1199999768287,406.9850000087172,799.5499999960884,323.61000002129003],"keys_pressed":["rightarrow","leftarrow","rightarrow","leftarrow","rightarrow"],"horizon":5,"forced_choices":["rightarrow","leftarrow","rightarrow","leftarrow"],"right_color":"lightblue","left_color":"orange","left_mu":60,"right_mu":80,"left_numbers":[72,45,64,58,62],"right_numbers":[74,86,75,71,63],"points_earned":315,"phase":"task","trial_type":"horizons-task","trial_index":37,"time_elapsed":465015,"internal_node_id":"0.0-33.0","task_version":"0.2"},{"response_times":[747.0300000277348,392.6600000122562,349.6349999913946,734.3649999820627,448.8549999659881],"keys_pressed":["leftarrow","rightarrow","leftarrow","leftarrow","rightarrow"],"horizon":5,"forced_choices":["leftarrow","rightarrow","leftarrow","leftarrow"],"right_color":"lightblue","left_color":"orange","left_mu":40,"right_mu":44,"left_numbers":[40,33,25,60,27],"right_numbers":[51,53,40,45,57],"points_earned":235,"phase":"task","trial_type":"horizons-task","trial_index":38,"time_elapsed":469198,"internal_node_id":"0.0-34.0","task_version":"0.2"},{"response_times":[753.919999988284,3863.3000000263564,605.0549999927171,793.839999998454,848.3700000215322,506.75000000046566,339.3499999656342,311.6900000022724,341.67499997420236,379.7799999592826],"keys_pressed":["rightarrow","rightarrow","leftarrow","rightarrow","leftarrow","leftarrow","leftarrow","leftarrow","leftarrow","leftarrow"],"horizon":10,"forced_choices":["rightarrow","rightarrow","leftarrow","rightarrow"],"right_color":"orange","left_color":"lightblue","left_mu":60,"right_mu":56,"left_numbers":[53,64,63,61,67,76,55,53,67,59],"right_numbers":[61,56,56,52,33,45,55,64,65,61],"points_earned":609,"phase":"task","trial_type":"horizons-task","trial_index":39,"time_elapsed":479452,"internal_node_id":"0.0-35.0","task_version":"0.2"},{"response_times":[736.0200000111945,577.1499999682419,480.0900000263937,606.9700000225566,570.0550000183284,386.82000001426786,404.7250000294298,424.88999996567145,467.1650000382215,548.1949999812059],"keys_pressed":["rightarrow","rightarrow","leftarrow","rightarrow","rightarrow","rightarrow","rightarrow","rightarrow","rightarrow","rightarrow"],"horizon":10,"forced_choices":["rightarrow","rightarrow","leftarrow","rightarrow"],"right_color":"orange","left_color":"lightblue","left_mu":40,"right_mu":52,"left_numbers":[26,41,40,46,28,41,42,43,34,35],"right_numbers":[55,44,42,57,56,50,42,48,60,66],"points_earned":518,"phase":"task","trial_type":"horizons-task","trial_index":40,"time_elapsed":486161,"internal_node_id":"0.0-36.0","task_version":"0.2"},{"response_times":[677.9200000455603,1205.7800000184216,1193.5999999986961,1528.1449999893084,864.6350000053644,319.65000001946464,567.029999976512,404.18999997200444,422.8000000002794,588.7600000132807],"keys_pressed":["rightarrow","leftarrow","leftarrow","leftarrow","leftarrow","leftarrow","leftarrow","leftarrow","leftarrow","leftarrow"],"horizon":10,"forced_choices":["rightarrow","leftarrow","leftarrow","leftarrow"],"right_color":"orange","left_color":"lightblue","left_mu":40,"right_mu":20,"left_numbers":[49,47,48,30,25,44,36,47,44,42],"right_numbers":[8,25,16,22,29,15,18,12,17,17],"points_earned":371,"phase":"task","trial_type":"horizons-task","trial_index":41,"time_elapsed":495445,"internal_node_id":"0.0-37.0","task_version":"0.2"},{"response_times":[622.7300000027753,693.1450000265613,802.4900000309572,807.3050000239164,1075.1600000075996,529.6300000045449,505.8600000338629,304.839999997057,357.845000049565,423.8599999807775],"keys_pressed":["rightarrow","rightarrow","rightarrow","leftarrow","rightarrow","rightarrow","rightarrow","rightarrow","rightarrow","rightarrow"],"horizon":10,"forced_choices":["rightarrow","rightarrow","rightarrow","leftarrow"],"right_color":"lightblue","left_color":"orange","left_mu":40,"right_mu":70,"left_numbers":[32,25,42,36,34,37,51,46,29,40],"right_numbers":[76,80,68,74,78,83,70,65,67,67],"points_earned":690,"phase":"task","trial_type":"horizons-task","trial_index":42,"time_elapsed":503078,"internal_node_id":"0.0-38.0","task_version":"0.2"},{"response_times":[657.3050000006333,844.6150000090711,650.2449999679811,753.1299999682233,2223.485000024084,596.689999976661,477.62000001966953,398.6600000062026,82.30499998899177,557.6350000337698],"keys_pressed":["leftarrow","leftarrow","rightarrow","rightarrow","leftarrow","rightarrow","rightarrow","rightarrow","rightarrow","rightarrow"],"horizon":10,"forced_choices":["leftarrow","leftarrow","rightarrow","rightarrow"],"right_color":"lightblue","left_color":"orange","left_mu":40,"right_mu":60,"left_numbers":[45,58,57,44,32,57,41,24,27,34],"right_numbers":[72,49,56,56,47,60,63,84,52,61],"points_earned":567,"phase":"task","trial_type":"horizons-task","trial_index":43,"time_elapsed":511831,"internal_node_id":"0.0-39.0","task_version":"0.2"},{"response_times":[920.574999996461,373.0799999902956,571.3049999903888,818.5049999738112,698.050000006333],"keys_pressed":["leftarrow","rightarrow","rightarrow","rightarrow","rightarrow"],"horizon":5,"forced_choices":["leftarrow","rightarrow","rightarrow","rightarrow"],"right_color":"lightblue","left_color":"orange","left_mu":60,"right_mu":52,"left_numbers":[55,60,54,42,61],"right_numbers":[60,60,50,53,58],"points_earned":276,"phase":"task","trial_type":"horizons-task","trial_index":44,"time_elapsed":516722,"internal_node_id":"0.0-40.0","task_version":"0.2"},{"response_times":[679.439999978058,464.04499997152016,670.1049999683164,1188.6999999987893,725.8100000326522],"keys_pressed":["rightarrow","leftarrow","leftarrow","rightarrow","leftarrow"],"horizon":5,"forced_choices":["rightarrow","leftarrow","leftarrow","rightarrow"],"right_color":"lightblue","left_color":"orange","left_mu":40,"right_mu":32,"left_numbers":[39,46,31,32,43],"right_numbers":[20,25,37,43,35],"points_earned":183,"phase":"task","trial_type":"horizons-task","trial_index":45,"time_elapsed":521959,"internal_node_id":"0.0-41.0","task_version":"0.2"},{"response_times":[697.9900000151247,453.3200000296347,510.83000004291534,698.8199999905191,496.625000028871,1051.7150000086986,158.93500001402572,204.70999996177852,459.5700000063516,364.1250000218861],"keys_pressed":["leftarrow","leftarrow","rightarrow","leftarrow","rightarrow","rightarrow","rightarrow","rightarrow","rightarrow","rightarrow"],"horizon":10,"forced_choices":["leftarrow","leftarrow","rightarrow","leftarrow"],"right_color":"orange","left_color":"lightblue","left_mu":60,"right_mu":90,"left_numbers":[49,63,53,51,59,62,63,73,57,66],"right_numbers":[110,93,73,101,79,103,96,93,82,102],"points_earned":791,"phase":"task","trial_type":"horizons-task","trial_index":46,"time_elapsed":528567,"internal_node_id":"0.0-42.0","task_version":"0.2"},{"response_times":[749.6299999766052,400.3950000042096,616.150000016205,544.6300000185147,641.2850000197068],"keys_pressed":["rightarrow","leftarrow","leftarrow","rightarrow","leftarrow"],"horizon":5,"forced_choices":["rightarrow","leftarrow","leftarrow","rightarrow"],"right_color":"orange","left_color":"lightblue","left_mu":40,"right_mu":28,"left_numbers":[28,31,40,49,46],"right_numbers":[22,27,27,28,39],"points_earned":167,"phase":"task","trial_type":"horizons-task","trial_index":47,"time_elapsed":533030,"internal_node_id":"0.0-43.0","task_version":"0.2"},{"response_times":[640.0200000498444,418.8900000299327,731.2449999735691,672.3300000303425,425.9500000043772],"keys_pressed":["leftarrow","rightarrow","rightarrow","rightarrow","rightarrow"],"horizon":5,"forced_choices":["leftarrow","rightarrow","rightarrow","rightarrow"],"right_color":"lightblue","left_color":"orange","left_mu":60,"right_mu":80,"left_numbers":[64,62,69,59,51],"right_numbers":[79,76,75,76,69],"points_earned":360,"phase":"task","trial_type":"horizons-task","trial_index":48,"time_elapsed":537431,"internal_node_id":"0.0-44.0","task_version":"0.2"},{"response_times":[711.040000023786,490.4349999851547,798.1450000079349,426.32999998750165,1005.4899999522604],"keys_pressed":["leftarrow","leftarrow","leftarrow","rightarrow","leftarrow"],"horizon":5,"forced_choices":["leftarrow","leftarrow","leftarrow","rightarrow"],"right_color":"lightblue","left_color":"orange","left_mu":40,"right_mu":48,"left_numbers":[51,50,33,38,39],"right_numbers":[42,55,52,45,51],"points_earned":218,"phase":"task","trial_type":"horizons-task","trial_index":49,"time_elapsed":542373,"internal_node_id":"0.0-45.0","task_version":"0.2"},{"response_times":[517.2100000199862,387.2049999772571,494.7449999745004,722.0849999575876,414.58500002045184],"keys_pressed":["leftarrow","rightarrow","leftarrow","rightarrow","leftarrow"],"horizon":5,"forced_choices":["leftarrow","rightarrow","leftarrow","rightarrow"],"right_color":"orange","left_color":"lightblue","left_mu":40,"right_mu":20,"left_numbers":[35,46,36,33,40],"right_numbers":[11,13,11,13,10],"points_earned":137,"phase":"task","trial_type":"horizons-task","trial_index":50,"time_elapsed":546420,"internal_node_id":"0.0-46.0","task_version":"0.2"},{"view_history":"[{\"page_index\":0,\"viewing_time\":2385.599999979604},{\"page_index\":1,\"viewing_time\":1784.525000024587}]","rt":4170.689999999013,"trial_type":"instructions","trial_index":51,"time_elapsed":550595,"internal_node_id":"0.0-47.0","task_version":"0.2"},{"response_times":[1226.5950000146404,575.1149999559857,541.3450000341982,471.6150000458583,1018.88000004692,535.6999999494292,323.3699999982491,1134.360000025481,505.8600000338629,388.73500004410744],"keys_pressed":["rightarrow","rightarrow","leftarrow","leftarrow","rightarrow","rightarrow","rightarrow","rightarrow","rightarrow","rightarrow"],"horizon":10,"forced_choices":["rightarrow","rightarrow","leftarrow","leftarrow"],"right_color":"orange","left_color":"lightblue","left_mu":60,"right_mu":72,"left_numbers":[61,63,61,56,45,69,58,48,66,46],"right_numbers":[80,65,81,86,79,65,79,81,79,73],"points_earned":718,"phase":"task","trial_type":"horizons-task","trial_index":52,"time_elapsed":558832,"internal_node_id":"0.0-48.0","task_version":"0.2"},{"response_times":[795.380000025034,434.1950000380166,880.1749999984168,694.2300000227988,513.9100000378676],"keys_pressed":["leftarrow","rightarrow","rightarrow","rightarrow","leftarrow"],"horizon":5,"forced_choices":["leftarrow","rightarrow","rightarrow","rightarrow"],"right_color":"lightblue","left_color":"orange","left_mu":60,"right_mu":40,"left_numbers":[56,65,59,54,57],"right_numbers":[34,35,36,29,38],"points_earned":213,"phase":"task","trial_type":"horizons-task","trial_index":53,"time_elapsed":563656,"internal_node_id":"0.0-49.0","task_version":"0.2"},{"response_times":[754.3300000252202,587.305000051856,411.3900000229478,597.81499998644,862.4849999905564],"keys_pressed":["rightarrow","rightarrow","leftarrow","leftarrow","rightarrow"],"horizon":5,"forced_choices":["rightarrow","rightarrow","leftarrow","leftarrow"],"right_color":"orange","left_color":"lightblue","left_mu":60,"right_mu":72,"left_numbers":[61,63,72,69,55],"right_numbers":[71,73,58,66,77],"points_earned":362,"phase":"task","trial_type":"horizons-task","trial_index":54,"time_elapsed":568377,"internal_node_id":"0.0-50.0","task_version":"0.2"},{"response_times":[655.4599999799393,407.81499998411164,365.5849999631755,563.3549999911338,475.16999999061227],"keys_pressed":["rightarrow","leftarrow","rightarrow","rightarrow","rightarrow"],"horizon":5,"forced_choices":["rightarrow","leftarrow","rightarrow","rightarrow"],"right_color":"lightblue","left_color":"orange","left_mu":40,"right_mu":60,"left_numbers":[36,48,35,47,37],"right_numbers":[64,55,74,66,74],"points_earned":326,"phase":"task","trial_type":"horizons-task","trial_index":55,"time_elapsed":572352,"internal_node_id":"0.0-51.0","task_version":"0.2"},{"response_times":[669.7949999943376,390.7749999780208,587.8800000064075,341.3200000068173,389.02000000234693,717.6650000037625,208.0650000134483,143.43500003451481,321.605000004638,395.0900000054389],"keys_pressed":["rightarrow","leftarrow","leftarrow","rightarrow","leftarrow","leftarrow","leftarrow","leftarrow","leftarrow","leftarrow"],"horizon":10,"forced_choices":["rightarrow","leftarrow","leftarrow","rightarrow"],"right_color":"lightblue","left_color":"orange","left_mu":60,"right_mu":48,"left_numbers":[68,67,69,70,68,68,68,57,66,68],"right_numbers":[50,42,43,49,46,55,45,37,41,51],"points_earned":630,"phase":"task","trial_type":"horizons-task","trial_index":56,"time_elapsed":578024,"internal_node_id":"0.0-52.0","task_version":"0.2"},{"response_times":[621.770000027027,619.280000042636,294.60999998264015,570.3450000146404,291.6600000462495],"keys_pressed":["leftarrow","leftarrow","rightarrow","rightarrow","leftarrow"],"horizon":5,"forced_choices":["leftarrow","leftarrow","rightarrow","rightarrow"],"right_color":"lightblue","left_color":"orange","left_mu":60,"right_mu":40,"left_numbers":[73,48,56,73,60],"right_numbers":[35,35,44,34,38],"points_earned":259,"phase":"task","trial_type":"horizons-task","trial_index":57,"time_elapsed":581933,"internal_node_id":"0.0-53.0","task_version":"0.2"},{"response_times":[732.6200000243261,479.4700000202283,798.3149999636225,539.2549999523908,827.6099999784492],"keys_pressed":["leftarrow","leftarrow","leftarrow","rightarrow","leftarrow"],"horizon":5,"forced_choices":["leftarrow","leftarrow","leftarrow","rightarrow"],"right_color":"orange","left_color":"lightblue","left_mu":60,"right_mu":30,"left_numbers":[53,57,50,56,61],"right_numbers":[19,25,15,30,39],"points_earned":251,"phase":"task","trial_type":"horizons-task","trial_index":58,"time_elapsed":586820,"internal_node_id":"0.0-54.0","task_version":"0.2"},{"response_times":[777.0700000110082,425.94499996630475,602.7849999954924,530.7800000300631,1285.3800000157207,653.1050000339746,489.3900000024587,206.99999999487773,235.0950000109151,394.655000010971],"keys_pressed":["rightarrow","leftarrow","rightarrow","rightarrow","rightarrow","rightarrow","rightarrow","rightarrow","rightarrow","rightarrow"],"horizon":10,"forced_choices":["rightarrow","leftarrow","rightarrow","rightarrow"],"right_color":"orange","left_color":"lightblue","left_mu":60,"right_mu":64,"left_numbers":[56,50,55,65,58,61,61,53,67,70],"right_numbers":[65,62,58,60,59,69,67,58,61,58],"points_earned":605,"phase":"task","trial_type":"horizons-task","trial_index":59,"time_elapsed":593930,"internal_node_id":"0.0-55.0","task_version":"0.2"},{"response_times":[813.5450000409037,502.4599999887869,669.6100000408478,572.2049999749288,913.315000012517,503.824999963399,371.5700000175275,362.8700000117533,364.80999999912456,352.33000002335757],"keys_pressed":["rightarrow","leftarrow","rightarrow","leftarrow","rightarrow","rightarrow","rightarrow","rightarrow","rightarrow","rightarrow"],"horizon":10,"forced_choices":["rightarrow","leftarrow","rightarrow","leftarrow"],"right_color":"lightblue","left_color":"orange","left_mu":60,"right_mu":80,"left_numbers":[60,66,55,62,61,59,60,68,54,54],"right_numbers":[86,78,92,64,78,79,80,87,82,70],"points_earned":782,"phase":"task","trial_type":"horizons-task","trial_index":60,"time_elapsed":600864,"internal_node_id":"0.0-56.0","task_version":"0.2"},{"response_times":[790.1249999995343,368.56500001158565,760.2049999986775,688.0400000372902,1677.7950000250712,290.0000000372529,299.75000000558794,287.3850000323728,309.97000000206754,338.6849999660626],"keys_pressed":["rightarrow","leftarrow","leftarrow","leftarrow","leftarrow","leftarrow","leftarrow","leftarrow","leftarrow","leftarrow"],"horizon":10,"forced_choices":["rightarrow","leftarrow","leftarrow","leftarrow"],"right_color":"lightblue","left_color":"orange","left_mu":60,"right_mu":48,"left_numbers":[59,55,60,63,73,72,50,49,49,65],"right_numbers":[42,50,49,41,42,59,41,55,55,43],"points_earned":578,"phase":"task","trial_type":"horizons-task","trial_index":61,"time_elapsed":608182,"internal_node_id":"0.0-57.0","task_version":"0.2"},{"response_times":[618.2550000376068,405.3249999997206,611.3349999650382,752.9600000125356,1193.7599999946542],"keys_pressed":["rightarrow","leftarrow","leftarrow","leftarrow","rightarrow"],"horizon":5,"forced_choices":["rightarrow","leftarrow","leftarrow","leftarrow"],"right_color":"lightblue","left_color":"orange","left_mu":60,"right_mu":68,"left_numbers":[57,54,58,58,61],"right_numbers":[57,61,61,70,66],"points_earned":293,"phase":"task","trial_type":"horizons-task","trial_index":62,"time_elapsed":613277,"internal_node_id":"0.0-58.0","task_version":"0.2"},{"response_times":[727.9099999577738,337.24000002257526,401.1199999949895,474.4749999954365,330.64999995986,1676.2200000230223,289.8350000032224,187.01499997405335,167.33500000555068,189.6199999609962],"keys_pressed":["leftarrow","rightarrow","leftarrow","rightarrow","leftarrow","rightarrow","rightarrow","rightarrow","rightarrow","rightarrow"],"horizon":10,"forced_choices":["leftarrow","rightarrow","leftarrow","rightarrow"],"right_color":"orange","left_color":"lightblue","left_mu":60,"right_mu":90,"left_numbers":[63,55,70,56,44,43,52,71,61,55],"right_numbers":[103,96,85,91,93,94,93,96,91,93],"points_earned":831,"phase":"task","trial_type":"horizons-task","trial_index":63,"time_elapsed":619567,"internal_node_id":"0.0-59.0","task_version":"0.2"},{"response_times":[778.7499999976717,412.82499994849786,1037.914999993518,615.784999972675,3357.7250000089407,569.1599999554455,999.439999985043,169.23499997938052,144.93000000948086,126.08499999623746],"keys_pressed":["leftarrow","rightarrow","leftarrow","rightarrow","leftarrow","rightarrow","rightarrow","rightarrow","rightarrow","rightarrow"],"horizon":10,"forced_choices":["leftarrow","rightarrow","leftarrow","rightarrow"],"right_color":"lightblue","left_color":"orange","left_mu":40,"right_mu":48,"left_numbers":[38,37,56,52,49,28,38,29,41,50],"right_numbers":[66,39,37,54,54,51,50,33,54,36],"points_earned":460,"phase":"task","trial_type":"horizons-task","trial_index":64,"time_elapsed":629293,"internal_node_id":"0.0-60.0","task_version":"0.2"},{"response_times":[690.1499999803491,335.42499999748543,862.1699999785051,432.9499999876134,974.0449999808334,709.9550000275485,194.65999997919425,163.8950000051409,480.4700000095181,283.44999998807907],"keys_pressed":["rightarrow","leftarrow","rightarrow","leftarrow","leftarrow","leftarrow","leftarrow","leftarrow","leftarrow","leftarrow"],"horizon":10,"forced_choices":["rightarrow","leftarrow","rightarrow","leftarrow"],"right_color":"orange","left_color":"lightblue","left_mu":60,"right_mu":56,"left_numbers":[49,60,80,58,50,63,59,56,52,55],"right_numbers":[58,67,54,60,50,60,53,54,46,66],"points_earned":565,"phase":"task","trial_type":"horizons-task","trial_index":65,"time_elapsed":635932,"internal_node_id":"0.0-61.0","task_version":"0.2"},{"response_times":[676.5900000464171,356.0200000065379,1154.6850000158884,641.4499999955297,632.2200000286102,875.1150000025518,163.32500003045425,134.70500003313646,129.73499996587634,211.26499999081716],"keys_pressed":["leftarrow","rightarrow","rightarrow","rightarrow","leftarrow","leftarrow","leftarrow","leftarrow","leftarrow","leftarrow"],"horizon":10,"forced_choices":["leftarrow","rightarrow","rightarrow","rightarrow"],"right_color":"lightblue","left_color":"orange","left_mu":60,"right_mu":40,"left_numbers":[49,50,61,54,64,57,55,47,73,67],"right_numbers":[40,32,21,34,33,33,47,59,34,35],"points_earned":499,"phase":"task","trial_type":"horizons-task","trial_index":66,"time_elapsed":642418,"internal_node_id":"0.0-62.0","task_version":"0.2"},{"response_times":[750.5999999702908,561.7799999890849,474.57999998005107,593.204999982845,789.10499997437],"keys_pressed":["leftarrow","leftarrow","rightarrow","leftarrow","leftarrow"],"horizon":5,"forced_choices":["leftarrow","leftarrow","rightarrow","leftarrow"],"right_color":"orange","left_color":"lightblue","left_mu":40,"right_mu":10,"left_numbers":[41,33,29,29,44],"right_numbers":[22,12,15,4,1],"points_earned":162,"phase":"task","trial_type":"horizons-task","trial_index":67,"time_elapsed":647095,"internal_node_id":"0.0-63.0","task_version":"0.2"},{"response_times":[869.4850000320002,379.0999999619089,565.5750000150874,669.3599999998696,736.9199999957345,230.03000003518537,179.71999995643273,166.70499998144805,229.44500000448897,333.7999999639578],"keys_pressed":["rightarrow","leftarrow","rightarrow","rightarrow","rightarrow","rightarrow","rightarrow","rightarrow","rightarrow","rightarrow"],"horizon":10,"forced_choices":["rightarrow","leftarrow","rightarrow","rightarrow"],"right_color":"lightblue","left_color":"orange","left_mu":40,"right_mu":60,"left_numbers":[30,36,46,41,31,29,41,32,37,23],"right_numbers":[52,66,57,70,58,55,58,57,67,53],"points_earned":563,"phase":"task","trial_type":"horizons-task","trial_index":68,"time_elapsed":652968,"internal_node_id":"0.0-64.0","task_version":"0.2"},{"response_times":[671.5599999879487,492.14999994728714,466.09000000171363,667.3449999652803,643.1250000023283],"keys_pressed":["rightarrow","rightarrow","leftarrow","rightarrow","rightarrow"],"horizon":5,"forced_choices":["rightarrow","rightarrow","leftarrow","rightarrow"],"right_color":"orange","left_color":"lightblue","left_mu":40,"right_mu":52,"left_numbers":[45,54,43,51,34],"right_numbers":[47,52,51,59,81],"points_earned":282,"phase":"task","trial_type":"horizons-task","trial_index":69,"time_elapsed":657419,"internal_node_id":"0.0-65.0","task_version":"0.2"},{"response_times":[968.8550000428222,282.6599999680184,526.0150000103749,474.75500003201887,1180.625000037253],"keys_pressed":["leftarrow","rightarrow","rightarrow","leftarrow","leftarrow"],"horizon":5,"forced_choices":["leftarrow","rightarrow","rightarrow","leftarrow"],"right_color":"lightblue","left_color":"orange","left_mu":40,"right_mu":44,"left_numbers":[38,45,41,28,32],"right_numbers":[55,29,49,37,50],"points_earned":176,"phase":"task","trial_type":"horizons-task","trial_index":70,"time_elapsed":662366,"internal_node_id":"0.0-66.0","task_version":"0.2"},{"response_times":[892.6400000345893,310.1100000203587,475.7850000169128,478.14000002108514,398.4599999967031,704.3300000368617,516.1199999856763,488.68499998934567,150.85999999428168,138.69999995222315],"keys_pressed":["leftarrow","rightarrow","rightarrow","rightarrow","rightarrow","rightarrow","leftarrow","leftarrow","leftarrow","leftarrow"],"horizon":10,"forced_choices":["leftarrow","rightarrow","rightarrow","rightarrow"],"right_color":"lightblue","left_color":"orange","left_mu":60,"right_mu":52,"left_numbers":[62,64,59,59,55,67,81,68,70,55],"right_numbers":[53,49,55,49,58,51,45,47,44,47],"points_earned":598,"phase":"task","trial_type":"horizons-task","trial_index":71,"time_elapsed":668431,"internal_node_id":"0.0-67.0","task_version":"0.2"},{"response_times":[655.2299999748357,327.65999995172024,605.6099999696016,482.9800000297837,510.4700000374578],"keys_pressed":["leftarrow","rightarrow","rightarrow","leftarrow","rightarrow"],"horizon":5,"forced_choices":["leftarrow","rightarrow","rightarrow","leftarrow"],"right_color":"lightblue","left_color":"orange","left_mu":60,"right_mu":68,"left_numbers":[54,57,55,53,55],"right_numbers":[47,61,62,81,56],"points_earned":286,"phase":"task","trial_type":"horizons-task","trial_index":72,"time_elapsed":672526,"internal_node_id":"0.0-68.0","task_version":"0.2"},{"response_times":[795.9200000041164,574.5549999992363,468.24000001652166,845.2950000064448,611.209999944549],"keys_pressed":["leftarrow","leftarrow","rightarrow","leftarrow","rightarrow"],"horizon":5,"forced_choices":["leftarrow","leftarrow","rightarrow","leftarrow"],"right_color":"orange","left_color":"lightblue","left_mu":60,"right_mu":90,"left_numbers":[77,50,52,61,52],"right_numbers":[92,93,81,89,81],"points_earned":350,"phase":"task","trial_type":"horizons-task","trial_index":73,"time_elapsed":677329,"internal_node_id":"0.0-69.0","task_version":"0.2"},{"response_times":[785.0500000058673,394.7749999933876,583.1100000068545,501.87000003643334,330.0900000031106],"keys_pressed":["rightarrow","leftarrow","rightarrow","rightarrow","rightarrow"],"horizon":5,"forced_choices":["rightarrow","leftarrow","rightarrow","rightarrow"],"right_color":"orange","left_color":"lightblue","left_mu":60,"right_mu":64,"left_numbers":[60,54,60,70,51],"right_numbers":[63,63,68,72,54],"points_earned":311,"phase":"task","trial_type":"horizons-task","trial_index":74,"time_elapsed":681434,"internal_node_id":"0.0-70.0","task_version":"0.2"},{"response_times":[702.2650000290014,314.2200000002049,366.18000001180917,695.3999999677762,589.9649999919347],"keys_pressed":["leftarrow","rightarrow","leftarrow","rightarrow","leftarrow"],"horizon":5,"forced_choices":["leftarrow","rightarrow","leftarrow","rightarrow"],"right_color":"lightblue","left_color":"orange","left_mu":40,"right_mu":48,"left_numbers":[51,42,38,32,56],"right_numbers":[52,28,41,47,44],"points_earned":220,"phase":"task","trial_type":"horizons-task","trial_index":75,"time_elapsed":685611,"internal_node_id":"0.0-71.0","task_version":"0.2"},{"response_times":[683.5850000497885,277.5749999564141,391.64500002516434,648.1650000205263,635.2499999920838,1322.184999997262,227.56999998819083,173.62999997567385,129.6149999834597,138.96000001113862],"keys_pressed":["leftarrow","rightarrow","leftarrow","leftarrow","rightarrow","leftarrow","leftarrow","leftarrow","leftarrow","leftarrow"],"horizon":10,"forced_choices":["leftarrow","rightarrow","leftarrow","leftarrow"],"right_color":"orange","left_color":"lightblue","left_mu":40,"right_mu":36,"left_numbers":[50,41,47,28,49,42,44,39,39,40],"right_numbers":[38,42,37,45,37,42,37,32,41,30],"points_earned":408,"phase":"task","trial_type":"horizons-task","trial_index":76,"time_elapsed":691751,"internal_node_id":"0.0-72.0","task_version":"0.2"},{"response_times":[539.6900000050664,338.164999964647,426.1100000003353,484.45999994874,954.6799999661744],"keys_pressed":["leftarrow","rightarrow","leftarrow","rightarrow","rightarrow"],"horizon":5,"forced_choices":["leftarrow","rightarrow","leftarrow","rightarrow"],"right_color":"orange","left_color":"lightblue","left_mu":40,"right_mu":52,"left_numbers":[46,51,31,44,46],"right_numbers":[48,42,52,58,51],"points_earned":228,"phase":"task","trial_type":"horizons-task","trial_index":77,"time_elapsed":696005,"internal_node_id":"0.0-73.0","task_version":"0.2"},{"response_times":[815.47499995213,751.0500000207685,1791.4049999671988,573.4350000275299,800.2300000516698,1533.800000033807,201.26000000163913,161.18499997537583,321.7350000049919,442.8400000324473],"keys_pressed":["rightarrow","rightarrow","leftarrow","leftarrow","rightarrow","rightarrow","rightarrow","rightarrow","rightarrow","rightarrow"],"horizon":10,"forced_choices":["rightarrow","rightarrow","leftarrow","leftarrow"],"right_color":"orange","left_color":"lightblue","left_mu":60,"right_mu":64,"left_numbers":[81,60,60,66,72,52,50,44,52,59],"right_numbers":[74,55,59,50,50,55,67,57,63,46],"points_earned":593,"phase":"task","trial_type":"horizons-task","trial_index":78,"time_elapsed":704910,"internal_node_id":"0.0-74.0","task_version":"0.2"},{"response_times":[869.9950000154786,350.9949999861419,416.28500004298985,634.8600000492297,337.085000006482,682.509999955073,382.0900000282563,285.90999997686595,173.89000003458932,194.83000005129725],"keys_pressed":["leftarrow","rightarrow","leftarrow","rightarrow","leftarrow","leftarrow","leftarrow","leftarrow","leftarrow","leftarrow"],"horizon":10,"forced_choices":["leftarrow","rightarrow","leftarrow","rightarrow"],"right_color":"orange","left_color":"lightblue","left_mu":40,"right_mu":20,"left_numbers":[45,48,53,39,47,45,43,44,40,45],"right_numbers":[13,16,7,8,16,23,28,14,28,29],"points_earned":386,"phase":"task","trial_type":"horizons-task","trial_index":79,"time_elapsed":710749,"internal_node_id":"0.0-75.0","task_version":"0.2"},{"response_times":[1313.2750000222586,572.2650000243448,728.2000000122935,478.6949999979697,698.5050000366755,2515.4099999926984,231.79999995045364,152.14500000001863,250.21500000730157,330.8449999894947],"keys_pressed":["rightarrow","rightarrow","rightarrow","leftarrow","leftarrow","rightarrow","rightarrow","rightarrow","rightarrow","rightarrow"],"horizon":10,"forced_choices":["rightarrow","rightarrow","rightarrow","leftarrow"],"right_color":"orange","left_color":"lightblue","left_mu":40,"right_mu":28,"left_numbers":[53,48,54,34,56,49,49,57,35,34],"right_numbers":[32,42,35,23,40,32,33,23,33,36],"points_earned":356,"phase":"task","trial_type":"horizons-task","trial_index":80,"time_elapsed":719534,"internal_node_id":"0.0-76.0","task_version":"0.2"},{"response_times":[704.8500000382774,633.4250000072643,468.00499997334555,567.1500000171363,922.5100000039674,170.2750000404194,211.32999996189028,154.55500001553446,135.71000000229105,149.6400000178255],"keys_pressed":["leftarrow","leftarrow","rightarrow","leftarrow","leftarrow","leftarrow","leftarrow","leftarrow","leftarrow","leftarrow"],"horizon":10,"forced_choices":["leftarrow","leftarrow","rightarrow","leftarrow"],"right_color":"orange","left_color":"lightblue","left_mu":40,"right_mu":10,"left_numbers":[29,37,36,39,38,53,45,42,48,35],"right_numbers":[0,6,12,0,7,21,13,4,10,2],"points_earned":378,"phase":"task","trial_type":"horizons-task","trial_index":81,"time_elapsed":725160,"internal_node_id":"0.0-77.0","task_version":"0.2"},{"response_times":[791.2649999489076,380.0199999823235,605.4499999736436,415.10000004200265,643.6550000216812],"keys_pressed":["rightarrow","leftarrow","leftarrow","rightarrow","leftarrow"],"horizon":5,"forced_choices":["rightarrow","leftarrow","leftarrow","rightarrow"],"right_color":"lightblue","left_color":"orange","left_mu":60,"right_mu":48,"left_numbers":[54,59,63,45,55],"right_numbers":[53,42,59,39,40],"points_earned":269,"phase":"task","trial_type":"horizons-task","trial_index":82,"time_elapsed":729508,"internal_node_id":"0.0-78.0","task_version":"0.2"},{"response_times":[687.5200000358745,523.6750000040047,450.85500000277534,505.65999996615574,714.5149999996647,663.1049999850802,902.8749999706633,578.3350000274368,176.77499999990687,157.87499997531995],"keys_pressed":["rightarrow","rightarrow","leftarrow","rightarrow","leftarrow","leftarrow","leftarrow","leftarrow","leftarrow","leftarrow"],"horizon":10,"forced_choices":["rightarrow","rightarrow","leftarrow","rightarrow"],"right_color":"lightblue","left_color":"orange","left_mu":40,"right_mu":32,"left_numbers":[45,37,24,34,41,38,56,55,40,44],"right_numbers":[32,34,21,23,29,51,47,28,37,28],"points_earned":387,"phase":"task","trial_type":"horizons-task","trial_index":83,"time_elapsed":736376,"internal_node_id":"0.0-79.0","task_version":"0.2"},{"response_times":[556.8050000001676,526.720000023488,421.3950000121258,454.9150000093505,891.0299999988638,854.2100000195205,182.764999975916,141.63500000722706,184.50500001199543,95.84500000346452],"keys_pressed":["leftarrow","leftarrow","leftarrow","rightarrow","rightarrow","rightarrow","rightarrow","rightarrow","rightarrow","rightarrow"],"horizon":10,"forced_choices":["leftarrow","leftarrow","leftarrow","rightarrow"],"right_color":"lightblue","left_color":"orange","left_mu":40,"right_mu":48,"left_numbers":[39,34,34,38,33,28,48,40,51,45],"right_numbers":[54,52,38,45,31,45,41,56,52,49],"points_earned":426,"phase":"task","trial_type":"horizons-task","trial_index":84,"time_elapsed":742193,"internal_node_id":"0.0-80.0","task_version":"0.2"},{"response_times":[683.4349999553524,677.3899999679998,480.99999997066334,792.4050000146963,150.72500001406297],"keys_pressed":["leftarrow","leftarrow","rightarrow","rightarrow","rightarrow"],"horizon":5,"forced_choices":["leftarrow","leftarrow","rightarrow","rightarrow"],"right_color":"lightblue","left_color":"orange","left_mu":40,"right_mu":60,"left_numbers":[51,43,22,35,45],"right_numbers":[53,59,55,77,54],"points_earned":280,"phase":"task","trial_type":"horizons-task","trial_index":85,"time_elapsed":746492,"internal_node_id":"0.0-81.0","task_version":"0.2"},{"response_times":[622.3400000017136,786.9799999753013,385.91000001179054,630.3099999786355,1550.5499999853782],"keys_pressed":["rightarrow","rightarrow","leftarrow","rightarrow","leftarrow"],"horizon":5,"forced_choices":["rightarrow","rightarrow","leftarrow","rightarrow"],"right_color":"lightblue","left_color":"orange","left_mu":40,"right_mu":32,"left_numbers":[26,36,46,40,55],"right_numbers":[34,40,26,25,36],"points_earned":200,"phase":"task","trial_type":"horizons-task","trial_index":86,"time_elapsed":752008,"internal_node_id":"0.0-82.0","task_version":"0.2"},{"response_times":[506.11999997636303,559.3499999959022,469.32499995455146,636.4150000154041,485.14000000432134],"keys_pressed":["rightarrow","rightarrow","rightarrow","leftarrow","rightarrow"],"horizon":5,"forced_choices":["rightarrow","rightarrow","rightarrow","leftarrow"],"right_color":"lightblue","left_color":"orange","left_mu":40,"right_mu":70,"left_numbers":[38,47,39,44,28],"right_numbers":[74,75,66,75,73],"points_earned":332,"phase":"task","trial_type":"horizons-task","trial_index":87,"time_elapsed":756173,"internal_node_id":"0.0-83.0","task_version":"0.2"},{"response_times":[585.6350000249222,518.7049999949522,534.1550000011921,404.4700000085868,1517.6349999965169,1401.5350000117905,496.47000001277775,200.32999996328726,221.20500000892207,509.699999995064],"keys_pressed":["rightarrow","leftarrow","leftarrow","leftarrow","rightarrow","rightarrow","rightarrow","rightarrow","rightarrow","rightarrow"],"horizon":10,"forced_choices":["rightarrow","leftarrow","leftarrow","leftarrow"],"right_color":"lightblue","left_color":"orange","left_mu":60,"right_mu":68,"left_numbers":[63,49,70,63,66,55,58,52,67,68],"right_numbers":[62,59,66,65,72,68,67,71,79,60],"points_earned":661,"phase":"task","trial_type":"horizons-task","trial_index":88,"time_elapsed":764076,"internal_node_id":"0.0-84.0","task_version":"0.2"},{"response_times":[786.385000043083,380.63000002875924,708.8850000291131,801.7600000021048,702.0999999949709],"keys_pressed":["rightarrow","leftarrow","leftarrow","leftarrow","leftarrow"],"horizon":5,"forced_choices":["rightarrow","leftarrow","leftarrow","leftarrow"],"right_color":"lightblue","left_color":"orange","left_mu":60,"right_mu":48,"left_numbers":[57,51,61,57,39],"right_numbers":[47,37,48,65,58],"points_earned":255,"phase":"task","trial_type":"horizons-task","trial_index":89,"time_elapsed":768962,"internal_node_id":"0.0-85.0","task_version":"0.2"},{"response_times":[542.7749999798834,483.03999996278435,812.705000047572,506.2000000034459,1015.4650000040419,600.1299999770708,397.8150000330061,152.5149999652058,114.54500001855195,144.9849999626167],"keys_pressed":["leftarrow","rightarrow","rightarrow","leftarrow","rightarrow","leftarrow","leftarrow","leftarrow","leftarrow","leftarrow"],"horizon":10,"forced_choices":["leftarrow","rightarrow","rightarrow","leftarrow"],"right_color":"lightblue","left_color":"orange","left_mu":60,"right_mu":52,"left_numbers":[73,47,56,52,66,63,86,57,67,62],"right_numbers":[62,51,53,45,45,53,48,56,53,39],"points_earned":609,"phase":"task","trial_type":"horizons-task","trial_index":90,"time_elapsed":775242,"internal_node_id":"0.0-86.0","task_version":"0.2"},{"response_times":[807.0399999851361,478.0649999738671,665.9099999815226,600.2100000041537,923.6450000316836,233.0099999671802,145.71000001160428,124.72999998135492,147.7350000059232,144.89499997580424],"keys_pressed":["rightarrow","leftarrow","leftarrow","rightarrow","leftarrow","leftarrow","leftarrow","leftarrow","leftarrow","leftarrow"],"horizon":10,"forced_choices":["rightarrow","leftarrow","leftarrow","rightarrow"],"right_color":"orange","left_color":"lightblue","left_mu":40,"right_mu":28,"left_numbers":[37,35,40,36,27,29,44,50,40,23],"right_numbers":[34,33,38,16,34,18,23,30,43,25],"points_earned":338,"phase":"task","trial_type":"horizons-task","trial_index":91,"time_elapsed":781020,"internal_node_id":"0.0-87.0","task_version":"0.2"},{"rt":13678.539999993518,"responses":{"age":"29","gender-categorical":"Female","gender-free-response":"","ethnicity":"Not Hispanic or Latino","race":["Asian"],"language":"Yes","fluency":"Very well"},"survey":"demographics","trial_type":"survey-demo","trial_index":92,"time_elapsed":794707,"internal_node_id":"0.0-88.0","task_version":"0.2"},{"rt":49665.3149999911,"responses":{"difficulty":"5","fun":"5","clarity":"5","strategy":"Try to go for the one with the higher numbers. Sometimes when they are similar then I would alternate between the two to see which is higher","feedback":"No"},"survey":"debrief","trial_type":"survey-debrief","trial_index":93,"time_elapsed":844378,"internal_node_id":"0.0-89.0","task_version":"0.2","interactions":"[{\"event\":\"blur\",\"trial\":1,\"time\":14614},{\"event\":\"focus\",\"trial\":1,\"time\":16677}]"}]