[{"view_history":"[{\"page_index\":0,\"viewing_time\":2617.884999985108}]","rt":2620.0799999933224,"trial_type":"instructions","trial_index":0,"time_elapsed":2632,"internal_node_id":"0.0-0.0","task_version":"0.2"},{"item_order":[10,1,16,0,13,11,9,2,7,8,6,12,14,15,5,4,3],"responses":{"Q11":"1","Q02":"1","Q17":"0","Q01":"2","Q14":"1","Q12":"1","Q10":"3","Q03":"2","Q08":"2","Q09":"2","Q07":"1","Q13":"2","Q15":"0","Q16":"3","Q06":"2","Q05":"1","Q04":"1"},"radio_events":[10947.239999979502,12699.68499999959,16362.954999989597,19690.869999991264,27585.90499998536,29771.355000004405,33451.284999988275,36507.1750000061,41083.184999995865,43618.4399999911,47898.709999979474,48106.89999998431,50945.58999998844,55867.654999980005,58042.639999999665,62193.91499998164,64466.74000000348,67283.06499999599,69797.37499999464],"key_events":[],"mouse_events":[0.3649999853223562,10947.239999979502,11706.509999989066,12082.579999987502,12404.154999996535,12699.68499999959,15579.074999986915,16362.954999989597,19403.599999990547,19690.869999991264,27090.65999998711,27363.22499997914,27585.90499998536,29771.355000004405,33451.284999988275,36507.1750000061,41083.184999995865,43618.4399999911,47163.31000000355,47898.709999979474,48106.89999998431,50945.58999998844,55459.579999995185,55867.654999980005,58042.639999999665,62193.91499998164,64466.74000000348,67283.06499999599,68723.35499999463,69797.37499999464,70570.97499998054],"rt":70579.86500000698,"survey":"pswq","trial_type":"survey-template","trial_index":1,"time_elapsed":73223,"internal_node_id":"0.0-1.0","task_version":"0.2"},{"item_order":[8,9,11,6,4,0,1,5,12,7,2,10,3],"responses":{"Q09":"1","Q10":"0","Q12":"1","Q07":"1","Q05":"1","Q01":"1","Q02":"2","Q06":"1","Q13":"4","Q08":"2","Q03":"1","Q11":"2","Q04":"2"},"radio_events":[8040.064999979222,10888.149999984307,13103.854999993928,15319.409999996424,19864.514999993844,24688.539999973727,30392.44999998482,36983.99999999674,41999.99499999103,45783.29500000109,48855.96999997506,54336.069999990286,56583.87499998207,60199.5599999791,63392.26499997312],"key_events":[],"mouse_events":[6464.049999980489,8040.064999979222,10521.139999997104,10888.149999984307,13103.854999993928,15319.409999996424,19255.84999998682,19599.614999984624,19864.514999993844,24032.264999987092,24688.539999973727,30392.44999998482,36702.699999994365,36983.99999999674,41368.719999998575,41999.99499999103,45783.29500000109,48408.77999999793,48855.96999997506,54014.62000000174,54336.069999990286,56209.204999991925,56583.87499998207,60199.5599999791,63048.394999990705,63392.26499997312,63935.46999999671],"rt":63939.90999998641,"survey":"ius12","trial_type":"survey-template","trial_index":2,"time_elapsed":137169,"internal_node_id":"0.0-2.0","task_version":"0.2"},{"item_order":[5,12,9,15,14,3,1,13,7,4,11,0,10,6,2,8],"responses":{"Q06":"3","Q13":"4","Q10":"2","Q16":"4","Q15":"4","Q04":"3","Q02":"2","Q14":"1","Q08":"2","Q05":"2","Q12":"4","Q01":"3","Q11":"2","Q07":"4","Q03":"4","Q09":"3"},"radio_events":[9171.394999983022,14637.09000000381,21429.094999999506,24876.584999990882,26556.684999988647,34090.984999987995,39820.444999990286,44700.64500000444,49276.459999993676,56668.47499998403,60372.39999999292,63811.57499999972,67052.54999999306,69787.76999999536,75916.22499999357,84012.87000000593],"key_events":[],"mouse_events":[9171.394999983022,13604.584999993676,13868.849999998929,14164.734999998473,14637.09000000381,21429.094999999506,24547.0750000095,24876.584999990882,26556.684999988647,33754.8550000065,34090.984999987995,39548.990000010235,39820.444999990286,44435.7949999976,44700.64500000444,48972.26499998942,49276.459999993676,56668.47499998403,60372.39999999292,63429.644999996526,63811.57499999972,67052.54999999306,69526.94499999052,69787.76999999536,75667.849999998,75916.22499999357,84012.87000000593,90701.01499999873],"rt":90711.04500000365,"survey":"nfc","trial_type":"survey-template","trial_index":3,"time_elapsed":227890,"internal_node_id":"0.0-3.0","task_version":"0.2"},{"view_history":"[{\"page_index\":0,\"viewing_time\":3325.1599999784958},{\"page_index\":1,\"viewing_time\":6127.030000003288},{\"page_index\":2,\"viewing_time\":8536.38500001398},{\"page_index\":3,\"viewing_time\":8447.495000000345},{\"page_index\":4,\"viewing_time\":5672.464999981457},{\"page_index\":5,\"viewing_time\":5440.860000002431},{\"page_index\":6,\"viewing_time\":8960.080000018934},{\"page_index\":7,\"viewing_time\":9679.894999979297},{\"page_index\":8,\"viewing_time\":6895.295000023907},{\"page_index\":9,\"viewing_time\":9568.814999976894}]","rt":72655.65499998047,"trial_type":"instructions","trial_index":4,"time_elapsed":300549,"internal_node_id":"0.0-4.0-0.0","task_version":"0.2"},{"response_times":[1523.604999994859,575.1750000054017,406.84999999939464,617.0750000164844,2096.2049999798182],"keys_pressed":["rightarrow","leftarrow","rightarrow","rightarrow","leftarrow"],"horizon":5,"forced_choices":["rightarrow","leftarrow","rightarrow","rightarrow"],"right_color":"lightblue","left_color":"orange","left_mu":40,"right_mu":20,"left_numbers":[42,53,45,26,36],"right_numbers":[17,2,8,19,16],"points_earned":133,"phase":"practice","trial_type":"horizons-task","trial_index":5,"time_elapsed":307284,"internal_node_id":"0.0-4.0-1.0","task_version":"0.2"},{"response_times":[13340.53000001586,576.1849999835249,511.5899999800604,527.3650000162888,2785.6850000098348,2015.3949999948964,1230.5150000029244,904.4899999862537,1024.57000000868,616.2299999850802],"keys_pressed":["leftarrow","leftarrow","rightarrow","rightarrow","rightarrow","rightarrow","rightarrow","rightarrow","rightarrow","rightarrow"],"horizon":10,"forced_choices":["leftarrow","leftarrow","rightarrow","rightarrow"],"right_color":"orange","left_color":"lightblue","left_mu":60,"right_mu":70,"left_numbers":[45,70,68,51,52,50,68,65,60,36],"right_numbers":[74,57,62,63,59,74,71,54,85,71],"points_earned":654,"phase":"practice","trial_type":"horizons-task","trial_index":6,"time_elapsed":332322,"internal_node_id":"0.0-4.0-2.0","task_version":"0.2"},{"view_history":"[{\"page_index\":0,\"viewing_time\":5807.409999979427},{\"page_index\":1,\"viewing_time\":2823.415000020759},{\"page_index\":2,\"viewing_time\":3584.5099999860395},{\"page_index\":3,\"viewing_time\":2631.809999991674}]","rt":14847.894999984419,"trial_type":"instructions","trial_index":7,"time_elapsed":347171,"internal_node_id":"0.0-4.0-3.0","task_version":"0.2"},{"responses":["true","false","true"],"num_errors":0,"rt":11749.444999994012,"trial_type":"horizons-comprehension","trial_index":8,"time_elapsed":358927,"internal_node_id":"0.0-4.0-4.0","task_version":"0.2"},{"trial_type":"call-function","trial_index":9,"time_elapsed":358936,"internal_node_id":"0.0-5.0","task_version":"0.2"},{"view_history":"[{\"page_index\":0,\"viewing_time\":1409.8200000007637},{\"page_index\":1,\"viewing_time\":4167.715000017779}]","rt":5578.494999994291,"trial_type":"instructions","trial_index":10,"time_elapsed":364516,"internal_node_id":"0.0-6.0","task_version":"0.2"},{"response_times":[1234.4449999800418,911.2500000046566,1160.5500000005122,574.8700000112876,2544.045000016922,1128.5550000029616,845.564999995986,866.4599999901839,447.4999999802094,1288.0699999805074],"keys_pressed":["rightarrow","leftarrow","leftarrow","rightarrow","rightarrow","rightarrow","rightarrow","rightarrow","rightarrow","rightarrow"],"horizon":10,"forced_choices":["rightarrow","leftarrow","leftarrow","rightarrow"],"right_color":"orange","left_color":"lightblue","left_mu":40,"right_mu":60,"left_numbers":[36,40,37,36,35,36,45,43,26,49],"right_numbers":[52,74,62,40,51,64,57,53,55,79],"points_earned":528,"phase":"task","trial_type":"horizons-task","trial_index":11,"time_elapsed":377032,"internal_node_id":"0.0-7.0","task_version":"0.2"},{"response_times":[872.8249999985565,498.1299999926705,757.740000000922,663.8150000071619,2137.6100000052247,2214.445000019623,520.9499999764375,1069.2649999982677,840.6599999871105,576.6200000070967],"keys_pressed":["leftarrow","rightarrow","leftarrow","rightarrow","leftarrow","leftarrow","leftarrow","leftarrow","leftarrow","leftarrow"],"horizon":10,"forced_choices":["leftarrow","rightarrow","leftarrow","rightarrow"],"right_color":"orange","left_color":"lightblue","left_mu":60,"right_mu":56,"left_numbers":[82,52,55,71,58,65,68,51,54,47],"right_numbers":[59,48,55,45,67,58,66,56,47,54],"points_earned":573,"phase":"task","trial_type":"horizons-task","trial_index":12,"time_elapsed":388688,"internal_node_id":"0.0-8.0","task_version":"0.2"},{"response_times":[921.3900000031572,713.1649999937508,471.3400000182446,567.4300000246149,2599.115000019083,1264.4000000145752,1217.1849999867845,591.5700000186916,800.6750000058673,854.5700000249781],"keys_pressed":["leftarrow","rightarrow","leftarrow","rightarrow","rightarrow","leftarrow","leftarrow","rightarrow","rightarrow","leftarrow"],"horizon":10,"forced_choices":["leftarrow","rightarrow","leftarrow","rightarrow"],"right_color":"lightblue","left_color":"orange","left_mu":40,"right_mu":36,"left_numbers":[21,38,29,39,29,30,23,45,38,38],"right_numbers":[31,38,29,38,23,26,16,29,36,35],"points_earned":305,"phase":"task","trial_type":"horizons-task","trial_index":13,"time_elapsed":400193,"internal_node_id":"0.0-9.0","task_version":"0.2"},{"response_times":[732.2100000164937,453.65000001038425,599.1250000079162,425.5800000100862,2079.1750000207685],"keys_pressed":["leftarrow","leftarrow","rightarrow","leftarrow","leftarrow"],"horizon":5,"forced_choices":["leftarrow","leftarrow","rightarrow","leftarrow"],"right_color":"orange","left_color":"lightblue","left_mu":40,"right_mu":48,"left_numbers":[29,39,43,36,27],"right_numbers":[46,34,30,52,42],"points_earned":161,"phase":"task","trial_type":"horizons-task","trial_index":14,"time_elapsed":405984,"internal_node_id":"0.0-10.0","task_version":"0.2"},{"response_times":[617.6149999955669,439.11999999545515,584.9699999962468,1374.3649999960326,1359.4449999800418],"keys_pressed":["rightarrow","leftarrow","leftarrow","rightarrow","leftarrow"],"horizon":5,"forced_choices":["rightarrow","leftarrow","leftarrow","rightarrow"],"right_color":"lightblue","left_color":"orange","left_mu":40,"right_mu":10,"left_numbers":[37,32,34,44,37],"right_numbers":[10,3,2,11,15],"points_earned":124,"phase":"task","trial_type":"horizons-task","trial_index":15,"time_elapsed":411862,"internal_node_id":"0.0-11.0","task_version":"0.2"},{"response_times":[572.0299999811687,422.21999997855164,463.94500002497807,424.53499999828637,2254.3949999962933],"keys_pressed":["leftarrow","leftarrow","rightarrow","leftarrow","leftarrow"],"horizon":5,"forced_choices":["leftarrow","leftarrow","rightarrow","leftarrow"],"right_color":"orange","left_color":"lightblue","left_mu":60,"right_mu":52,"left_numbers":[57,44,66,46,57],"right_numbers":[45,46,57,37,45],"points_earned":261,"phase":"task","trial_type":"horizons-task","trial_index":16,"time_elapsed":417504,"internal_node_id":"0.0-12.0","task_version":"0.2"},{"response_times":[480.49000001628883,536.2200000090525,438.58999997610226,577.160000015283,2768.439999985276],"keys_pressed":["rightarrow","leftarrow","rightarrow","leftarrow","leftarrow"],"horizon":5,"forced_choices":["rightarrow","leftarrow","rightarrow","leftarrow"],"right_color":"orange","left_color":"lightblue","left_mu":60,"right_mu":52,"left_numbers":[72,44,54,58,63],"right_numbers":[47,55,47,57,48],"points_earned":259,"phase":"task","trial_type":"horizons-task","trial_index":17,"time_elapsed":423808,"internal_node_id":"0.0-13.0","task_version":"0.2"},{"response_times":[609.7000000008848,325.89499998721294,352.0600000047125,430.66000001272187,2505.8549999957904],"keys_pressed":["leftarrow","rightarrow","leftarrow","rightarrow","leftarrow"],"horizon":5,"forced_choices":["leftarrow","rightarrow","leftarrow","rightarrow"],"right_color":"lightblue","left_color":"orange","left_mu":40,"right_mu":28,"left_numbers":[34,37,47,46,40],"right_numbers":[23,27,23,48,13],"points_earned":196,"phase":"task","trial_type":"horizons-task","trial_index":18,"time_elapsed":429536,"internal_node_id":"0.0-14.0","task_version":"0.2"},{"response_times":[576.2249999970663,528.149999998277,863.6350000160746,359.9850000173319,1385.2000000188127],"keys_pressed":["rightarrow","rightarrow","leftarrow","rightarrow","leftarrow"],"horizon":5,"forced_choices":["rightarrow","rightarrow","leftarrow","rightarrow"],"right_color":"orange","left_color":"lightblue","left_mu":40,"right_mu":20,"left_numbers":[43,33,41,41,42],"right_numbers":[13,14,15,12,4],"points_earned":122,"phase":"task","trial_type":"horizons-task","trial_index":19,"time_elapsed":434754,"internal_node_id":"0.0-15.0","task_version":"0.2"},{"response_times":[566.9099999940954,303.6549999960698,520.764999993844,559.4200000050478,2152.0700000110082],"keys_pressed":["leftarrow","rightarrow","rightarrow","leftarrow","rightarrow"],"horizon":5,"forced_choices":["leftarrow","rightarrow","rightarrow","leftarrow"],"right_color":"lightblue","left_color":"orange","left_mu":60,"right_mu":64,"left_numbers":[67,60,56,57,67],"right_numbers":[65,62,75,53,59],"points_earned":320,"phase":"task","trial_type":"horizons-task","trial_index":20,"time_elapsed":440359,"internal_node_id":"0.0-16.0","task_version":"0.2"},{"response_times":[545.8999999973457,311.7250000068452,376.445000001695,430.47000002115965,3120.6099999835715],"keys_pressed":["leftarrow","rightarrow","leftarrow","rightarrow","rightarrow"],"horizon":5,"forced_choices":["leftarrow","rightarrow","leftarrow","rightarrow"],"right_color":"lightblue","left_color":"orange","left_mu":40,"right_mu":36,"left_numbers":[43,30,34,42,47],"right_numbers":[28,37,23,42,26],"points_earned":182,"phase":"task","trial_type":"horizons-task","trial_index":21,"time_elapsed":446648,"internal_node_id":"0.0-17.0","task_version":"0.2"},{"response_times":[385.47499998821877,488.2899999793153,447.06499998574145,552.7449999935925,2671.7549999884795,1783.2000000053085,656.6699999966659,576.6350000048988,526.8849999993108,527.9699999955483],"keys_pressed":["leftarrow","leftarrow","rightarrow","leftarrow","leftarrow","rightarrow","rightarrow","leftarrow","rightarrow","rightarrow"],"horizon":10,"forced_choices":["leftarrow","leftarrow","rightarrow","leftarrow"],"right_color":"orange","left_color":"lightblue","left_mu":40,"right_mu":48,"left_numbers":[50,53,53,48,45,52,34,35,49,42],"right_numbers":[56,55,51,56,42,69,48,42,41,40],"points_earned":480,"phase":"task","trial_type":"horizons-task","trial_index":22,"time_elapsed":456766,"internal_node_id":"0.0-18.0","task_version":"0.2"},{"response_times":[649.9699999985751,839.8000000161119,1255.8500000159256,1374.6199999877717,1168.680000002496,728.4949999884702,479.3749999953434,433.1749999837484,479.2650000017602,424.6899999852758],"keys_pressed":["leftarrow","leftarrow","rightarrow","rightarrow","leftarrow","leftarrow","leftarrow","leftarrow","leftarrow","leftarrow"],"horizon":10,"forced_choices":["leftarrow","leftarrow","rightarrow","rightarrow"],"right_color":"lightblue","left_color":"orange","left_mu":60,"right_mu":48,"left_numbers":[74,52,62,60,64,68,58,63,51,51],"right_numbers":[56,40,55,49,38,32,53,52,40,49],"points_earned":585,"phase":"task","trial_type":"horizons-task","trial_index":23,"time_elapsed":466105,"internal_node_id":"0.0-19.0","task_version":"0.2"},{"response_times":[600.124999997206,376.93500000750646,719.0249999985099,784.475000022212,1032.3299999872688],"keys_pressed":["leftarrow","rightarrow","rightarrow","rightarrow","leftarrow"],"horizon":5,"forced_choices":["leftarrow","rightarrow","rightarrow","rightarrow"],"right_color":"lightblue","left_color":"orange","left_mu":40,"right_mu":10,"left_numbers":[35,26,37,53,28],"right_numbers":[0,28,5,10,8],"points_earned":106,"phase":"task","trial_type":"horizons-task","trial_index":24,"time_elapsed":471121,"internal_node_id":"0.0-20.0","task_version":"0.2"},{"response_times":[711.909999983618,359.889999992447,455.55500002228655,1337.4049999983981,710.7149999937974],"keys_pressed":["leftarrow","rightarrow","rightarrow","leftarrow","rightarrow"],"horizon":5,"forced_choices":["leftarrow","rightarrow","rightarrow","leftarrow"],"right_color":"lightblue","left_color":"orange","left_mu":60,"right_mu":90,"left_numbers":[69,50,71,70,63],"right_numbers":[86,83,102,91,96],"points_earned":420,"phase":"task","trial_type":"horizons-task","trial_index":25,"time_elapsed":476199,"internal_node_id":"0.0-21.0","task_version":"0.2"},{"response_times":[601.410000002943,406.25,512.6349999918602,440.4350000259001,1512.6000000163913,1119.1600000020117,641.8700000212993,429.6749999921303,495.9300000045914,376.12000000081025],"keys_pressed":["rightarrow","rightarrow","leftarrow","leftarrow","rightarrow","rightarrow","rightarrow","rightarrow","rightarrow","rightarrow"],"horizon":10,"forced_choices":["rightarrow","rightarrow","leftarrow","leftarrow"],"right_color":"lightblue","left_color":"orange","left_mu":60,"right_mu":72,"left_numbers":[45,76,60,61,52,76,62,71,56,58],"right_numbers":[68,80,73,70,68,71,60,77,84,70],"points_earned":699,"phase":"task","trial_type":"horizons-task","trial_index":26,"time_elapsed":484240,"internal_node_id":"0.0-22.0","task_version":"0.2"},{"response_times":[935.2199999848381,577.3699999845121,496.370000008028,672.5950000109151,5053.774999978486,616.745000006631,744.1300000064075,462.5450000166893,647.915000008652,623.714999994263],"keys_pressed":["leftarrow","rightarrow","leftarrow","leftarrow","leftarrow","leftarrow","leftarrow","leftarrow","rightarrow","leftarrow"],"horizon":10,"forced_choices":["leftarrow","rightarrow","leftarrow","leftarrow"],"right_color":"orange","left_color":"lightblue","left_mu":60,"right_mu":56,"left_numbers":[65,59,47,57,70,63,57,44,56,63],"right_numbers":[42,61,44,46,47,54,61,50,40,44],"points_earned":567,"phase":"task","trial_type":"horizons-task","trial_index":27,"time_elapsed":496575,"internal_node_id":"0.0-23.0","task_version":"0.2"},{"response_times":[784.8650000232738,472.2800000163261,719.9950000212993,463.194999989355,1176.3100000098348,633.2199999887962,495.039999979781,424.06499999924563,359.519999998156,376.7949999892153],"keys_pressed":["leftarrow","leftarrow","leftarrow","rightarrow","rightarrow","rightarrow","rightarrow","rightarrow","rightarrow","rightarrow"],"horizon":10,"forced_choices":["leftarrow","leftarrow","leftarrow","rightarrow"],"right_color":"lightblue","left_color":"orange","left_mu":60,"right_mu":90,"left_numbers":[66,63,65,75,55,60,49,76,49,70],"right_numbers":[88,83,101,83,101,84,99,83,76,111],"points_earned":831,"phase":"task","trial_type":"horizons-task","trial_index":28,"time_elapsed":503984,"internal_node_id":"0.0-24.0","task_version":"0.2"},{"response_times":[751.524999999674,496.3899999856949,415.2999999932945,777.3199999937788,1558.6250000051223],"keys_pressed":["leftarrow","leftarrow","rightarrow","rightarrow","leftarrow"],"horizon":5,"forced_choices":["leftarrow","leftarrow","rightarrow","rightarrow"],"right_color":"lightblue","left_color":"orange","left_mu":60,"right_mu":48,"left_numbers":[79,59,49,52,65],"right_numbers":[42,57,51,56,40],"points_earned":310,"phase":"task","trial_type":"horizons-task","trial_index":29,"time_elapsed":509488,"internal_node_id":"0.0-25.0","task_version":"0.2"},{"response_times":[543.5549999820068,473.3199999900535,631.8000000028405,431.429999996908,1759.3499999784399],"keys_pressed":["leftarrow","rightarrow","leftarrow","leftarrow","leftarrow"],"horizon":5,"forced_choices":["leftarrow","rightarrow","leftarrow","leftarrow"],"right_color":"orange","left_color":"lightblue","left_mu":60,"right_mu":68,"left_numbers":[57,63,74,66,55],"right_numbers":[74,73,78,64,71],"points_earned":325,"phase":"task","trial_type":"horizons-task","trial_index":30,"time_elapsed":514830,"internal_node_id":"0.0-26.0","task_version":"0.2"},{"response_times":[529.5999999798369,400.8949999988545,472.4949999945238,463.1649999937508,1527.749999979278],"keys_pressed":["rightarrow","leftarrow","leftarrow","leftarrow","rightarrow"],"horizon":5,"forced_choices":["rightarrow","leftarrow","leftarrow","leftarrow"],"right_color":"lightblue","left_color":"orange","left_mu":40,"right_mu":52,"left_numbers":[38,31,38,49,39],"right_numbers":[51,66,58,48,54],"points_earned":223,"phase":"task","trial_type":"horizons-task","trial_index":31,"time_elapsed":519727,"internal_node_id":"0.0-27.0","task_version":"0.2"},{"response_times":[448.7850000150502,352.7499999909196,421.77499999525025,473.2650000078138,1055.4600000032224,657.2400000004563,383.2899999979418,559.6249999944121,520.5849999911152,365.88499997742474],"keys_pressed":["leftarrow","rightarrow","rightarrow","rightarrow","rightarrow","rightarrow","rightarrow","rightarrow","rightarrow","rightarrow"],"horizon":10,"forced_choices":["leftarrow","rightarrow","rightarrow","rightarrow"],"right_color":"orange","left_color":"lightblue","left_mu":60,"right_mu":80,"left_numbers":[62,66,62,57,48,71,49,65,62,54],"right_numbers":[85,97,72,93,85,77,71,75,75,72],"points_earned":779,"phase":"task","trial_type":"horizons-task","trial_index":32,"time_elapsed":526471,"internal_node_id":"0.0-28.0","task_version":"0.2"},{"response_times":[472.29499998502433,361.16000000038184,352.53000000375323,455.6849999935366,1567.670000018552,399.00000000488944,425.84499999065883,551.3499999942724,849.0049999963958,383.8849999883678],"keys_pressed":["rightarrow","leftarrow","rightarrow","leftarrow","leftarrow","leftarrow","leftarrow","rightarrow","rightarrow","leftarrow"],"horizon":10,"forced_choices":["rightarrow","leftarrow","rightarrow","leftarrow"],"right_color":"orange","left_color":"lightblue","left_mu":60,"right_mu":52,"left_numbers":[54,66,63,64,71,64,43,62,47,68],"right_numbers":[55,48,52,42,42,58,42,49,52,60],"points_earned":584,"phase":"task","trial_type":"horizons-task","trial_index":33,"time_elapsed":533794,"internal_node_id":"0.0-29.0","task_version":"0.2"},{"response_times":[566.4950000063982,422.919999982696,560.605000006035,1241.2199999962468,2039.0349999943282],"keys_pressed":["rightarrow","leftarrow","leftarrow","leftarrow","leftarrow"],"horizon":5,"forced_choices":["rightarrow","leftarrow","leftarrow","leftarrow"],"right_color":"orange","left_color":"lightblue","left_mu":40,"right_mu":60,"left_numbers":[47,41,40,40,33],"right_numbers":[46,37,71,62,66],"points_earned":200,"phase":"task","trial_type":"horizons-task","trial_index":34,"time_elapsed":540129,"internal_node_id":"0.0-30.0","task_version":"0.2"},{"response_times":[440.9250000026077,356.38499999186024,412.3050000052899,974.3749999906868,823.8349999883212],"keys_pressed":["rightarrow","leftarrow","leftarrow","leftarrow","rightarrow"],"horizon":5,"forced_choices":["rightarrow","leftarrow","leftarrow","leftarrow"],"right_color":"orange","left_color":"lightblue","left_mu":40,"right_mu":70,"left_numbers":[30,44,34,34,46],"right_numbers":[71,90,53,73,76],"points_earned":259,"phase":"task","trial_type":"horizons-task","trial_index":35,"time_elapsed":544640,"internal_node_id":"0.0-31.0","task_version":"0.2"},{"response_times":[536.9150000042282,415.8400000014808,383.86499998159707,400.11000001686625,2407.934999995632,518.9799999934621,433.0950000148732,421.34999998961575,506.2399999878835,639.2549999873154],"keys_pressed":["leftarrow","rightarrow","rightarrow","leftarrow","leftarrow","leftarrow","leftarrow","leftarrow","leftarrow","leftarrow"],"horizon":10,"forced_choices":["leftarrow","rightarrow","rightarrow","leftarrow"],"right_color":"orange","left_color":"lightblue","left_mu":60,"right_mu":40,"left_numbers":[53,65,51,62,58,65,81,69,53,66],"right_numbers":[39,46,42,45,59,33,34,51,52,27],"points_earned":595,"phase":"task","trial_type":"horizons-task","trial_index":36,"time_elapsed":552808,"internal_node_id":"0.0-32.0","task_version":"0.2"},{"response_times":[542.9799999983516,367.4699999974109,592.2750000027008,613.5000000067521,1057.6249999867287,409.20500000356697,447.569999989355,375.6700000085402,367.65500000910833,383.9249999728054],"keys_pressed":["rightarrow","leftarrow","leftarrow","leftarrow","rightarrow","rightarrow","rightarrow","rightarrow","rightarrow","rightarrow"],"horizon":10,"forced_choices":["rightarrow","leftarrow","leftarrow","leftarrow"],"right_color":"lightblue","left_color":"orange","left_mu":40,"right_mu":52,"left_numbers":[28,39,28,19,50,35,42,43,29,24],"right_numbers":[62,60,36,50,60,55,57,68,49,63],"points_earned":500,"phase":"task","trial_type":"horizons-task","trial_index":37,"time_elapsed":559471,"internal_node_id":"0.0-33.0","task_version":"0.2"},{"response_times":[569.5999999879859,423.92000000108965,559.6800000057556,608.1500000145752,831.7749999987427,400.15000000130385,359.86500000581145,360.34499999368563,576.4300000155345,295.5849999852944],"keys_pressed":["rightarrow","leftarrow","leftarrow","rightarrow","rightarrow","rightarrow","rightarrow","rightarrow","rightarrow","rightarrow"],"horizon":10,"forced_choices":["rightarrow","leftarrow","leftarrow","rightarrow"],"right_color":"orange","left_color":"lightblue","left_mu":40,"right_mu":70,"left_numbers":[35,27,51,31,32,31,33,42,31,29],"right_numbers":[61,79,79,83,80,62,46,85,74,75],"points_earned":644,"phase":"task","trial_type":"horizons-task","trial_index":38,"time_elapsed":565960,"internal_node_id":"0.0-34.0","task_version":"0.2"},{"response_times":[474.27999999490567,437.65999999595806,536.3800000050105,1336.009999999078,1704.2300000030082,517.9599999974016,450.8099999802653,551.3999999966472,448.3699999982491,566.2100000190549],"keys_pressed":["rightarrow","leftarrow","leftarrow","rightarrow","leftarrow","leftarrow","leftarrow","leftarrow","leftarrow","leftarrow"],"horizon":10,"forced_choices":["rightarrow","leftarrow","leftarrow","rightarrow"],"right_color":"lightblue","left_color":"orange","left_mu":40,"right_mu":10,"left_numbers":[58,40,32,25,41,37,39,43,51,46],"right_numbers":[21,15,24,5,18,20,4,6,11,7],"points_earned":355,"phase":"task","trial_type":"horizons-task","trial_index":39,"time_elapsed":574487,"internal_node_id":"0.0-35.0","task_version":"0.2"},{"response_times":[538.4499999927357,358.94499998539686,568.4099999780301,464.65000000898726,1702.770000003511],"keys_pressed":["rightarrow","leftarrow","leftarrow","rightarrow","rightarrow"],"horizon":5,"forced_choices":["rightarrow","leftarrow","leftarrow","rightarrow"],"right_color":"orange","left_color":"lightblue","left_mu":40,"right_mu":48,"left_numbers":[35,38,56,37,44],"right_numbers":[45,50,54,51,54],"points_earned":244,"phase":"task","trial_type":"horizons-task","trial_index":40,"time_elapsed":579623,"internal_node_id":"0.0-36.0","task_version":"0.2"},{"response_times":[616.7900000000373,400.41000000201166,407.245000009425,440.17499999608845,2384.4950000056997,671.3999999919906,400.5650000181049,383.5200000030454,391.4349999977276,320.54499999503605],"keys_pressed":["leftarrow","rightarrow","rightarrow","leftarrow","rightarrow","rightarrow","rightarrow","rightarrow","rightarrow","rightarrow"],"horizon":10,"forced_choices":["leftarrow","rightarrow","rightarrow","leftarrow"],"right_color":"lightblue","left_color":"orange","left_mu":60,"right_mu":64,"left_numbers":[57,59,63,57,68,63,50,53,61,58],"right_numbers":[71,64,53,60,55,75,61,71,56,60],"points_earned":609,"phase":"task","trial_type":"horizons-task","trial_index":41,"time_elapsed":587545,"internal_node_id":"0.0-37.0","task_version":"0.2"},{"response_times":[408.10500000952743,368.1849999993574,439.56999998772517,568.1599999952596,615.2249999868218,1927.8350000095088,368.6450000095647,295.8150000195019,193.19499999983236,334.2199999897275],"keys_pressed":["rightarrow","leftarrow","leftarrow","leftarrow","rightarrow","rightarrow","rightarrow","rightarrow","rightarrow","rightarrow"],"horizon":10,"forced_choices":["rightarrow","leftarrow","leftarrow","leftarrow"],"right_color":"orange","left_color":"lightblue","left_mu":40,"right_mu":70,"left_numbers":[36,51,41,51,44,50,27,38,46,36],"right_numbers":[81,60,72,78,68,79,64,76,77,77],"points_earned":665,"phase":"task","trial_type":"horizons-task","trial_index":42,"time_elapsed":594568,"internal_node_id":"0.0-38.0","task_version":"0.2"},{"response_times":[576.2749999994412,376.5799999819137,574.9150000046939,504.76499999058433,1664.4150000065565,455.5850000178907,327.2399999841582,360.0449999794364,272.3249999980908,320.13999999617226],"keys_pressed":["leftarrow","rightarrow","leftarrow","rightarrow","rightarrow","rightarrow","rightarrow","rightarrow","rightarrow","rightarrow"],"horizon":10,"forced_choices":["leftarrow","rightarrow","leftarrow","rightarrow"],"right_color":"lightblue","left_color":"orange","left_mu":40,"right_mu":52,"left_numbers":[55,39,54,35,36,47,38,33,37,45],"right_numbers":[48,47,43,67,57,62,58,52,48,56],"points_earned":556,"phase":"task","trial_type":"horizons-task","trial_index":43,"time_elapsed":601504,"internal_node_id":"0.0-39.0","task_version":"0.2"},{"response_times":[504.7600000107195,447.65999997616746,360.14500001329,440.23000000743195,1383.880000008503,640.1550000009593,575.3499999991618,416.38500001863576,463.9100000204053,455.1800000190269],"keys_pressed":["leftarrow","leftarrow","rightarrow","leftarrow","leftarrow","rightarrow","rightarrow","leftarrow","leftarrow","rightarrow"],"horizon":10,"forced_choices":["leftarrow","leftarrow","rightarrow","leftarrow"],"right_color":"orange","left_color":"lightblue","left_mu":40,"right_mu":32,"left_numbers":[42,54,22,46,27,34,45,30,41,35],"right_numbers":[40,43,40,15,18,38,32,37,42,32],"points_earned":382,"phase":"task","trial_type":"horizons-task","trial_index":44,"time_elapsed":608696,"internal_node_id":"0.0-40.0","task_version":"0.2"},{"response_times":[577.6699999987613,759.5949999813456,974.595000006957,1464.994999987539,1455.149999994319],"keys_pressed":["leftarrow","leftarrow","leftarrow","rightarrow","rightarrow"],"horizon":5,"forced_choices":["leftarrow","leftarrow","leftarrow","rightarrow"],"right_color":"lightblue","left_color":"orange","left_mu":60,"right_mu":64,"left_numbers":[54,68,68,70,63],"right_numbers":[61,60,58,74,59],"points_earned":323,"phase":"task","trial_type":"horizons-task","trial_index":45,"time_elapsed":615433,"internal_node_id":"0.0-41.0","task_version":"0.2"},{"response_times":[431.4799999992829,400.7500000006985,392.0749999815598,359.4349999912083,399.9500000209082,1448.1549999909475,399.86999999382533,295.92000000411645,215.17000001040287,360.3200000070501],"keys_pressed":["leftarrow","leftarrow","leftarrow","rightarrow","rightarrow","leftarrow","leftarrow","leftarrow","leftarrow","leftarrow"],"horizon":10,"forced_choices":["leftarrow","leftarrow","leftarrow","rightarrow"],"right_color":"lightblue","left_color":"orange","left_mu":60,"right_mu":64,"left_numbers":[64,67,60,59,64,76,68,52,62,64],"right_numbers":[59,58,60,64,62,69,63,56,65,67],"points_earned":639,"phase":"task","trial_type":"horizons-task","trial_index":46,"time_elapsed":621639,"internal_node_id":"0.0-42.0","task_version":"0.2"},{"response_times":[409.6600000048056,480.71999999228865,574.7249999840278,600.2300000109244,1390.9400000120513],"keys_pressed":["rightarrow","rightarrow","rightarrow","leftarrow","rightarrow"],"horizon":5,"forced_choices":["rightarrow","rightarrow","rightarrow","leftarrow"],"right_color":"lightblue","left_color":"orange","left_mu":40,"right_mu":44,"left_numbers":[43,43,41,47,39],"right_numbers":[47,31,52,58,57],"points_earned":234,"phase":"task","trial_type":"horizons-task","trial_index":47,"time_elapsed":626599,"internal_node_id":"0.0-43.0","task_version":"0.2"},{"response_times":[434.13999999756925,639.4100000034086,551.6500000085216,2288.4649999905378,1143.8450000132434],"keys_pressed":["rightarrow","rightarrow","leftarrow","leftarrow","rightarrow"],"horizon":5,"forced_choices":["rightarrow","rightarrow","leftarrow","leftarrow"],"right_color":"lightblue","left_color":"orange","left_mu":60,"right_mu":72,"left_numbers":[49,72,58,60,55],"right_numbers":[78,56,73,71,64],"points_earned":316,"phase":"task","trial_type":"horizons-task","trial_index":48,"time_elapsed":633161,"internal_node_id":"0.0-44.0","task_version":"0.2"},{"response_times":[520.5000000132713,414.92000001017004,361.1549999914132,560.5599999835249,444.84499999089167,881.599999993341,320.98499999847263,215.15000000363216,191.9849999831058,295.19999999320135],"keys_pressed":["leftarrow","rightarrow","leftarrow","leftarrow","rightarrow","rightarrow","rightarrow","rightarrow","rightarrow","rightarrow"],"horizon":10,"forced_choices":["leftarrow","rightarrow","leftarrow","leftarrow"],"right_color":"orange","left_color":"lightblue","left_mu":60,"right_mu":68,"left_numbers":[48,70,57,68,53,62,70,46,62,44],"right_numbers":[71,69,85,72,70,78,67,82,78,70],"points_earned":687,"phase":"task","trial_type":"horizons-task","trial_index":49,"time_elapsed":638871,"internal_node_id":"0.0-45.0","task_version":"0.2"},{"response_times":[425.8750000153668,520.0699999986682,751.9650000031106,631.6050000023097,1024.2250000010245],"keys_pressed":["rightarrow","rightarrow","leftarrow","rightarrow","leftarrow"],"horizon":5,"forced_choices":["rightarrow","rightarrow","leftarrow","rightarrow"],"right_color":"lightblue","left_color":"orange","left_mu":40,"right_mu":36,"left_numbers":[38,39,46,31,52],"right_numbers":[30,35,29,39,34],"points_earned":202,"phase":"task","trial_type":"horizons-task","trial_index":50,"time_elapsed":643729,"internal_node_id":"0.0-46.0","task_version":"0.2"},{"view_history":"[{\"page_index\":0,\"viewing_time\":2168.7150000070687},{\"page_index\":1,\"viewing_time\":902.8699999907985}]","rt":3072.3350000043865,"trial_type":"instructions","trial_index":51,"time_elapsed":646803,"internal_node_id":"0.0-47.0","task_version":"0.2"},{"response_times":[715.779999998631,464.98499999870546,430.5599999788683,575.2400000055786,1208.2550000050105,551.9849999982398,351.5499999921303,409.029999980703,280.07000000798143,471.79000001051463],"keys_pressed":["leftarrow","rightarrow","leftarrow","rightarrow","leftarrow","rightarrow","rightarrow","rightarrow","leftarrow","rightarrow"],"horizon":10,"forced_choices":["leftarrow","rightarrow","leftarrow","rightarrow"],"right_color":"lightblue","left_color":"orange","left_mu":40,"right_mu":28,"left_numbers":[28,41,39,49,28,39,38,45,38,48],"right_numbers":[28,21,37,23,26,45,27,34,19,21],"points_earned":304,"phase":"task","trial_type":"horizons-task","trial_index":52,"time_elapsed":653775,"internal_node_id":"0.0-48.0","task_version":"0.2"},{"response_times":[423.55000000679865,528.6800000176299,487.0900000096299,465.57999998913147,2248.8049999810755,550.6250000034925,335.90999999432825,359.23500001081266,328.42500001424924,528.4049999900162],"keys_pressed":["rightarrow","rightarrow","rightarrow","leftarrow","rightarrow","rightarrow","rightarrow","rightarrow","leftarrow","leftarrow"],"horizon":10,"forced_choices":["rightarrow","rightarrow","rightarrow","leftarrow"],"right_color":"lightblue","left_color":"orange","left_mu":40,"right_mu":44,"left_numbers":[40,46,52,47,43,51,32,49,35,35],"right_numbers":[53,38,51,50,52,41,40,34,46,49],"points_earned":426,"phase":"task","trial_type":"horizons-task","trial_index":53,"time_elapsed":661535,"internal_node_id":"0.0-49.0","task_version":"0.2"},{"response_times":[489.8349999857601,510.76499998453073,737.230000027921,446.50000002002344,656.3199999800418],"keys_pressed":["rightarrow","rightarrow","leftarrow","leftarrow","leftarrow"],"horizon":5,"forced_choices":["rightarrow","rightarrow","leftarrow","leftarrow"],"right_color":"orange","left_color":"lightblue","left_mu":40,"right_mu":20,"left_numbers":[34,54,49,37,40],"right_numbers":[6,22,24,25,10],"points_earned":154,"phase":"task","trial_type":"horizons-task","trial_index":54,"time_elapsed":665880,"internal_node_id":"0.0-50.0","task_version":"0.2"},{"response_times":[543.1699999899138,399.1249999962747,1225.0950000016019,831.3599999819417,936.6599999775644],"keys_pressed":["leftarrow","leftarrow","leftarrow","rightarrow","rightarrow"],"horizon":5,"forced_choices":["leftarrow","leftarrow","leftarrow","rightarrow"],"right_color":"lightblue","left_color":"orange","left_mu":60,"right_mu":90,"left_numbers":[49,56,70,62,68],"right_numbers":[76,106,79,96,80],"points_earned":351,"phase":"task","trial_type":"horizons-task","trial_index":55,"time_elapsed":671318,"internal_node_id":"0.0-51.0","task_version":"0.2"},{"response_times":[729.3749999953434,856.0599999909755,376.0199999960605,433.4250000247266,630.8100000023842],"keys_pressed":["leftarrow","leftarrow","rightarrow","rightarrow","leftarrow"],"horizon":5,"forced_choices":["leftarrow","leftarrow","rightarrow","rightarrow"],"right_color":"lightblue","left_color":"orange","left_mu":60,"right_mu":30,"left_numbers":[65,62,65,66,53],"right_numbers":[23,38,36,32,23],"points_earned":248,"phase":"task","trial_type":"horizons-task","trial_index":56,"time_elapsed":675848,"internal_node_id":"0.0-52.0","task_version":"0.2"},{"response_times":[430.6250000081491,418.470000004163,421.5099999855738,320.54000001517124,464.44499999051914,2592.5749999878462,551.0099999955855,408.5499999928288,296.1150000046473,319.60000001708977],"keys_pressed":["leftarrow","leftarrow","rightarrow","rightarrow","rightarrow","rightarrow","rightarrow","leftarrow","leftarrow","leftarrow"],"horizon":10,"forced_choices":["leftarrow","leftarrow","rightarrow","rightarrow"],"right_color":"orange","left_color":"lightblue","left_mu":40,"right_mu":32,"left_numbers":[32,24,54,34,42,39,31,49,35,26],"right_numbers":[31,35,34,17,41,37,26,36,40,31],"points_earned":321,"phase":"task","trial_type":"horizons-task","trial_index":57,"time_elapsed":683575,"internal_node_id":"0.0-53.0","task_version":"0.2"},{"response_times":[736.7699999886099,470.6199999782257,553.5300000046846,590.4200000222772,800.8200000040233,344.1799999854993,280.27499999734573,255.08000000263564,191.83999998494983,273.77999998861924],"keys_pressed":["leftarrow","rightarrow","rightarrow","leftarrow","rightarrow","rightarrow","rightarrow","rightarrow","rightarrow","rightarrow"],"horizon":10,"forced_choices":["leftarrow","rightarrow","rightarrow","leftarrow"],"right_color":"lightblue","left_color":"orange","left_mu":60,"right_mu":90,"left_numbers":[79,58,61,54,58,53,55,57,79,63],"right_numbers":[91,75,90,98,81,82,86,81,88,93],"points_earned":809,"phase":"task","trial_type":"horizons-task","trial_index":58,"time_elapsed":689576,"internal_node_id":"0.0-54.0","task_version":"0.2"},{"response_times":[529.0050000185147,381.82000000961125,408.59000000637025,399.505000008503,1271.8900000036228],"keys_pressed":["leftarrow","rightarrow","leftarrow","rightarrow","leftarrow"],"horizon":5,"forced_choices":["leftarrow","rightarrow","leftarrow","rightarrow"],"right_color":"orange","left_color":"lightblue","left_mu":60,"right_mu":56,"left_numbers":[65,64,74,74,71],"right_numbers":[51,52,55,51,47],"points_earned":313,"phase":"task","trial_type":"horizons-task","trial_index":59,"time_elapsed":694070,"internal_node_id":"0.0-55.0","task_version":"0.2"},{"response_times":[489.9250000016764,566.8899999873247,449.1850000049453,870.3049999894574,56.475000019418076],"keys_pressed":["leftarrow","rightarrow","leftarrow","rightarrow","rightarrow"],"horizon":5,"forced_choices":["leftarrow","rightarrow","leftarrow","rightarrow"],"right_color":"lightblue","left_color":"orange","left_mu":40,"right_mu":52,"left_numbers":[14,41,48,42,36],"right_numbers":[49,41,38,50,66],"points_earned":219,"phase":"task","trial_type":"horizons-task","trial_index":60,"time_elapsed":698006,"internal_node_id":"0.0-56.0","task_version":"0.2"},{"response_times":[72.44999997783452,1504.289999982575,1015.9749999875203,543.8100000028498,952.9399999883026],"keys_pressed":["rightarrow","rightarrow","leftarrow","rightarrow","leftarrow"],"horizon":5,"forced_choices":["rightarrow","rightarrow","leftarrow","rightarrow"],"right_color":"lightblue","left_color":"orange","left_mu":60,"right_mu":48,"left_numbers":[44,61,67,66,53],"right_numbers":[44,44,56,54,46],"points_earned":262,"phase":"task","trial_type":"horizons-task","trial_index":61,"time_elapsed":703601,"internal_node_id":"0.0-57.0","task_version":"0.2"},{"response_times":[14.575000008335337,1080.5399999953806,1167.4150000035297,648.6049999948591,943.3600000047591],"keys_pressed":["rightarrow","leftarrow","leftarrow","rightarrow","rightarrow"],"horizon":5,"forced_choices":["rightarrow","leftarrow","leftarrow","rightarrow"],"right_color":"orange","left_color":"lightblue","left_mu":40,"right_mu":60,"left_numbers":[39,42,31,34,26],"right_numbers":[67,54,71,59,44],"points_earned":243,"phase":"task","trial_type":"horizons-task","trial_index":62,"time_elapsed":708959,"internal_node_id":"0.0-58.0","task_version":"0.2"},{"response_times":[554.4900000095367,384.02999998652376,504.61999999242835,359.41999999340624,2951.934999990044,462.83499998389743,409.1699999989942,350.1999999862164,330.32499998807907,334.8849999892991],"keys_pressed":["rightarrow","rightarrow","leftarrow","rightarrow","leftarrow","leftarrow","leftarrow","leftarrow","leftarrow","leftarrow"],"horizon":10,"forced_choices":["rightarrow","rightarrow","leftarrow","rightarrow"],"right_color":"lightblue","left_color":"orange","left_mu":60,"right_mu":48,"left_numbers":[49,73,48,62,75,65,65,57,57,74],"right_numbers":[36,43,55,36,42,34,57,40,52,47],"points_earned":556,"phase":"task","trial_type":"horizons-task","trial_index":63,"time_elapsed":717103,"internal_node_id":"0.0-59.0","task_version":"0.2"},{"response_times":[463.9550000138115,425.1300000178162,399.22999998088926,665.3450000158045,1246.9750000163913,335.5500000179745,293.839999998454,241.520000010496,216.8649999948684,207.29500000015832],"keys_pressed":["rightarrow","leftarrow","rightarrow","leftarrow","rightarrow","rightarrow","rightarrow","rightarrow","rightarrow","rightarrow"],"horizon":10,"forced_choices":["rightarrow","leftarrow","rightarrow","leftarrow"],"right_color":"orange","left_color":"lightblue","left_mu":60,"right_mu":80,"left_numbers":[71,66,66,58,58,66,52,55,62,63],"right_numbers":[76,72,87,91,92,77,76,72,79,81],"points_earned":764,"phase":"task","trial_type":"horizons-task","trial_index":64,"time_elapsed":723102,"internal_node_id":"0.0-60.0","task_version":"0.2"},{"response_times":[440.7199999841396,520.2749999880325,399.6000000042841,400.1949999947101,2264.23000000068,407.550000003539,256.4600000041537,216.19999999529682,166.8599999975413,207.89499999955297],"keys_pressed":["rightarrow","rightarrow","leftarrow","rightarrow","leftarrow","leftarrow","leftarrow","leftarrow","leftarrow","leftarrow"],"horizon":10,"forced_choices":["rightarrow","rightarrow","leftarrow","rightarrow"],"right_color":"lightblue","left_color":"orange","left_mu":40,"right_mu":36,"left_numbers":[33,42,31,33,52,48,38,37,34,31],"right_numbers":[40,39,26,28,41,38,36,38,37,36],"points_earned":378,"phase":"task","trial_type":"horizons-task","trial_index":65,"time_elapsed":729887,"internal_node_id":"0.0-61.0","task_version":"0.2"},{"response_times":[456.0899999924004,360.80999998375773,454.85999999800697,568.1249999906868,679.9549999996088],"keys_pressed":["leftarrow","rightarrow","rightarrow","rightarrow","leftarrow"],"horizon":5,"forced_choices":["leftarrow","rightarrow","rightarrow","rightarrow"],"right_color":"lightblue","left_color":"orange","left_mu":60,"right_mu":30,"left_numbers":[58,47,54,40,60],"right_numbers":[39,25,34,41,31],"points_earned":218,"phase":"task","trial_type":"horizons-task","trial_index":66,"time_elapsed":733911,"internal_node_id":"0.0-62.0","task_version":"0.2"},{"response_times":[432.7050000138115,598.7299999978859,320.5700000107754,681.3250000122935,543.020000011893],"keys_pressed":["rightarrow","leftarrow","rightarrow","rightarrow","leftarrow"],"horizon":5,"forced_choices":["rightarrow","leftarrow","rightarrow","rightarrow"],"right_color":"lightblue","left_color":"orange","left_mu":40,"right_mu":28,"left_numbers":[52,32,28,46,48],"right_numbers":[22,27,16,22,30],"points_earned":140,"phase":"task","trial_type":"horizons-task","trial_index":67,"time_elapsed":737990,"internal_node_id":"0.0-63.0","task_version":"0.2"},{"response_times":[809.6149999764748,390.48999999067746,441.1449999897741,335.50499999546446,456.5700000093784,1583.0350000178441,888.7150000082329,278.8049999799114,216.87000000383705,256.91500000539236],"keys_pressed":["leftarrow","rightarrow","rightarrow","rightarrow","leftarrow","leftarrow","leftarrow","leftarrow","leftarrow","leftarrow"],"horizon":10,"forced_choices":["leftarrow","rightarrow","rightarrow","rightarrow"],"right_color":"lightblue","left_color":"orange","left_mu":60,"right_mu":30,"left_numbers":[73,64,59,58,42,56,61,60,55,59],"right_numbers":[20,41,18,30,12,43,26,39,29,14],"points_earned":495,"phase":"task","trial_type":"horizons-task","trial_index":68,"time_elapsed":745153,"internal_node_id":"0.0-64.0","task_version":"0.2"},{"response_times":[486.6500000061933,696.2649999768473,423.53000000002794,383.67499999003485,1216.7349999945145],"keys_pressed":["leftarrow","leftarrow","rightarrow","rightarrow","leftarrow"],"horizon":5,"forced_choices":["leftarrow","leftarrow","rightarrow","rightarrow"],"right_color":"orange","left_color":"lightblue","left_mu":40,"right_mu":32,"left_numbers":[44,36,40,49,26],"right_numbers":[29,42,29,26,23],"points_earned":161,"phase":"task","trial_type":"horizons-task","trial_index":69,"time_elapsed":749863,"internal_node_id":"0.0-65.0","task_version":"0.2"},{"response_times":[528.5499999881722,448.08000000193715,439.15500000002794,488.40000000200234,1511.8399999919347,312.2250000014901,321.91999998758547,429.9499999906402,353.2300000078976,525.6349999981467],"keys_pressed":["rightarrow","leftarrow","leftarrow","rightarrow","rightarrow","rightarrow","rightarrow","leftarrow","rightarrow","leftarrow"],"horizon":10,"forced_choices":["rightarrow","leftarrow","leftarrow","rightarrow"],"right_color":"orange","left_color":"lightblue","left_mu":40,"right_mu":48,"left_numbers":[62,39,53,42,38,44,43,42,35,45],"right_numbers":[41,59,55,55,46,43,53,57,57,42],"points_earned":474,"phase":"task","trial_type":"horizons-task","trial_index":70,"time_elapsed":756726,"internal_node_id":"0.0-66.0","task_version":"0.2"},{"response_times":[579.9499999848194,445.63999999081716,728.4750000108033,847.5899999903049,630.5649999994785],"keys_pressed":["rightarrow","leftarrow","rightarrow","rightarrow","leftarrow"],"horizon":5,"forced_choices":["rightarrow","leftarrow","rightarrow","rightarrow"],"right_color":"orange","left_color":"lightblue","left_mu":60,"right_mu":40,"left_numbers":[53,56,55,63,57],"right_numbers":[51,37,44,29,45],"points_earned":237,"phase":"task","trial_type":"horizons-task","trial_index":71,"time_elapsed":761461,"internal_node_id":"0.0-67.0","task_version":"0.2"},{"response_times":[467.60999999241903,471.79499999037944,463.3949999988545,728.7349999824073,647.6400000101421],"keys_pressed":["rightarrow","leftarrow","rightarrow","leftarrow","rightarrow"],"horizon":5,"forced_choices":["rightarrow","leftarrow","rightarrow","leftarrow"],"right_color":"orange","left_color":"lightblue","left_mu":60,"right_mu":80,"left_numbers":[59,63,64,55,53],"right_numbers":[73,74,66,77,80],"points_earned":337,"phase":"task","trial_type":"horizons-task","trial_index":72,"time_elapsed":765743,"internal_node_id":"0.0-68.0","task_version":"0.2"},{"response_times":[504.2449999891687,481.36999999405816,383.31500001368113,513.6800000036601,838.0349999933969],"keys_pressed":["rightarrow","rightarrow","rightarrow","leftarrow","rightarrow"],"horizon":5,"forced_choices":["rightarrow","rightarrow","rightarrow","leftarrow"],"right_color":"lightblue","left_color":"orange","left_mu":60,"right_mu":72,"left_numbers":[66,53,63,68,54],"right_numbers":[69,66,69,80,76],"points_earned":348,"phase":"task","trial_type":"horizons-task","trial_index":73,"time_elapsed":769968,"internal_node_id":"0.0-69.0","task_version":"0.2"},{"response_times":[600.590000016382,357.79000000911765,690.8899999980349,565.7000000064727,953.8549999997485,295.97999999532476,704.1499999759253,319.26499999826774,297.4099999992177,445.47000000602566],"keys_pressed":["leftarrow","leftarrow","rightarrow","leftarrow","leftarrow","leftarrow","leftarrow","leftarrow","leftarrow","leftarrow"],"horizon":10,"forced_choices":["leftarrow","leftarrow","rightarrow","leftarrow"],"right_color":"orange","left_color":"lightblue","left_mu":60,"right_mu":52,"left_numbers":[86,59,63,54,38,64,56,57,66,70],"right_numbers":[65,57,48,51,50,55,53,65,62,35],"points_earned":598,"phase":"task","trial_type":"horizons-task","trial_index":74,"time_elapsed":776702,"internal_node_id":"0.0-70.0","task_version":"0.2"},{"response_times":[473.2150000054389,384.6049999992829,417.5749999994878,446.8150000029709,1422.4300000059884],"keys_pressed":["rightarrow","leftarrow","rightarrow","leftarrow","rightarrow"],"horizon":5,"forced_choices":["rightarrow","leftarrow","rightarrow","leftarrow"],"right_color":"lightblue","left_color":"orange","left_mu":40,"right_mu":44,"left_numbers":[58,47,27,29,35],"right_numbers":[54,48,47,44,53],"points_earned":230,"phase":"task","trial_type":"horizons-task","trial_index":75,"time_elapsed":781351,"internal_node_id":"0.0-71.0","task_version":"0.2"},{"response_times":[521.0599999991246,384.7449999884702,510.7549999956973,390.9400000120513,1090.8650000055786,349.8799999943003,591.0050000238698,321.54000000446104,265.16500001889654,294.93500001262873],"keys_pressed":["leftarrow","leftarrow","rightarrow","rightarrow","leftarrow","leftarrow","leftarrow","leftarrow","leftarrow","leftarrow"],"horizon":10,"forced_choices":["leftarrow","leftarrow","rightarrow","rightarrow"],"right_color":"lightblue","left_color":"orange","left_mu":60,"right_mu":30,"left_numbers":[60,58,39,55,44,65,69,79,56,55],"right_numbers":[46,35,26,27,12,19,22,37,29,25],"points_earned":539,"phase":"task","trial_type":"horizons-task","trial_index":76,"time_elapsed":787575,"internal_node_id":"0.0-72.0","task_version":"0.2"},{"response_times":[481.2249999959022,511.0149999964051,358.19999998784624,401.68999999877997,895.8849999762606,1120.1399999845307,384.2400000139605,438.72000000556,281.5800000098534,327.4249999958556],"keys_pressed":["rightarrow","leftarrow","rightarrow","leftarrow","rightarrow","leftarrow","rightarrow","leftarrow","rightarrow","rightarrow"],"horizon":10,"forced_choices":["rightarrow","leftarrow","rightarrow","leftarrow"],"right_color":"lightblue","left_color":"orange","left_mu":40,"right_mu":44,"left_numbers":[38,37,48,23,59,46,36,38,54,61],"right_numbers":[55,51,41,42,31,35,55,49,43,38],"points_earned":407,"phase":"task","trial_type":"horizons-task","trial_index":77,"time_elapsed":794278,"internal_node_id":"0.0-73.0","task_version":"0.2"},{"response_times":[521.0450000013225,337.1449999976903,279.81499998713844,599.4949999731034,1968.619999999646,319.3500000052154,336.4200000069104,302.2249999921769,400.9000000078231,438.9800000062678],"keys_pressed":["rightarrow","leftarrow","rightarrow","rightarrow","leftarrow","leftarrow","leftarrow","leftarrow","rightarrow","leftarrow"],"horizon":10,"forced_choices":["rightarrow","leftarrow","rightarrow","rightarrow"],"right_color":"lightblue","left_color":"orange","left_mu":40,"right_mu":28,"left_numbers":[43,48,46,30,36,39,27,43,45,39],"right_numbers":[24,36,25,42,23,28,29,22,27,28],"points_earned":350,"phase":"task","trial_type":"horizons-task","trial_index":78,"time_elapsed":801285,"internal_node_id":"0.0-74.0","task_version":"0.2"},{"response_times":[466.5099999983795,551.4749999856576,504.994999995688,583.7549999996554,2559.689999994589,359.5550000027288,488.68000000948086,166.28500001388602,409.03499998967163,439.21499999123625],"keys_pressed":["rightarrow","rightarrow","leftarrow","leftarrow","rightarrow","rightarrow","leftarrow","rightarrow","rightarrow","rightarrow"],"horizon":10,"forced_choices":["rightarrow","rightarrow","leftarrow","leftarrow"],"right_color":"orange","left_color":"lightblue","left_mu":60,"right_mu":68,"left_numbers":[50,56,60,56,57,71,52,54,56,67],"right_numbers":[60,62,61,60,61,74,66,66,63,61],"points_earned":615,"phase":"task","trial_type":"horizons-task","trial_index":79,"time_elapsed":809318,"internal_node_id":"0.0-75.0","task_version":"0.2"},{"response_times":[578.1100000021979,375.37500000325963,407.53500000573695,801.2199999939185,471.40499998931773],"keys_pressed":["leftarrow","rightarrow","leftarrow","leftarrow","rightarrow"],"horizon":5,"forced_choices":["leftarrow","rightarrow","leftarrow","leftarrow"],"right_color":"orange","left_color":"lightblue","left_mu":60,"right_mu":56,"left_numbers":[66,66,62,65,55],"right_numbers":[53,60,43,66,66],"points_earned":319,"phase":"task","trial_type":"horizons-task","trial_index":80,"time_elapsed":813456,"internal_node_id":"0.0-76.0","task_version":"0.2"},{"response_times":[512.1800000197254,375.9100000024773,399.6449999976903,1401.209999981802,494.73000000580214],"keys_pressed":["leftarrow","rightarrow","rightarrow","rightarrow","rightarrow"],"horizon":5,"forced_choices":["leftarrow","rightarrow","rightarrow","rightarrow"],"right_color":"orange","left_color":"lightblue","left_mu":60,"right_mu":80,"left_numbers":[63,61,57,66,59],"right_numbers":[81,74,89,81,85],"points_earned":392,"phase":"task","trial_type":"horizons-task","trial_index":81,"time_elapsed":818143,"internal_node_id":"0.0-77.0","task_version":"0.2"},{"response_times":[512.4349999823608,353.83499998715706,421.7449999996461,359.3249999976251,1130.2700000233017,383.3300000114832,383.28000000910833,359.1850000084378,344.4749999907799,352.7849999954924],"keys_pressed":["leftarrow","rightarrow","rightarrow","rightarrow","leftarrow","leftarrow","leftarrow","leftarrow","leftarrow","leftarrow"],"horizon":10,"forced_choices":["leftarrow","rightarrow","rightarrow","rightarrow"],"right_color":"lightblue","left_color":"orange","left_mu":40,"right_mu":10,"left_numbers":[40,48,49,51,45,35,28,29,51,35],"right_numbers":[19,7,5,9,0,10,9,6,20,12],"points_earned":284,"phase":"task","trial_type":"horizons-task","trial_index":82,"time_elapsed":824249,"internal_node_id":"0.0-78.0","task_version":"0.2"},{"response_times":[423.62499999580905,471.3900000206195,912.9599999869242,464.2149999854155,1103.6349999776576,832.5349999940954,336.40500000910833,295.08999999961816,280.23500001290813,294.68499997165054],"keys_pressed":["rightarrow","leftarrow","leftarrow","leftarrow","rightarrow","rightarrow","rightarrow","rightarrow","rightarrow","rightarrow"],"horizon":10,"forced_choices":["rightarrow","leftarrow","leftarrow","leftarrow"],"right_color":"orange","left_color":"lightblue","left_mu":40,"right_mu":60,"left_numbers":[28,38,50,52,20,48,42,25,45,35],"right_numbers":[69,47,60,56,55,63,47,60,55,57],"points_earned":546,"phase":"task","trial_type":"horizons-task","trial_index":83,"time_elapsed":831166,"internal_node_id":"0.0-79.0","task_version":"0.2"},{"response_times":[410.1599999994505,582.4449999781791,400.16999997897074,622.3250000039116,1562.0399999897927,400.1400000124704,319.04500001110137,303.8599999854341,360.43500000960194,311.97000000975095],"keys_pressed":["rightarrow","rightarrow","leftarrow","rightarrow","leftarrow","leftarrow","leftarrow","leftarrow","leftarrow","leftarrow"],"horizon":10,"forced_choices":["rightarrow","rightarrow","leftarrow","rightarrow"],"right_color":"orange","left_color":"lightblue","left_mu":40,"right_mu":20,"left_numbers":[29,43,26,38,55,43,39,28,46,48],"right_numbers":[18,16,25,29,5,20,25,16,27,30],"points_earned":348,"phase":"task","trial_type":"horizons-task","trial_index":84,"time_elapsed":837943,"internal_node_id":"0.0-80.0","task_version":"0.2"},{"response_times":[392.4950000073295,431.6099999996368,319.89500002237037,392.8349999769125,911.4249999984168,376.1050000030082,327.69000000553206,287.3900000122376,216.30999998888,272.7350000059232],"keys_pressed":["rightarrow","leftarrow","rightarrow","rightarrow","leftarrow","leftarrow","leftarrow","leftarrow","leftarrow","leftarrow"],"horizon":10,"forced_choices":["rightarrow","leftarrow","rightarrow","rightarrow"],"right_color":"orange","left_color":"lightblue","left_mu":60,"right_mu":40,"left_numbers":[48,55,51,75,69,66,61,60,63,51],"right_numbers":[39,24,38,42,39,30,35,40,32,49],"points_earned":544,"phase":"task","trial_type":"horizons-task","trial_index":85,"time_elapsed":843375,"internal_node_id":"0.0-81.0","task_version":"0.2"},{"response_times":[552.3600000014994,368.5200000181794,863.3149999950547,537.4750000191852,390.43499997933395],"keys_pressed":["rightarrow","leftarrow","leftarrow","rightarrow","rightarrow"],"horizon":5,"forced_choices":["rightarrow","leftarrow","leftarrow","rightarrow"],"right_color":"orange","left_color":"lightblue","left_mu":40,"right_mu":70,"left_numbers":[50,12,52,33,36],"right_numbers":[71,77,73,65,78],"points_earned":278,"phase":"task","trial_type":"horizons-task","trial_index":86,"time_elapsed":847590,"internal_node_id":"0.0-82.0","task_version":"0.2"},{"response_times":[529.9899999808986,454.8300000024028,375.8699999889359,432.1050000144169,1008.4649999917019],"keys_pressed":["leftarrow","leftarrow","rightarrow","leftarrow","leftarrow"],"horizon":5,"forced_choices":["leftarrow","leftarrow","rightarrow","leftarrow"],"right_color":"orange","left_color":"lightblue","left_mu":40,"right_mu":32,"left_numbers":[45,37,24,41,40],"right_numbers":[35,17,36,28,36],"points_earned":199,"phase":"task","trial_type":"horizons-task","trial_index":87,"time_elapsed":851894,"internal_node_id":"0.0-83.0","task_version":"0.2"},{"response_times":[417.3000000009779,440.44999999459833,383.1650000065565,362.7449999912642,756.855000014184,320.34000000567175,256.3500000105705,231.4499999920372,175.42000001412816,200.28499999898486],"keys_pressed":["rightarrow","rightarrow","leftarrow","leftarrow","leftarrow","leftarrow","leftarrow","leftarrow","leftarrow","leftarrow"],"horizon":10,"forced_choices":["rightarrow","rightarrow","leftarrow","leftarrow"],"right_color":"orange","left_color":"lightblue","left_mu":40,"right_mu":20,"left_numbers":[40,38,46,44,43,41,33,42,33,28],"right_numbers":[26,18,18,35,31,26,16,11,9,18],"points_earned":354,"phase":"task","trial_type":"horizons-task","trial_index":88,"time_elapsed":856943,"internal_node_id":"0.0-84.0","task_version":"0.2"},{"response_times":[482.29499999433756,438.93999999272637,399.2500000167638,704.4549999991432,416.57000000122935],"keys_pressed":["rightarrow","rightarrow","leftarrow","leftarrow","rightarrow"],"horizon":5,"forced_choices":["rightarrow","rightarrow","leftarrow","leftarrow"],"right_color":"orange","left_color":"lightblue","left_mu":60,"right_mu":68,"left_numbers":[47,58,52,62,66],"right_numbers":[54,66,63,62,67],"points_earned":301,"phase":"task","trial_type":"horizons-task","trial_index":89,"time_elapsed":860887,"internal_node_id":"0.0-85.0","task_version":"0.2"},{"response_times":[689.0799999819137,463.43000000342727,489.3900000024587,445.3300000168383,2386.3249999994878],"keys_pressed":["leftarrow","rightarrow","rightarrow","leftarrow","leftarrow"],"horizon":5,"forced_choices":["leftarrow","rightarrow","rightarrow","leftarrow"],"right_color":"orange","left_color":"lightblue","left_mu":60,"right_mu":40,"left_numbers":[55,57,54,55,71],"right_numbers":[48,38,61,47,38],"points_earned":280,"phase":"task","trial_type":"horizons-task","trial_index":90,"time_elapsed":866865,"internal_node_id":"0.0-86.0","task_version":"0.2"},{"response_times":[487.1149999962654,399.6599999954924,359.70000000088476,512.510000000475,1487.8050000115763,359.8200000124052,272.4449999805074,189.3500000005588,187.1099999989383,174.66499999864027],"keys_pressed":["rightarrow","rightarrow","rightarrow","leftarrow","rightarrow","rightarrow","rightarrow","rightarrow","rightarrow","rightarrow"],"horizon":10,"forced_choices":["rightarrow","rightarrow","rightarrow","leftarrow"],"right_color":"lightblue","left_color":"orange","left_mu":60,"right_mu":72,"left_numbers":[60,52,63,66,62,65,71,56,58,43],"right_numbers":[73,69,69,91,67,64,61,63,53,73],"points_earned":658,"phase":"task","trial_type":"horizons-task","trial_index":91,"time_elapsed":872799,"internal_node_id":"0.0-87.0","task_version":"0.2"},{"rt":12703.184999991208,"responses":{"age":"19","gender-categorical":"Male","gender-free-response":"","ethnicity":"Not Hispanic or Latino","race":["White"],"language":"Yes","fluency":"Very well"},"survey":"demographics","trial_type":"survey-demo","trial_index":92,"time_elapsed":885508,"internal_node_id":"0.0-88.0","task_version":"0.2"},{"rt":15955.209999985527,"responses":{"difficulty":"5","fun":"4","clarity":"5","strategy":"No.","feedback":"No."},"survey":"debrief","trial_type":"survey-debrief","trial_index":93,"time_elapsed":901468,"internal_node_id":"0.0-89.0","task_version":"0.2","interactions":"[{\"event\":\"blur\",\"trial\":1,\"time\":5717},{\"event\":\"focus\",\"trial\":1,\"time\":6764},{\"event\":\"blur\",\"trial\":6,\"time\":310642},{\"event\":\"focus\",\"trial\":6,\"time\":318085}]"}]