[{"view_history":"[{\"page_index\":0,\"viewing_time\":2566}]","rt":2568,"trial_type":"instructions","trial_index":0,"time_elapsed":2604,"internal_node_id":"0.0-0.0","task_version":"0.2"},{"item_order":[1,2,10,4,0,5,8,3,11,9,6,12,7],"responses":{"Q02":"4","Q03":"4","Q11":"2","Q05":"1","Q01":"1","Q06":"2","Q09":"1","Q04":"4","Q12":"3","Q10":"3","Q07":"3","Q13":"4","Q08":"4"},"radio_events":[5047,8688,10868,14367,21937,24595,29793,32011,36601,37791,44422,46663,49027,51043,53984,58891],"key_events":[],"mouse_events":[0,5047,8688,10868,14367,21937,24595,29793,32011,33133.00000000001,35037,35735,36601,37791,44422,46663,49027,51043,53984,58891,60237],"rt":60252.99999999999,"survey":"ius12","trial_type":"survey-template","trial_index":1,"time_elapsed":62865,"internal_node_id":"0.0-1.0","task_version":"0.2"},{"item_order":[2,8,12,7,5,10,0,15,14,4,11,3,13,9,1,6],"responses":{"Q03":"5","Q09":"3","Q13":"5","Q08":"4","Q06":"5","Q11":"5","Q01":"5","Q16":"5","Q15":"5","Q05":"1","Q12":"4","Q04":"5","Q14":"3","Q10":"3","Q02":"0","Q07":"4"},"radio_events":[9572,16801,19028,19262,23313,27766,31705,33248,34649,39881,45965,72872,78624,83465.00000000003,89001,93687,97346.00000000003,99037,101160],"key_events":[],"mouse_events":[9572,13896,14994,16801,19028,19262,23313,27766,31705,33248,34649,37836,39881,43733,44979,45965,72872,78624,83465.00000000003,89001,93687,97346.00000000003,99037,101160,102166],"rt":102179.00000000003,"survey":"nfc","trial_type":"survey-template","trial_index":2,"time_elapsed":165051,"internal_node_id":"0.0-2.0","task_version":"0.2"},{"item_order":[6,13,9,10,7,8,12,5,16,0,4,15,11,1,14,3,2],"responses":{"Q07":"4","Q14":"4","Q10":"4","Q11":"2","Q08":"4","Q09":"4","Q13":"4","Q06":"4","Q17":"0","Q01":"4","Q05":"4","Q16":"4","Q12":"4","Q02":"4","Q15":"4","Q04":"4","Q03":"4"},"radio_events":[5067,6229,9359,14443,19224,23451,27024,30762,34894.00000000003,36569,40893,49812,52157,55908,56753,59053,59927,62448.00000000003,64327],"key_events":[],"mouse_events":[5067,6229,9359,14443,16957,19224,23451,27024,30762,34894.00000000003,36569,40003,40893,47545,49812,52157,53680.00000000003,55115,55908,56753,57867,59053,59927,60933,62448.00000000003,64327,65698.00000000003],"rt":65711,"survey":"pswq","trial_type":"survey-template","trial_index":3,"time_elapsed":230773,"internal_node_id":"0.0-3.0","task_version":"0.2"},{"view_history":"[{\"page_index\":0,\"viewing_time\":78990},{\"page_index\":1,\"viewing_time\":1970},{\"page_index\":2,\"viewing_time\":6630},{\"page_index\":3,\"viewing_time\":5885},{\"page_index\":4,\"viewing_time\":4097},{\"page_index\":5,\"viewing_time\":3437},{\"page_index\":6,\"viewing_time\":5701},{\"page_index\":7,\"viewing_time\":5499},{\"page_index\":8,\"viewing_time\":4701.000000000058},{\"page_index\":9,\"viewing_time\":5875}]","rt":122785.00000000006,"trial_type":"instructions","trial_index":4,"time_elapsed":353567,"internal_node_id":"0.0-4.0-0.0","task_version":"0.2"},{"response_times":[1174,636,588,609.0000000000582,19637.99999999994],"keys_pressed":["rightarrow","leftarrow","rightarrow","rightarrow","rightarrow"],"horizon":5,"forced_choices":["rightarrow","leftarrow","rightarrow","rightarrow"],"right_color":"lightblue","left_color":"orange","left_mu":40,"right_mu":20,"left_numbers":[41,39,41,33,33],"right_numbers":[33,10,18,7,22],"points_earned":119,"phase":"practice","trial_type":"horizons-task","trial_index":5,"time_elapsed":377732,"internal_node_id":"0.0-4.0-1.0","task_version":"0.2"},{"response_times":[1399,801,616.0000000000582,673.9999999999418,801,8519,3742,1352,3425,1170],"keys_pressed":["leftarrow","leftarrow","rightarrow","rightarrow","rightarrow","leftarrow","rightarrow","leftarrow","rightarrow","rightarrow"],"horizon":10,"forced_choices":["leftarrow","leftarrow","rightarrow","rightarrow"],"right_color":"orange","left_color":"lightblue","left_mu":60,"right_mu":70,"left_numbers":[38,63,64,52,70,61,62,68,58,66],"right_numbers":[60,73,67,74,66,51,61,72,65,79],"points_earned":642,"phase":"practice","trial_type":"horizons-task","trial_index":6,"time_elapsed":401736,"internal_node_id":"0.0-4.0-2.0","task_version":"0.2"},{"view_history":"[{\"page_index\":0,\"viewing_time\":1425},{\"page_index\":1,\"viewing_time\":4195},{\"page_index\":2,\"viewing_time\":2618},{\"page_index\":3,\"viewing_time\":3044}]","rt":11283,"trial_type":"instructions","trial_index":7,"time_elapsed":413020,"internal_node_id":"0.0-4.0-3.0","task_version":"0.2"},{"responses":["true","false","true"],"num_errors":0,"rt":11550,"trial_type":"horizons-comprehension","trial_index":8,"time_elapsed":424573,"internal_node_id":"0.0-4.0-4.0","task_version":"0.2"},{"trial_type":"call-function","trial_index":9,"time_elapsed":424577,"internal_node_id":"0.0-5.0","task_version":"0.2"},{"view_history":"[{\"page_index\":0,\"viewing_time\":1665},{\"page_index\":1,\"viewing_time\":2906}]","rt":4571,"trial_type":"instructions","trial_index":10,"time_elapsed":429149,"internal_node_id":"0.0-6.0","task_version":"0.2"},{"response_times":[1178,1026,643,562,7398.000000000058,1424.9999999999418,3274,1842.0000000000582,1155.9999999999418,5208],"keys_pressed":["rightarrow","leftarrow","rightarrow","leftarrow","rightarrow","leftarrow","rightarrow","rightarrow","leftarrow","rightarrow"],"horizon":10,"forced_choices":["rightarrow","leftarrow","rightarrow","leftarrow"],"right_color":"orange","left_color":"lightblue","left_mu":40,"right_mu":44,"left_numbers":[28,36,30,25,41,40,43,41,57,36],"right_numbers":[47,30,53,45,33,54,46,54,56,45],"points_earned":436,"phase":"task","trial_type":"horizons-task","trial_index":11,"time_elapsed":454370,"internal_node_id":"0.0-7.0","task_version":"0.2"},{"response_times":[764.0000000000582,604.9999999999418,782.0000000000582,979.9999999999418,18232,779,1024,905.0000000000582,752.9999999999418,779],"keys_pressed":["rightarrow","rightarrow","leftarrow","leftarrow","rightarrow","leftarrow","rightarrow","leftarrow","rightarrow","rightarrow"],"horizon":10,"forced_choices":["rightarrow","rightarrow","leftarrow","leftarrow"],"right_color":"orange","left_color":"lightblue","left_mu":60,"right_mu":64,"left_numbers":[61,59,63,72,38,61,49,54,63,57],"right_numbers":[75,60,74,58,65,75,66,64,69,62],"points_earned":647,"phase":"task","trial_type":"horizons-task","trial_index":12,"time_elapsed":481478,"internal_node_id":"0.0-8.0","task_version":"0.2"},{"response_times":[910,569,725,691,8709],"keys_pressed":["rightarrow","rightarrow","leftarrow","leftarrow","leftarrow"],"horizon":5,"forced_choices":["rightarrow","rightarrow","leftarrow","leftarrow"],"right_color":"orange","left_color":"lightblue","left_mu":60,"right_mu":64,"left_numbers":[65,65,65,65,42],"right_numbers":[66,57,51,65,58],"points_earned":295,"phase":"task","trial_type":"horizons-task","trial_index":13,"time_elapsed":494587,"internal_node_id":"0.0-9.0","task_version":"0.2"},{"response_times":[909,670,583,632,14481.999999999942],"keys_pressed":["leftarrow","rightarrow","leftarrow","rightarrow","leftarrow"],"horizon":5,"forced_choices":["leftarrow","rightarrow","leftarrow","rightarrow"],"right_color":"orange","left_color":"lightblue","left_mu":60,"right_mu":52,"left_numbers":[56,57,64,51,59],"right_numbers":[54,51,54,50,60],"points_earned":280,"phase":"task","trial_type":"horizons-task","trial_index":14,"time_elapsed":513368,"internal_node_id":"0.0-10.0","task_version":"0.2"},{"response_times":[1137.0000000000582,640.9999999999418,1053,610.0000000000582,5010],"keys_pressed":["rightarrow","leftarrow","rightarrow","rightarrow","leftarrow"],"horizon":5,"forced_choices":["rightarrow","leftarrow","rightarrow","rightarrow"],"right_color":"lightblue","left_color":"orange","left_mu":40,"right_mu":20,"left_numbers":[36,37,36,40,41],"right_numbers":[10,15,19,34,10],"points_earned":141,"phase":"task","trial_type":"horizons-task","trial_index":15,"time_elapsed":523324,"internal_node_id":"0.0-11.0","task_version":"0.2"},{"response_times":[1261,461,457,414,19646,2413,906,926.0000000001164,806.9999999998836,576],"keys_pressed":["leftarrow","rightarrow","leftarrow","rightarrow","leftarrow","rightarrow","leftarrow","rightarrow","leftarrow","leftarrow"],"horizon":10,"forced_choices":["leftarrow","rightarrow","leftarrow","rightarrow"],"right_color":"orange","left_color":"lightblue","left_mu":60,"right_mu":52,"left_numbers":[62,60,57,57,49,55,62,64,42,73],"right_numbers":[51,54,45,63,45,44,56,53,51,54],"points_earned":559,"phase":"task","trial_type":"horizons-task","trial_index":16,"time_elapsed":552696,"internal_node_id":"0.0-12.0","task_version":"0.2"},{"response_times":[720,628,569,699,3011],"keys_pressed":["rightarrow","rightarrow","leftarrow","leftarrow","rightarrow"],"horizon":5,"forced_choices":["rightarrow","rightarrow","leftarrow","leftarrow"],"right_color":"lightblue","left_color":"orange","left_mu":40,"right_mu":32,"left_numbers":[50,39,31,24,36],"right_numbers":[31,27,30,37,27],"points_earned":140,"phase":"task","trial_type":"horizons-task","trial_index":17,"time_elapsed":559827,"internal_node_id":"0.0-13.0","task_version":"0.2"},{"response_times":[1086,774,605,664,3617,2114,620,1003.0000000001164,7889.999999999884,1724],"keys_pressed":["rightarrow","leftarrow","leftarrow","leftarrow","rightarrow","leftarrow","rightarrow","leftarrow","leftarrow","leftarrow"],"horizon":10,"forced_choices":["rightarrow","leftarrow","leftarrow","leftarrow"],"right_color":"orange","left_color":"lightblue","left_mu":60,"right_mu":64,"left_numbers":[68,53,64,63,61,71,55,60,64,57],"right_numbers":[64,60,61,57,77,63,49,71,60,73],"points_earned":622,"phase":"task","trial_type":"horizons-task","trial_index":18,"time_elapsed":581428,"internal_node_id":"0.0-14.0","task_version":"0.2"},{"response_times":[19268,1045,1090,637,6757],"keys_pressed":["leftarrow","rightarrow","rightarrow","rightarrow","leftarrow"],"horizon":5,"forced_choices":["leftarrow","rightarrow","rightarrow","rightarrow"],"right_color":"lightblue","left_color":"orange","left_mu":60,"right_mu":40,"left_numbers":[48,52,57,65,76],"right_numbers":[48,35,54,34,36],"points_earned":247,"phase":"task","trial_type":"horizons-task","trial_index":19,"time_elapsed":611740,"internal_node_id":"0.0-15.0","task_version":"0.2"},{"response_times":[1089.0000000001164,577,544.9999999998836,582,1940,2088,501,534,1025,495],"keys_pressed":["rightarrow","rightarrow","rightarrow","leftarrow","leftarrow","leftarrow","rightarrow","rightarrow","leftarrow","rightarrow"],"horizon":10,"forced_choices":["rightarrow","rightarrow","rightarrow","leftarrow"],"right_color":"orange","left_color":"lightblue","left_mu":40,"right_mu":52,"left_numbers":[31,38,43,42,32,48,49,33,40,42],"right_numbers":[45,36,45,46,58,59,60,36,67,48],"points_earned":432,"phase":"task","trial_type":"horizons-task","trial_index":20,"time_elapsed":622621,"internal_node_id":"0.0-16.0","task_version":"0.2"},{"response_times":[978,493,422,443,2061,1163.0000000001164,843.9999999998836,606,549,683],"keys_pressed":["leftarrow","rightarrow","leftarrow","leftarrow","rightarrow","rightarrow","leftarrow","rightarrow","rightarrow","rightarrow"],"horizon":10,"forced_choices":["leftarrow","rightarrow","leftarrow","leftarrow"],"right_color":"orange","left_color":"lightblue","left_mu":40,"right_mu":70,"left_numbers":[39,37,30,40,28,44,42,51,35,33],"right_numbers":[64,71,70,62,70,70,62,68,67,57],"points_earned":554,"phase":"task","trial_type":"horizons-task","trial_index":21,"time_elapsed":632368,"internal_node_id":"0.0-17.0","task_version":"0.2"},{"response_times":[730,717,527,431,1981,806,488,1296,735,504],"keys_pressed":["leftarrow","leftarrow","rightarrow","rightarrow","rightarrow","leftarrow","rightarrow","rightarrow","leftarrow","rightarrow"],"horizon":10,"forced_choices":["leftarrow","leftarrow","rightarrow","rightarrow"],"right_color":"orange","left_color":"lightblue","left_mu":40,"right_mu":60,"left_numbers":[42,29,33,41,33,42,31,36,47,38],"right_numbers":[65,61,66,74,62,61,64,63,56,66],"points_earned":555,"phase":"task","trial_type":"horizons-task","trial_index":22,"time_elapsed":642091,"internal_node_id":"0.0-18.0","task_version":"0.2"},{"response_times":[795.9999999998836,467,350,486,1884,822,660,1051,487,464],"keys_pressed":["rightarrow","leftarrow","rightarrow","rightarrow","leftarrow","rightarrow","leftarrow","rightarrow","leftarrow","leftarrow"],"horizon":10,"forced_choices":["rightarrow","leftarrow","rightarrow","rightarrow"],"right_color":"lightblue","left_color":"orange","left_mu":40,"right_mu":20,"left_numbers":[38,26,39,34,43,24,38,57,57,45],"right_numbers":[5,21,7,35,26,19,14,22,19,18],"points_earned":297,"phase":"task","trial_type":"horizons-task","trial_index":23,"time_elapsed":651063,"internal_node_id":"0.0-19.0","task_version":"0.2"},{"response_times":[811,458,651,560,3163,800,551,871,959,2520],"keys_pressed":["rightarrow","rightarrow","leftarrow","rightarrow","leftarrow","rightarrow","leftarrow","rightarrow","leftarrow","leftarrow"],"horizon":10,"forced_choices":["rightarrow","rightarrow","leftarrow","rightarrow"],"right_color":"lightblue","left_color":"orange","left_mu":40,"right_mu":32,"left_numbers":[41,39,37,34,56,35,37,34,54,44],"right_numbers":[36,20,29,33,35,41,38,38,35,37],"points_earned":396,"phase":"task","trial_type":"horizons-task","trial_index":24,"time_elapsed":663928,"internal_node_id":"0.0-20.0","task_version":"0.2"},{"response_times":[639,610,749,919,2124],"keys_pressed":["leftarrow","leftarrow","leftarrow","rightarrow","rightarrow"],"horizon":5,"forced_choices":["leftarrow","leftarrow","leftarrow","rightarrow"],"right_color":"lightblue","left_color":"orange","left_mu":60,"right_mu":48,"left_numbers":[64,58,53,54,61],"right_numbers":[43,41,44,52,54],"points_earned":281,"phase":"task","trial_type":"horizons-task","trial_index":25,"time_elapsed":670474,"internal_node_id":"0.0-21.0","task_version":"0.2"},{"response_times":[940.0000000001164,409.9999999998836,481,480,1860,886,552,874.0000000001164,866.9999999998836,1519],"keys_pressed":["rightarrow","leftarrow","leftarrow","leftarrow","rightarrow","leftarrow","rightarrow","leftarrow","rightarrow","rightarrow"],"horizon":10,"forced_choices":["rightarrow","leftarrow","leftarrow","leftarrow"],"right_color":"orange","left_color":"lightblue","left_mu":60,"right_mu":72,"left_numbers":[64,56,60,52,56,45,59,68,44,61],"right_numbers":[65,72,73,68,79,68,75,78,51,65],"points_earned":616,"phase":"task","trial_type":"horizons-task","trial_index":26,"time_elapsed":680847,"internal_node_id":"0.0-22.0","task_version":"0.2"},{"response_times":[950,393,408,437,2387,954,699,966,525,589],"keys_pressed":["rightarrow","leftarrow","leftarrow","rightarrow","leftarrow","rightarrow","leftarrow","rightarrow","leftarrow","leftarrow"],"horizon":10,"forced_choices":["rightarrow","leftarrow","leftarrow","rightarrow"],"right_color":"lightblue","left_color":"orange","left_mu":60,"right_mu":48,"left_numbers":[66,70,69,61,55,54,49,60,76,61],"right_numbers":[47,57,52,56,38,47,39,55,47,54],"points_earned":585,"phase":"task","trial_type":"horizons-task","trial_index":27,"time_elapsed":690659,"internal_node_id":"0.0-23.0","task_version":"0.2"},{"response_times":[891.9999999998836,456,629.0000000001164,1056.9999999998836,2548],"keys_pressed":["rightarrow","leftarrow","rightarrow","leftarrow","leftarrow"],"horizon":5,"forced_choices":["rightarrow","leftarrow","rightarrow","leftarrow"],"right_color":"orange","left_color":"lightblue","left_mu":40,"right_mu":44,"left_numbers":[42,44,36,50,41],"right_numbers":[42,42,33,47,27],"points_earned":210,"phase":"task","trial_type":"horizons-task","trial_index":28,"time_elapsed":697749,"internal_node_id":"0.0-24.0","task_version":"0.2"},{"response_times":[730,411.0000000001164,577.9999999998836,683,2077],"keys_pressed":["leftarrow","rightarrow","rightarrow","leftarrow","leftarrow"],"horizon":5,"forced_choices":["leftarrow","rightarrow","rightarrow","leftarrow"],"right_color":"lightblue","left_color":"orange","left_mu":40,"right_mu":28,"left_numbers":[39,48,37,47,38],"right_numbers":[33,22,20,38,33],"points_earned":166,"phase":"task","trial_type":"horizons-task","trial_index":29,"time_elapsed":703732,"internal_node_id":"0.0-25.0","task_version":"0.2"},{"response_times":[827.9999999998836,385,366,432,1997],"keys_pressed":["rightarrow","leftarrow","rightarrow","leftarrow","leftarrow"],"horizon":5,"forced_choices":["rightarrow","leftarrow","rightarrow","leftarrow"],"right_color":"orange","left_color":"lightblue","left_mu":60,"right_mu":56,"left_numbers":[66,65,51,58,76],"right_numbers":[43,61,45,60,61],"points_earned":287,"phase":"task","trial_type":"horizons-task","trial_index":30,"time_elapsed":709244,"internal_node_id":"0.0-26.0","task_version":"0.2"},{"response_times":[713,370,348,408,2080],"keys_pressed":["leftarrow","rightarrow","leftarrow","rightarrow","leftarrow"],"horizon":5,"forced_choices":["leftarrow","rightarrow","leftarrow","rightarrow"],"right_color":"lightblue","left_color":"orange","left_mu":40,"right_mu":20,"left_numbers":[46,34,34,33,41],"right_numbers":[18,18,19,31,9],"points_earned":170,"phase":"task","trial_type":"horizons-task","trial_index":31,"time_elapsed":714668,"internal_node_id":"0.0-27.0","task_version":"0.2"},{"response_times":[957,464,617,439,1919.0000000001164],"keys_pressed":["leftarrow","rightarrow","rightarrow","leftarrow","rightarrow"],"horizon":5,"forced_choices":["leftarrow","rightarrow","rightarrow","leftarrow"],"right_color":"orange","left_color":"lightblue","left_mu":40,"right_mu":70,"left_numbers":[37,43,46,43,35],"right_numbers":[68,66,90,66,69],"points_earned":305,"phase":"task","trial_type":"horizons-task","trial_index":32,"time_elapsed":720568,"internal_node_id":"0.0-28.0","task_version":"0.2"},{"response_times":[525,500,425,618,2686],"keys_pressed":["leftarrow","leftarrow","rightarrow","leftarrow","rightarrow"],"horizon":5,"forced_choices":["leftarrow","leftarrow","rightarrow","leftarrow"],"right_color":"lightblue","left_color":"orange","left_mu":60,"right_mu":80,"left_numbers":[68,61,62,69,57],"right_numbers":[81,77,76,78,89],"points_earned":363,"phase":"task","trial_type":"horizons-task","trial_index":33,"time_elapsed":726826,"internal_node_id":"0.0-29.0","task_version":"0.2"},{"response_times":[598,401,563,606,2990],"keys_pressed":["rightarrow","leftarrow","leftarrow","leftarrow","rightarrow"],"horizon":5,"forced_choices":["rightarrow","leftarrow","leftarrow","leftarrow"],"right_color":"orange","left_color":"lightblue","left_mu":40,"right_mu":36,"left_numbers":[36,45,50,31,47],"right_numbers":[37,32,39,40,33],"points_earned":196,"phase":"task","trial_type":"horizons-task","trial_index":34,"time_elapsed":733487,"internal_node_id":"0.0-30.0","task_version":"0.2"},{"response_times":[827,386,387,355,4708,1083.0000000001164,452.9999999998836,671,811,1316],"keys_pressed":["rightarrow","leftarrow","rightarrow","leftarrow","leftarrow","rightarrow","leftarrow","rightarrow","leftarrow","leftarrow"],"horizon":10,"forced_choices":["rightarrow","leftarrow","rightarrow","leftarrow"],"right_color":"orange","left_color":"lightblue","left_mu":60,"right_mu":56,"left_numbers":[67,56,77,61,61,70,35,53,62,63],"right_numbers":[45,52,58,67,48,56,54,42,66,52],"points_earned":539,"phase":"task","trial_type":"horizons-task","trial_index":35,"time_elapsed":745987,"internal_node_id":"0.0-31.0","task_version":"0.2"},{"response_times":[915,551,618,625,2395],"keys_pressed":["rightarrow","rightarrow","leftarrow","rightarrow","leftarrow"],"horizon":5,"forced_choices":["rightarrow","rightarrow","leftarrow","rightarrow"],"right_color":"lightblue","left_color":"orange","left_mu":40,"right_mu":28,"left_numbers":[40,36,39,22,30],"right_numbers":[17,23,31,21,16],"points_earned":130,"phase":"task","trial_type":"horizons-task","trial_index":36,"time_elapsed":752595,"internal_node_id":"0.0-32.0","task_version":"0.2"},{"response_times":[763,786,467.0000000001164,474.9999999998836,3389,422,744,1363,390,431],"keys_pressed":["leftarrow","leftarrow","rightarrow","leftarrow","rightarrow","leftarrow","rightarrow","leftarrow","rightarrow","rightarrow"],"horizon":10,"forced_choices":["leftarrow","leftarrow","rightarrow","leftarrow"],"right_color":"lightblue","left_color":"orange","left_mu":40,"right_mu":48,"left_numbers":[51,36,31,36,52,38,42,27,38,39],"right_numbers":[53,47,49,62,50,46,50,41,52,49],"points_earned":438,"phase":"task","trial_type":"horizons-task","trial_index":37,"time_elapsed":763331,"internal_node_id":"0.0-33.0","task_version":"0.2"},{"response_times":[550,430,445,460,1812],"keys_pressed":["rightarrow","rightarrow","leftarrow","rightarrow","rightarrow"],"horizon":5,"forced_choices":["rightarrow","rightarrow","leftarrow","rightarrow"],"right_color":"orange","left_color":"lightblue","left_mu":40,"right_mu":44,"left_numbers":[43,43,39,43,46],"right_numbers":[51,37,33,55,42],"points_earned":224,"phase":"task","trial_type":"horizons-task","trial_index":38,"time_elapsed":768532,"internal_node_id":"0.0-34.0","task_version":"0.2"},{"response_times":[710.9999999998836,397,532,389.0000000001164,3989.9999999998836],"keys_pressed":["leftarrow","rightarrow","leftarrow","rightarrow","rightarrow"],"horizon":5,"forced_choices":["leftarrow","rightarrow","leftarrow","rightarrow"],"right_color":"orange","left_color":"lightblue","left_mu":40,"right_mu":36,"left_numbers":[39,49,40,32,59],"right_numbers":[43,50,41,35,45],"points_earned":209,"phase":"task","trial_type":"horizons-task","trial_index":39,"time_elapsed":776054,"internal_node_id":"0.0-35.0","task_version":"0.2"},{"response_times":[785.0000000001164,438,570,481,1691,857,438,566.0000000001164,804,428],"keys_pressed":["leftarrow","rightarrow","rightarrow","rightarrow","leftarrow","leftarrow","rightarrow","leftarrow","rightarrow","leftarrow"],"horizon":10,"forced_choices":["leftarrow","rightarrow","rightarrow","rightarrow"],"right_color":"lightblue","left_color":"orange","left_mu":60,"right_mu":40,"left_numbers":[70,64,58,61,53,56,63,75,56,54],"right_numbers":[54,29,19,25,33,47,50,28,42,43],"points_earned":473,"phase":"task","trial_type":"horizons-task","trial_index":40,"time_elapsed":784620,"internal_node_id":"0.0-36.0","task_version":"0.2"},{"response_times":[841.9999999998836,399,481,386,1597,614,487,781,474,384],"keys_pressed":["leftarrow","rightarrow","rightarrow","leftarrow","rightarrow","leftarrow","rightarrow","leftarrow","rightarrow","rightarrow"],"horizon":10,"forced_choices":["leftarrow","rightarrow","rightarrow","leftarrow"],"right_color":"orange","left_color":"lightblue","left_mu":40,"right_mu":70,"left_numbers":[47,28,26,43,45,36,39,39,47,51],"right_numbers":[76,73,72,60,60,76,56,70,78,78],"points_earned":582,"phase":"task","trial_type":"horizons-task","trial_index":41,"time_elapsed":792568,"internal_node_id":"0.0-37.0","task_version":"0.2"},{"response_times":[649,409,536.0000000001164,438.9999999998836,1037],"keys_pressed":["rightarrow","rightarrow","rightarrow","leftarrow","rightarrow"],"horizon":5,"forced_choices":["rightarrow","rightarrow","rightarrow","leftarrow"],"right_color":"orange","left_color":"lightblue","left_mu":40,"right_mu":52,"left_numbers":[45,42,36,50,44],"right_numbers":[56,50,53,45,47],"points_earned":256,"phase":"task","trial_type":"horizons-task","trial_index":42,"time_elapsed":797143,"internal_node_id":"0.0-38.0","task_version":"0.2"},{"response_times":[699,336,873,591,2301],"keys_pressed":["rightarrow","leftarrow","leftarrow","rightarrow","leftarrow"],"horizon":5,"forced_choices":["rightarrow","leftarrow","leftarrow","rightarrow"],"right_color":"lightblue","left_color":"orange","left_mu":40,"right_mu":10,"left_numbers":[39,31,38,34,52],"right_numbers":[13,0,11,22,0],"points_earned":156,"phase":"task","trial_type":"horizons-task","trial_index":43,"time_elapsed":803446,"internal_node_id":"0.0-39.0","task_version":"0.2"},{"response_times":[734,708,473,469,2353,381,596,708,515.0000000001164,440.9999999998836],"keys_pressed":["leftarrow","leftarrow","rightarrow","leftarrow","rightarrow","leftarrow","rightarrow","leftarrow","rightarrow","rightarrow"],"horizon":10,"forced_choices":["leftarrow","leftarrow","rightarrow","leftarrow"],"right_color":"lightblue","left_color":"orange","left_mu":60,"right_mu":80,"left_numbers":[66,57,61,48,69,60,54,79,67,70],"right_numbers":[87,75,81,91,83,71,82,77,73,90],"points_earned":719,"phase":"task","trial_type":"horizons-task","trial_index":44,"time_elapsed":812329,"internal_node_id":"0.0-40.0","task_version":"0.2"},{"response_times":[674,678,664,704,1303],"keys_pressed":["rightarrow","rightarrow","rightarrow","leftarrow","rightarrow"],"horizon":5,"forced_choices":["rightarrow","rightarrow","rightarrow","leftarrow"],"right_color":"orange","left_color":"lightblue","left_mu":60,"right_mu":56,"left_numbers":[70,63,67,47,70],"right_numbers":[67,53,49,52,55],"points_earned":271,"phase":"task","trial_type":"horizons-task","trial_index":45,"time_elapsed":817855,"internal_node_id":"0.0-41.0","task_version":"0.2"},{"response_times":[822.9999999998836,466,433,782,2308],"keys_pressed":["leftarrow","rightarrow","leftarrow","rightarrow","rightarrow"],"horizon":5,"forced_choices":["leftarrow","rightarrow","leftarrow","rightarrow"],"right_color":"lightblue","left_color":"orange","left_mu":60,"right_mu":80,"left_numbers":[60,64,73,74,60],"right_numbers":[59,80,84,88,71],"points_earned":372,"phase":"task","trial_type":"horizons-task","trial_index":46,"time_elapsed":824174,"internal_node_id":"0.0-42.0","task_version":"0.2"},{"response_times":[689,369,446,399,2407,556,448,646.0000000001164,418.9999999998836,436],"keys_pressed":["leftarrow","rightarrow","rightarrow","leftarrow","rightarrow","leftarrow","rightarrow","leftarrow","rightarrow","rightarrow"],"horizon":10,"forced_choices":["leftarrow","rightarrow","rightarrow","leftarrow"],"right_color":"orange","left_color":"lightblue","left_mu":60,"right_mu":90,"left_numbers":[62,60,60,72,64,52,54,57,52,62],"right_numbers":[79,89,101,98,99,95,84,92,104,81],"points_earned":801,"phase":"task","trial_type":"horizons-task","trial_index":47,"time_elapsed":832493,"internal_node_id":"0.0-43.0","task_version":"0.2"},{"response_times":[716,637,435,1055,2600.0000000001164],"keys_pressed":["leftarrow","leftarrow","rightarrow","rightarrow","leftarrow"],"horizon":5,"forced_choices":["leftarrow","leftarrow","rightarrow","rightarrow"],"right_color":"lightblue","left_color":"orange","left_mu":60,"right_mu":30,"left_numbers":[58,49,57,66,58],"right_numbers":[31,16,24,45,30],"points_earned":234,"phase":"task","trial_type":"horizons-task","trial_index":48,"time_elapsed":839444,"internal_node_id":"0.0-44.0","task_version":"0.2"},{"response_times":[857,644,431,634,687],"keys_pressed":["leftarrow","leftarrow","rightarrow","rightarrow","rightarrow"],"horizon":5,"forced_choices":["leftarrow","leftarrow","rightarrow","rightarrow"],"right_color":"orange","left_color":"lightblue","left_mu":40,"right_mu":52,"left_numbers":[31,39,40,51,51],"right_numbers":[43,55,53,61,38],"points_earned":222,"phase":"task","trial_type":"horizons-task","trial_index":49,"time_elapsed":844201,"internal_node_id":"0.0-45.0","task_version":"0.2"},{"response_times":[825,517,369,431,2983,501,469,1063,769,758],"keys_pressed":["rightarrow","rightarrow","leftarrow","leftarrow","rightarrow","leftarrow","rightarrow","rightarrow","rightarrow","rightarrow"],"horizon":10,"forced_choices":["rightarrow","rightarrow","leftarrow","leftarrow"],"right_color":"lightblue","left_color":"orange","left_mu":40,"right_mu":48,"left_numbers":[24,30,41,41,41,43,47,47,39,38],"right_numbers":[44,61,37,40,48,47,46,53,52,50],"points_earned":479,"phase":"task","trial_type":"horizons-task","trial_index":50,"time_elapsed":854392,"internal_node_id":"0.0-46.0","task_version":"0.2"},{"view_history":"[{\"page_index\":0,\"viewing_time\":1353},{\"page_index\":1,\"viewing_time\":45129}]","rt":46482,"trial_type":"instructions","trial_index":51,"time_elapsed":900877,"internal_node_id":"0.0-47.0","task_version":"0.2"},{"response_times":[736,469,423,674,1057],"keys_pressed":["rightarrow","leftarrow","rightarrow","leftarrow","rightarrow"],"horizon":5,"forced_choices":["rightarrow","leftarrow","rightarrow","leftarrow"],"right_color":"lightblue","left_color":"orange","left_mu":60,"right_mu":68,"left_numbers":[63,62,72,61,53],"right_numbers":[76,77,78,62,70],"points_earned":347,"phase":"task","trial_type":"horizons-task","trial_index":52,"time_elapsed":905742,"internal_node_id":"0.0-48.0","task_version":"0.2"},{"response_times":[625.9999999998836,333,391,408,1698,805,424,783,563,360],"keys_pressed":["rightarrow","leftarrow","rightarrow","rightarrow","rightarrow","leftarrow","rightarrow","rightarrow","rightarrow","rightarrow"],"horizon":10,"forced_choices":["rightarrow","leftarrow","rightarrow","rightarrow"],"right_color":"lightblue","left_color":"orange","left_mu":60,"right_mu":68,"left_numbers":[57,52,54,66,48,51,58,41,50,67],"right_numbers":[94,66,83,56,54,60,80,67,68,70],"points_earned":675,"phase":"task","trial_type":"horizons-task","trial_index":53,"time_elapsed":913640,"internal_node_id":"0.0-49.0","task_version":"0.2"},{"response_times":[707,377.0000000001164,396.9999999998836,406,1511,653,533,732,391,458],"keys_pressed":["leftarrow","rightarrow","rightarrow","rightarrow","rightarrow","rightarrow","rightarrow","leftarrow","rightarrow","rightarrow"],"horizon":10,"forced_choices":["leftarrow","rightarrow","rightarrow","rightarrow"],"right_color":"orange","left_color":"lightblue","left_mu":60,"right_mu":90,"left_numbers":[65,68,64,62,62,53,73,32,61,58],"right_numbers":[86,85,90,91,95,96,87,102,91,87],"points_earned":819,"phase":"task","trial_type":"horizons-task","trial_index":54,"time_elapsed":921310,"internal_node_id":"0.0-50.0","task_version":"0.2"},{"response_times":[835,359,618,1129,1214.0000000001164],"keys_pressed":["leftarrow","rightarrow","rightarrow","rightarrow","leftarrow"],"horizon":5,"forced_choices":["leftarrow","rightarrow","rightarrow","rightarrow"],"right_color":"lightblue","left_color":"orange","left_mu":40,"right_mu":10,"left_numbers":[45,42,58,33,47],"right_numbers":[12,15,11,23,6],"points_earned":141,"phase":"task","trial_type":"horizons-task","trial_index":55,"time_elapsed":926968,"internal_node_id":"0.0-51.0","task_version":"0.2"},{"response_times":[973,373,391,447,1788,1829,561,400,495,461],"keys_pressed":["leftarrow","rightarrow","leftarrow","rightarrow","leftarrow","leftarrow","rightarrow","leftarrow","leftarrow","leftarrow"],"horizon":10,"forced_choices":["leftarrow","rightarrow","leftarrow","rightarrow"],"right_color":"lightblue","left_color":"orange","left_mu":40,"right_mu":20,"left_numbers":[46,33,47,37,32,47,39,30,33,53],"right_numbers":[23,22,20,15,26,13,23,12,12,23],"points_earned":348,"phase":"task","trial_type":"horizons-task","trial_index":56,"time_elapsed":936193,"internal_node_id":"0.0-52.0","task_version":"0.2"},{"response_times":[817,605,645,886,1954.0000000001164],"keys_pressed":["leftarrow","leftarrow","rightarrow","leftarrow","leftarrow"],"horizon":5,"forced_choices":["leftarrow","leftarrow","rightarrow","leftarrow"],"right_color":"lightblue","left_color":"orange","left_mu":40,"right_mu":48,"left_numbers":[44,44,44,40,34],"right_numbers":[36,59,42,45,48],"points_earned":204,"phase":"task","trial_type":"horizons-task","trial_index":57,"time_elapsed":942604,"internal_node_id":"0.0-53.0","task_version":"0.2"},{"response_times":[641,540,584.0000000001164,639,1154],"keys_pressed":["leftarrow","leftarrow","rightarrow","leftarrow","leftarrow"],"horizon":5,"forced_choices":["leftarrow","leftarrow","rightarrow","leftarrow"],"right_color":"lightblue","left_color":"orange","left_mu":60,"right_mu":30,"left_numbers":[65,65,51,50,51],"right_numbers":[32,27,25,17,26],"points_earned":256,"phase":"task","trial_type":"horizons-task","trial_index":58,"time_elapsed":947666,"internal_node_id":"0.0-54.0","task_version":"0.2"},{"response_times":[691,399,396,397,2079,1036,495,416,456,408],"keys_pressed":["rightarrow","rightarrow","leftarrow","leftarrow","leftarrow","leftarrow","rightarrow","leftarrow","leftarrow","leftarrow"],"horizon":10,"forced_choices":["rightarrow","rightarrow","leftarrow","leftarrow"],"right_color":"lightblue","left_color":"orange","left_mu":40,"right_mu":32,"left_numbers":[37,33,29,34,51,41,47,38,48,49],"right_numbers":[24,26,16,40,32,31,25,24,35,35],"points_earned":365,"phase":"task","trial_type":"horizons-task","trial_index":59,"time_elapsed":955942,"internal_node_id":"0.0-55.0","task_version":"0.2"},{"response_times":[667.0000000001164,345.9999999998836,542,901.0000000001164,1409.9999999998836],"keys_pressed":["rightarrow","leftarrow","leftarrow","rightarrow","leftarrow"],"horizon":5,"forced_choices":["rightarrow","leftarrow","leftarrow","rightarrow"],"right_color":"lightblue","left_color":"orange","left_mu":60,"right_mu":48,"left_numbers":[70,65,50,79,66],"right_numbers":[58,53,35,37,35],"points_earned":276,"phase":"task","trial_type":"horizons-task","trial_index":60,"time_elapsed":961312,"internal_node_id":"0.0-56.0","task_version":"0.2"},{"response_times":[786.9999999998836,417,494,523.0000000001164,2666.9999999998836,666,340,549,571,448.0000000001164],"keys_pressed":["rightarrow","rightarrow","leftarrow","rightarrow","rightarrow","leftarrow","rightarrow","leftarrow","leftarrow","leftarrow"],"horizon":10,"forced_choices":["rightarrow","rightarrow","leftarrow","rightarrow"],"right_color":"lightblue","left_color":"orange","left_mu":40,"right_mu":28,"left_numbers":[40,45,27,36,35,45,34,49,54,48],"right_numbers":[28,18,14,20,30,31,8,20,28,25],"points_earned":327,"phase":"task","trial_type":"horizons-task","trial_index":61,"time_elapsed":970278,"internal_node_id":"0.0-57.0","task_version":"0.2"},{"response_times":[726,365.0000000001164,472.9999999998836,569,1616],"keys_pressed":["rightarrow","leftarrow","leftarrow","leftarrow","leftarrow"],"horizon":5,"forced_choices":["rightarrow","leftarrow","leftarrow","leftarrow"],"right_color":"orange","left_color":"lightblue","left_mu":60,"right_mu":64,"left_numbers":[67,56,45,62,63],"right_numbers":[57,55,73,61,57],"points_earned":283,"phase":"task","trial_type":"horizons-task","trial_index":62,"time_elapsed":975532,"internal_node_id":"0.0-58.0","task_version":"0.2"},{"response_times":[748,430,480,388,482,1853,487,467,468,973.0000000001164],"keys_pressed":["rightarrow","rightarrow","rightarrow","leftarrow","leftarrow","leftarrow","rightarrow","leftarrow","leftarrow","leftarrow"],"horizon":10,"forced_choices":["rightarrow","rightarrow","rightarrow","leftarrow"],"right_color":"orange","left_color":"lightblue","left_mu":60,"right_mu":56,"left_numbers":[65,62,49,66,74,74,52,57,54,49],"right_numbers":[49,61,60,34,51,41,63,61,55,48],"points_earned":607,"phase":"task","trial_type":"horizons-task","trial_index":63,"time_elapsed":983816,"internal_node_id":"0.0-59.0","task_version":"0.2"},{"response_times":[809.0000000001164,504.9999999998836,458,432,2758],"keys_pressed":["rightarrow","rightarrow","leftarrow","leftarrow","rightarrow"],"horizon":5,"forced_choices":["rightarrow","rightarrow","leftarrow","leftarrow"],"right_color":"lightblue","left_color":"orange","left_mu":40,"right_mu":48,"left_numbers":[31,33,45,32,48],"right_numbers":[44,46,47,41,57],"points_earned":224,"phase":"task","trial_type":"horizons-task","trial_index":64,"time_elapsed":990282,"internal_node_id":"0.0-60.0","task_version":"0.2"},{"response_times":[609,386,452,373,1528,902.0000000001164,352.9999999998836,577,375,818],"keys_pressed":["rightarrow","leftarrow","leftarrow","rightarrow","leftarrow","rightarrow","leftarrow","rightarrow","leftarrow","leftarrow"],"horizon":10,"forced_choices":["rightarrow","leftarrow","leftarrow","rightarrow"],"right_color":"lightblue","left_color":"orange","left_mu":40,"right_mu":10,"left_numbers":[42,28,65,38,38,41,46,32,35,29],"right_numbers":[0,2,15,8,7,8,23,4,8,12],"points_earned":261,"phase":"task","trial_type":"horizons-task","trial_index":65,"time_elapsed":998160,"internal_node_id":"0.0-61.0","task_version":"0.2"},{"response_times":[719,692,403,426.0000000001164,1499.0000000001164,702.9999999998836,332,753.0000000001164,717.9999999998836,320],"keys_pressed":["leftarrow","rightarrow","leftarrow","leftarrow","leftarrow","rightarrow","leftarrow","leftarrow","rightarrow","leftarrow"],"horizon":10,"forced_choices":["leftarrow","rightarrow","leftarrow","leftarrow"],"right_color":"orange","left_color":"lightblue","left_mu":60,"right_mu":52,"left_numbers":[36,65,65,66,72,71,64,66,69,65],"right_numbers":[61,34,51,37,53,38,49,45,58,59],"points_earned":564,"phase":"task","trial_type":"horizons-task","trial_index":66,"time_elapsed":1006230,"internal_node_id":"0.0-62.0","task_version":"0.2"},{"response_times":[667,604.0000000001164,550.9999999998836,624,1593,581,279,564.0000000001164,604.9999999998836,605],"keys_pressed":["leftarrow","leftarrow","leftarrow","rightarrow","leftarrow","rightarrow","leftarrow","rightarrow","rightarrow","rightarrow"],"horizon":10,"forced_choices":["leftarrow","leftarrow","leftarrow","rightarrow"],"right_color":"orange","left_color":"lightblue","left_mu":40,"right_mu":60,"left_numbers":[32,36,49,37,39,43,44,43,38,36],"right_numbers":[58,66,55,45,61,66,41,60,58,67],"points_earned":496,"phase":"task","trial_type":"horizons-task","trial_index":67,"time_elapsed":1014407,"internal_node_id":"0.0-63.0","task_version":"0.2"},{"response_times":[753.0000000001164,372.9999999998836,370,429,1295.0000000001164,315.9999999998836,881.0000000001164,456.9999999998836,811,6399.000000000116],"keys_pressed":["leftarrow","rightarrow","leftarrow","rightarrow","rightarrow","leftarrow","rightarrow","leftarrow","rightarrow","leftarrow"],"horizon":10,"forced_choices":["leftarrow","rightarrow","leftarrow","rightarrow"],"right_color":"orange","left_color":"lightblue","left_mu":40,"right_mu":36,"left_numbers":[49,36,21,40,42,42,37,34,25,30],"right_numbers":[42,43,29,37,18,40,46,39,38,33],"points_earned":358,"phase":"task","trial_type":"horizons-task","trial_index":68,"time_elapsed":1027996,"internal_node_id":"0.0-64.0","task_version":"0.2"},{"response_times":[711.9999999998836,382.0000000001164,370.0000000001164,381.99999999976717,2913.0000000001164,410,465.9999999998836,569.0000000002328,356,513.9999999998836],"keys_pressed":["leftarrow","rightarrow","rightarrow","rightarrow","leftarrow","rightarrow","leftarrow","rightarrow","leftarrow","leftarrow"],"horizon":10,"forced_choices":["leftarrow","rightarrow","rightarrow","rightarrow"],"right_color":"lightblue","left_color":"orange","left_mu":40,"right_mu":10,"left_numbers":[40,31,35,40,35,22,44,43,31,37],"right_numbers":[8,14,3,0,23,7,7,3,3,0],"points_earned":214,"phase":"task","trial_type":"horizons-task","trial_index":69,"time_elapsed":1036576,"internal_node_id":"0.0-65.0","task_version":"0.2"},{"response_times":[751.9999999998836,544.0000000001164,460.99999999976717,754.0000000001164,2489.0000000001164],"keys_pressed":["leftarrow","leftarrow","rightarrow","rightarrow","rightarrow"],"horizon":5,"forced_choices":["leftarrow","leftarrow","rightarrow","rightarrow"],"right_color":"orange","left_color":"lightblue","left_mu":40,"right_mu":60,"left_numbers":[43,46,39,52,46],"right_numbers":[66,60,74,39,60],"points_earned":262,"phase":"task","trial_type":"horizons-task","trial_index":70,"time_elapsed":1043082,"internal_node_id":"0.0-66.0","task_version":"0.2"},{"response_times":[556,433,463,473,1649,351,428,378,446.00000000023283,293.99999999976717],"keys_pressed":["rightarrow","rightarrow","leftarrow","rightarrow","rightarrow","leftarrow","rightarrow","leftarrow","rightarrow","rightarrow"],"horizon":10,"forced_choices":["rightarrow","rightarrow","leftarrow","rightarrow"],"right_color":"orange","left_color":"lightblue","left_mu":40,"right_mu":44,"left_numbers":[46,43,41,45,41,46,44,35,42,45],"right_numbers":[38,43,44,40,51,56,53,45,43,28],"points_earned":418,"phase":"task","trial_type":"horizons-task","trial_index":71,"time_elapsed":1050057,"internal_node_id":"0.0-67.0","task_version":"0.2"},{"response_times":[794,415,404,557,1433,350,419,498,295,446],"keys_pressed":["leftarrow","leftarrow","rightarrow","leftarrow","leftarrow","rightarrow","leftarrow","rightarrow","leftarrow","leftarrow"],"horizon":10,"forced_choices":["leftarrow","leftarrow","rightarrow","leftarrow"],"right_color":"lightblue","left_color":"orange","left_mu":60,"right_mu":30,"left_numbers":[63,55,68,57,50,58,62,65,58,65],"right_numbers":[20,55,34,39,29,19,29,16,31,27],"points_earned":479,"phase":"task","trial_type":"horizons-task","trial_index":72,"time_elapsed":1057173,"internal_node_id":"0.0-68.0","task_version":"0.2"},{"response_times":[677,459,415,401,1870,451,282,504,570,296],"keys_pressed":["leftarrow","leftarrow","rightarrow","rightarrow","rightarrow","leftarrow","rightarrow","rightarrow","leftarrow","rightarrow"],"horizon":10,"forced_choices":["leftarrow","leftarrow","rightarrow","rightarrow"],"right_color":"orange","left_color":"lightblue","left_mu":40,"right_mu":52,"left_numbers":[39,36,33,27,32,36,27,45,40,34],"right_numbers":[47,49,44,60,60,51,69,50,28,47],"points_earned":481,"phase":"task","trial_type":"horizons-task","trial_index":73,"time_elapsed":1064602,"internal_node_id":"0.0-69.0","task_version":"0.2"},{"response_times":[575,317,545,608,1455],"keys_pressed":["rightarrow","leftarrow","leftarrow","leftarrow","rightarrow"],"horizon":5,"forced_choices":["rightarrow","leftarrow","leftarrow","leftarrow"],"right_color":"orange","left_color":"lightblue","left_mu":60,"right_mu":72,"left_numbers":[70,57,57,39,60],"right_numbers":[67,69,77,82,66],"points_earned":286,"phase":"task","trial_type":"horizons-task","trial_index":74,"time_elapsed":1069607,"internal_node_id":"0.0-70.0","task_version":"0.2"},{"response_times":[787,409,509,462,579,2215,690,880,355,435],"keys_pressed":["rightarrow","leftarrow","leftarrow","leftarrow","leftarrow","rightarrow","leftarrow","rightarrow","leftarrow","leftarrow"],"horizon":10,"forced_choices":["rightarrow","leftarrow","leftarrow","leftarrow"],"right_color":"orange","left_color":"lightblue","left_mu":40,"right_mu":36,"left_numbers":[40,38,45,40,32,41,39,61,29,26],"right_numbers":[37,36,40,47,42,32,20,25,22,36],"points_earned":343,"phase":"task","trial_type":"horizons-task","trial_index":75,"time_elapsed":1078433,"internal_node_id":"0.0-71.0","task_version":"0.2"},{"response_times":[671,359.00000000023283,405.99999999976717,646,3009],"keys_pressed":["rightarrow","leftarrow","leftarrow","rightarrow","rightarrow"],"horizon":5,"forced_choices":["rightarrow","leftarrow","leftarrow","rightarrow"],"right_color":"orange","left_color":"lightblue","left_mu":60,"right_mu":72,"left_numbers":[68,51,59,59,66],"right_numbers":[80,68,67,78,56],"points_earned":324,"phase":"task","trial_type":"horizons-task","trial_index":76,"time_elapsed":1085027,"internal_node_id":"0.0-72.0","task_version":"0.2"},{"response_times":[694,332,565,403,2715,1852.0000000002328,5154.999999999767,2706,356,437],"keys_pressed":["rightarrow","leftarrow","leftarrow","rightarrow","leftarrow","leftarrow","leftarrow","leftarrow","rightarrow","leftarrow"],"horizon":10,"forced_choices":["rightarrow","leftarrow","leftarrow","rightarrow"],"right_color":"lightblue","left_color":"orange","left_mu":60,"right_mu":40,"left_numbers":[70,61,57,65,62,47,48,46,60,61],"right_numbers":[41,40,34,48,33,34,47,33,33,46],"points_earned":504,"phase":"task","trial_type":"horizons-task","trial_index":77,"time_elapsed":1101746,"internal_node_id":"0.0-73.0","task_version":"0.2"},{"response_times":[715,712,749,2234,2748,3229,368.00000000023283,404,1428.9999999997672,521],"keys_pressed":["leftarrow","leftarrow","leftarrow","rightarrow","leftarrow","leftarrow","rightarrow","leftarrow","leftarrow","leftarrow"],"horizon":10,"forced_choices":["leftarrow","leftarrow","leftarrow","rightarrow"],"right_color":"lightblue","left_color":"orange","left_mu":60,"right_mu":48,"left_numbers":[60,43,58,42,63,70,51,57,51,54],"right_numbers":[55,56,32,45,46,45,52,64,50,44],"points_earned":553,"phase":"task","trial_type":"horizons-task","trial_index":78,"time_elapsed":1116359,"internal_node_id":"0.0-74.0","task_version":"0.2"},{"response_times":[785,650,396,629,2119],"keys_pressed":["leftarrow","rightarrow","leftarrow","leftarrow","leftarrow"],"horizon":5,"forced_choices":["leftarrow","rightarrow","leftarrow","leftarrow"],"right_color":"orange","left_color":"lightblue","left_mu":40,"right_mu":70,"left_numbers":[36,46,57,48,53],"right_numbers":[69,50,64,68,75],"points_earned":244,"phase":"task","trial_type":"horizons-task","trial_index":79,"time_elapsed":1122443,"internal_node_id":"0.0-75.0","task_version":"0.2"},{"response_times":[668,675,656,455,1379,655,303,631,935,520],"keys_pressed":["leftarrow","rightarrow","leftarrow","rightarrow","rightarrow","leftarrow","rightarrow","rightarrow","rightarrow","rightarrow"],"horizon":10,"forced_choices":["leftarrow","rightarrow","leftarrow","rightarrow"],"right_color":"lightblue","left_color":"orange","left_mu":60,"right_mu":80,"left_numbers":[52,52,66,52,51,55,62,52,47,57],"right_numbers":[90,73,98,80,81,71,84,91,85,69],"points_earned":736,"phase":"task","trial_type":"horizons-task","trial_index":80,"time_elapsed":1130825,"internal_node_id":"0.0-76.0","task_version":"0.2"},{"response_times":[850.0000000002328,640.9999999997672,662,1804,1847],"keys_pressed":["leftarrow","leftarrow","leftarrow","rightarrow","rightarrow"],"horizon":5,"forced_choices":["leftarrow","leftarrow","leftarrow","rightarrow"],"right_color":"orange","left_color":"lightblue","left_mu":40,"right_mu":60,"left_numbers":[41,38,19,39,24],"right_numbers":[55,59,51,67,66],"points_earned":231,"phase":"task","trial_type":"horizons-task","trial_index":81,"time_elapsed":1138135,"internal_node_id":"0.0-77.0","task_version":"0.2"},{"response_times":[2257,2800,613,1133,1744,724,433,692,218,402],"keys_pressed":["leftarrow","rightarrow","rightarrow","leftarrow","leftarrow","rightarrow","leftarrow","leftarrow","leftarrow","leftarrow"],"horizon":10,"forced_choices":["leftarrow","rightarrow","rightarrow","leftarrow"],"right_color":"lightblue","left_color":"orange","left_mu":40,"right_mu":28,"left_numbers":[44,27,37,37,38,36,51,50,32,42],"right_numbers":[27,25,26,39,33,27,20,10,31,31],"points_earned":372,"phase":"task","trial_type":"horizons-task","trial_index":82,"time_elapsed":1150661,"internal_node_id":"0.0-78.0","task_version":"0.2"},{"response_times":[781.9999999997672,406,1068,1686.0000000002328,734.9999999997672],"keys_pressed":["leftarrow","rightarrow","rightarrow","rightarrow","rightarrow"],"horizon":5,"forced_choices":["leftarrow","rightarrow","rightarrow","rightarrow"],"right_color":"orange","left_color":"lightblue","left_mu":60,"right_mu":90,"left_numbers":[52,55,58,70,60],"right_numbers":[87,100,97,98,95],"points_earned":442,"phase":"task","trial_type":"horizons-task","trial_index":83,"time_elapsed":1156842,"internal_node_id":"0.0-79.0","task_version":"0.2"},{"response_times":[924,1179,3325,1343,1833,1390,574,575,473,361],"keys_pressed":["leftarrow","leftarrow","rightarrow","rightarrow","leftarrow","rightarrow","leftarrow","leftarrow","leftarrow","leftarrow"],"horizon":10,"forced_choices":["leftarrow","leftarrow","rightarrow","rightarrow"],"right_color":"lightblue","left_color":"orange","left_mu":60,"right_mu":30,"left_numbers":[54,49,69,56,67,59,57,65,60,42],"right_numbers":[23,35,31,24,32,33,27,25,30,32],"points_earned":482,"phase":"task","trial_type":"horizons-task","trial_index":84,"time_elapsed":1170323,"internal_node_id":"0.0-80.0","task_version":"0.2"},{"response_times":[730,544,633,690,2124],"keys_pressed":["rightarrow","rightarrow","leftarrow","rightarrow","rightarrow"],"horizon":5,"forced_choices":["rightarrow","rightarrow","leftarrow","rightarrow"],"right_color":"lightblue","left_color":"orange","left_mu":40,"right_mu":32,"left_numbers":[56,44,48,45,39],"right_numbers":[42,38,34,41,30],"points_earned":199,"phase":"task","trial_type":"horizons-task","trial_index":85,"time_elapsed":1176549,"internal_node_id":"0.0-81.0","task_version":"0.2"},{"response_times":[1086,451.00000000023283,526.9999999997672,581,1342],"keys_pressed":["leftarrow","rightarrow","leftarrow","leftarrow","leftarrow"],"horizon":5,"forced_choices":["leftarrow","rightarrow","leftarrow","leftarrow"],"right_color":"orange","left_color":"lightblue","left_mu":60,"right_mu":52,"left_numbers":[62,77,56,66,65],"right_numbers":[60,60,63,53,58],"points_earned":309,"phase":"task","trial_type":"horizons-task","trial_index":86,"time_elapsed":1182039,"internal_node_id":"0.0-82.0","task_version":"0.2"},{"response_times":[738,408,420,417,1981,1242,738,564,897,2427],"keys_pressed":["rightarrow","leftarrow","leftarrow","rightarrow","rightarrow","leftarrow","rightarrow","leftarrow","leftarrow","leftarrow"],"horizon":10,"forced_choices":["rightarrow","leftarrow","leftarrow","rightarrow"],"right_color":"orange","left_color":"lightblue","left_mu":60,"right_mu":72,"left_numbers":[63,63,51,54,66,71,65,61,62,76],"right_numbers":[72,74,85,81,70,67,55,67,67,55],"points_earned":662,"phase":"task","trial_type":"horizons-task","trial_index":87,"time_elapsed":1193379,"internal_node_id":"0.0-83.0","task_version":"0.2"},{"response_times":[692,358,476,568,1682],"keys_pressed":["rightarrow","leftarrow","rightarrow","rightarrow","rightarrow"],"horizon":5,"forced_choices":["rightarrow","leftarrow","rightarrow","rightarrow"],"right_color":"lightblue","left_color":"orange","left_mu":60,"right_mu":68,"left_numbers":[72,61,55,56,63],"right_numbers":[64,71,69,73,66],"points_earned":333,"phase":"task","trial_type":"horizons-task","trial_index":88,"time_elapsed":1198659,"internal_node_id":"0.0-84.0","task_version":"0.2"},{"response_times":[935,457,590,477,2070],"keys_pressed":["rightarrow","leftarrow","leftarrow","rightarrow","leftarrow"],"horizon":5,"forced_choices":["rightarrow","leftarrow","leftarrow","rightarrow"],"right_color":"lightblue","left_color":"orange","left_mu":60,"right_mu":40,"left_numbers":[56,68,59,50,65],"right_numbers":[39,47,37,35,30],"points_earned":266,"phase":"task","trial_type":"horizons-task","trial_index":89,"time_elapsed":1204692,"internal_node_id":"0.0-85.0","task_version":"0.2"},{"response_times":[718,522,459,632,919],"keys_pressed":["leftarrow","rightarrow","rightarrow","leftarrow","rightarrow"],"horizon":5,"forced_choices":["leftarrow","rightarrow","rightarrow","leftarrow"],"right_color":"orange","left_color":"lightblue","left_mu":60,"right_mu":90,"left_numbers":[51,57,63,59,65],"right_numbers":[96,102,75,78,81],"points_earned":368,"phase":"task","trial_type":"horizons-task","trial_index":90,"time_elapsed":1209446,"internal_node_id":"0.0-86.0","task_version":"0.2"},{"response_times":[712,949,407,1008,1906,546,479,530,767,350],"keys_pressed":["rightarrow","leftarrow","rightarrow","leftarrow","rightarrow","leftarrow","rightarrow","leftarrow","rightarrow","rightarrow"],"horizon":10,"forced_choices":["rightarrow","leftarrow","rightarrow","leftarrow"],"right_color":"lightblue","left_color":"orange","left_mu":60,"right_mu":68,"left_numbers":[55,54,61,58,69,63,69,60,61,60],"right_numbers":[73,75,73,61,66,75,68,70,72,75],"points_earned":662,"phase":"task","trial_type":"horizons-task","trial_index":91,"time_elapsed":1218606,"internal_node_id":"0.0-87.0","task_version":"0.2"},{"rt":18010,"responses":{"age":"18","gender-categorical":"Female","gender-free-response":"","ethnicity":"Not Hispanic or Latino","race":["Asian"],"language":"Yes","fluency":"Very well"},"survey":"demographics","trial_type":"survey-demo","trial_index":92,"time_elapsed":1236623,"internal_node_id":"0.0-88.0","task_version":"0.2"},{"rt":20215,"responses":{"difficulty":"2","fun":"4","clarity":"5","strategy":"","feedback":""},"survey":"debrief","trial_type":"survey-debrief","trial_index":93,"time_elapsed":1256844,"internal_node_id":"0.0-89.0","task_version":"0.2","interactions":"[]"}]