[{"view_history":"[{\"page_index\":0,\"viewing_time\":4976.020000001881}]","rt":4976.685000001453,"trial_type":"instructions","trial_index":0,"time_elapsed":4983,"internal_node_id":"0.0-0.0","task_version":"0.2"},{"item_order":[15,0,3,5,11,2,9,4,7,6,14,10,13,1,12,8],"responses":{"Q16":"5","Q01":"3","Q04":"4","Q06":"3","Q12":"3","Q03":"4","Q10":"4","Q05":"3","Q08":"5","Q07":"5","Q15":"3","Q11":"3","Q14":"2","Q02":"2","Q13":"4","Q09":"4"},"radio_events":[11053.670000008424,16079.545000000508,29626.785000000382,41047.90000000503,50569.44000000658,55556.31500000891,67061.07500000508,78878.68999999773,87131.69000000926,91857.46500000823,97266.95499999914,106151.58499999961,118758.11500000418,124950.40499999595,130504.9399999989,140623.99000000732],"key_events":[],"mouse_events":[0.295000005280599,11053.670000008424,16079.545000000508,29626.785000000382,41047.90000000503,50569.44000000658,55556.31500000891,67061.07500000508,78878.68999999773,87131.69000000926,91857.46500000823,97266.95499999914,106151.58499999961,118758.11500000418,124950.40499999595,130504.9399999989,140623.99000000732,142096.74000000814],"rt":142099.56000000238,"survey":"nfc","trial_type":"survey-template","trial_index":1,"time_elapsed":147088,"internal_node_id":"0.0-1.0","task_version":"0.2"},{"item_order":[7,1,8,2,3,9,0,5,6,4,11,12,10],"responses":{"Q08":"2","Q02":"3","Q09":"2","Q03":"1","Q04":"3","Q10":"1","Q01":"1","Q06":"1","Q07":"2","Q05":"2","Q12":"1","Q13":"4","Q11":"3"},"radio_events":[28736.864999998943,33952.87500000268,41544.93000000366,46969.0499999997,54353.195000003325,64056.81500000355,71400.77500000189,76536.73999999592,86584.72499999334,88840.63999999489,101064.5199999999,109896.51999999478,113808.64499999734,119304.55499999516],"key_events":[],"mouse_events":[28736.864999998943,33952.87500000268,41544.93000000366,46969.0499999997,54353.195000003325,64056.81500000355,71400.77500000189,76536.73999999592,86584.72499999334,88840.63999999489,101064.5199999999,109896.51999999478,113808.64499999734,119304.55499999516,121472.68500000064],"rt":121474.41999999864,"survey":"ius12","trial_type":"survey-template","trial_index":2,"time_elapsed":268566,"internal_node_id":"0.0-2.0","task_version":"0.2"},{"item_order":[1,5,3,13,8,16,2,0,6,10,7,4,15,12,11,9,14],"responses":{"Q02":"1","Q06":"1","Q04":"0","Q14":"0","Q09":"0","Q17":"0","Q03":"2","Q01":"2","Q07":"0","Q11":"0","Q08":"3","Q05":"1","Q16":"2","Q13":"0","Q12":"0","Q10":"1","Q15":"0"},"radio_events":[8538.274999998976,16370.154999996885,23002.19999998808,26458.159999994677,27642.244999995455,32170.27999999118,41162.11999999359,44554.22499999986,56234.05499999353,67186.1099999951,73426.02499999339,81378.08999999834,88209.81000000029,93729.98499999812,98313.98500000068,103481.93499998888,107834.15999999852,114666.31999998935,123249.75999999151],"key_events":[],"mouse_events":[8538.274999998976,16370.154999996885,23002.19999998808,26458.159999994677,27642.244999995455,32170.27999999118,41162.11999999359,44554.22499999986,56234.05499999353,67186.1099999951,73426.02499999339,80586.14499999385,81378.08999999834,88209.81000000029,93729.98499999812,98313.98500000068,103481.93499998888,107834.15999999852,114666.31999998935,123249.75999999151,125130.5549999961],"rt":125132.8899999935,"survey":"pswq","trial_type":"survey-template","trial_index":3,"time_elapsed":393703,"internal_node_id":"0.0-3.0","task_version":"0.2"},{"view_history":"[{\"page_index\":0,\"viewing_time\":10354.26500000176},{\"page_index\":1,\"viewing_time\":11303.814999992028},{\"page_index\":2,\"viewing_time\":19624.525000006543},{\"page_index\":3,\"viewing_time\":22527.2549999936},{\"page_index\":4,\"viewing_time\":11696.020000003045},{\"page_index\":5,\"viewing_time\":14335.955000002286},{\"page_index\":6,\"viewing_time\":16719.935000000987},{\"page_index\":7,\"viewing_time\":17519.939999998314},{\"page_index\":8,\"viewing_time\":17279.900000008638},{\"page_index\":9,\"viewing_time\":13239.924999987124}]","rt":154601.8449999974,"trial_type":"instructions","trial_index":4,"time_elapsed":548306,"internal_node_id":"0.0-4.0-0.0","task_version":"0.2"},{"response_times":[5120.355000006384,2075.06000000285,1983.2800000003772,2942.3249999963446,2659.57500001241],"keys_pressed":["rightarrow","leftarrow","rightarrow","rightarrow","leftarrow"],"horizon":5,"forced_choices":["rightarrow","leftarrow","rightarrow","rightarrow"],"right_color":"lightblue","left_color":"orange","left_mu":40,"right_mu":20,"left_numbers":[24,60,39,41,37],"right_numbers":[30,10,14,4,26],"points_earned":145,"phase":"practice","trial_type":"horizons-task","trial_index":5,"time_elapsed":564595,"internal_node_id":"0.0-4.0-1.0","task_version":"0.2"},{"response_times":[2013.3849999983795,2447.4999999947613,997.7450000005774,1057.1000000054482,5301.380000004428,2539.6600000094622,946.2550000025658,674.2649999941932,595.0549999979557,1523.0350000056205],"keys_pressed":["leftarrow","leftarrow","rightarrow","rightarrow","rightarrow","rightarrow","rightarrow","rightarrow","rightarrow","rightarrow"],"horizon":10,"forced_choices":["leftarrow","leftarrow","rightarrow","rightarrow"],"right_color":"orange","left_color":"lightblue","left_mu":60,"right_mu":70,"left_numbers":[50,56,67,52,54,59,82,50,56,61],"right_numbers":[65,91,73,74,74,62,77,68,74,66],"points_earned":674,"phase":"practice","trial_type":"horizons-task","trial_index":6,"time_elapsed":584194,"internal_node_id":"0.0-4.0-2.0","task_version":"0.2"},{"view_history":"[{\"page_index\":0,\"viewing_time\":27398.829999990994},{\"page_index\":1,\"viewing_time\":4807.905000008759},{\"page_index\":2,\"viewing_time\":6112.179999996442},{\"page_index\":3,\"viewing_time\":6527.610000004643}]","rt":44846.804999993765,"trial_type":"instructions","trial_index":7,"time_elapsed":629041,"internal_node_id":"0.0-4.0-3.0","task_version":"0.2"},{"responses":["true","false","true"],"num_errors":0,"rt":19190.64499999513,"trial_type":"horizons-comprehension","trial_index":8,"time_elapsed":648234,"internal_node_id":"0.0-4.0-4.0","task_version":"0.2"},{"trial_type":"call-function","trial_index":9,"time_elapsed":648237,"internal_node_id":"0.0-5.0","task_version":"0.2"},{"view_history":"[{\"page_index\":0,\"viewing_time\":2019.9799999973038},{\"page_index\":1,\"viewing_time\":7447.815000006813}]","rt":9468.1050000072,"trial_type":"instructions","trial_index":10,"time_elapsed":657705,"internal_node_id":"0.0-6.0","task_version":"0.2"},{"response_times":[3529.289999991306,654.2199999967124,544.739999997546,1189.9799999955576,1943.5950000042794],"keys_pressed":["rightarrow","leftarrow","rightarrow","leftarrow","rightarrow"],"horizon":5,"forced_choices":["rightarrow","leftarrow","rightarrow","leftarrow"],"right_color":"lightblue","left_color":"orange","left_mu":40,"right_mu":70,"left_numbers":[33,42,37,47,28],"right_numbers":[67,79,77,74,76],"points_earned":309,"phase":"task","trial_type":"horizons-task","trial_index":11,"time_elapsed":667073,"internal_node_id":"0.0-7.0","task_version":"0.2"},{"response_times":[975.4499999980908,706.3950000010664,745.6249999959255,1118.5200000036275,1924.509999997099],"keys_pressed":["leftarrow","rightarrow","leftarrow","rightarrow","rightarrow"],"horizon":5,"forced_choices":["leftarrow","rightarrow","leftarrow","rightarrow"],"right_color":"orange","left_color":"lightblue","left_mu":40,"right_mu":44,"left_numbers":[44,53,38,26,50],"right_numbers":[46,40,54,57,47],"points_earned":226,"phase":"task","trial_type":"horizons-task","trial_index":12,"time_elapsed":674047,"internal_node_id":"0.0-8.0","task_version":"0.2"},{"response_times":[946.4399999997113,503.94999999844003,644.2099999985658,534.6200000058161,3244.5949999964796,806.8199999979697,563.8449999969453,625.0449999934062,533.595000000787,533.6699999897974],"keys_pressed":["rightarrow","leftarrow","rightarrow","leftarrow","leftarrow","leftarrow","leftarrow","leftarrow","leftarrow","leftarrow"],"horizon":10,"forced_choices":["rightarrow","leftarrow","rightarrow","leftarrow"],"right_color":"orange","left_color":"lightblue","left_mu":60,"right_mu":30,"left_numbers":[67,64,72,47,67,56,72,46,59,57],"right_numbers":[14,25,35,31,33,30,26,36,23,17],"points_earned":517,"phase":"task","trial_type":"horizons-task","trial_index":13,"time_elapsed":684486,"internal_node_id":"0.0-9.0","task_version":"0.2"},{"response_times":[1208.7099999916973,1260.535000008531,839.1600000031758,1147.979999994277,1401.4200000092387],"keys_pressed":["leftarrow","leftarrow","rightarrow","rightarrow","rightarrow"],"horizon":5,"forced_choices":["leftarrow","leftarrow","rightarrow","rightarrow"],"right_color":"orange","left_color":"lightblue","left_mu":40,"right_mu":52,"left_numbers":[43,38,46,36,48],"right_numbers":[52,52,42,51,40],"points_earned":214,"phase":"task","trial_type":"horizons-task","trial_index":14,"time_elapsed":691846,"internal_node_id":"0.0-10.0","task_version":"0.2"},{"response_times":[1037.1400000003632,775.9999999980209,738.3499999996275,1661.0700000019278,1593.1600000039907],"keys_pressed":["rightarrow","leftarrow","leftarrow","leftarrow","leftarrow"],"horizon":5,"forced_choices":["rightarrow","leftarrow","leftarrow","leftarrow"],"right_color":"lightblue","left_color":"orange","left_mu":60,"right_mu":40,"left_numbers":[51,56,43,60,57],"right_numbers":[37,45,23,40,45],"points_earned":253,"phase":"task","trial_type":"horizons-task","trial_index":15,"time_elapsed":699160,"internal_node_id":"0.0-11.0","task_version":"0.2"},{"response_times":[2451.954999996815,4746.664999998757,865.3250000061234,2691.244999994524,2357.9500000050757],"keys_pressed":["leftarrow","leftarrow","rightarrow","leftarrow","rightarrow"],"horizon":5,"forced_choices":["leftarrow","leftarrow","rightarrow","leftarrow"],"right_color":"orange","left_color":"lightblue","left_mu":40,"right_mu":52,"left_numbers":[40,31,45,37,35],"right_numbers":[53,53,48,49,46],"points_earned":202,"phase":"task","trial_type":"horizons-task","trial_index":16,"time_elapsed":713776,"internal_node_id":"0.0-12.0","task_version":"0.2"},{"response_times":[8929.199999998673,623.6899999930756,636.2050000025192,775.6700000027195,1964.8100000049453,706.3800000032643,573.7599999993108,473.2850000000326,423.02999999083113,463.07499999238644],"keys_pressed":["leftarrow","rightarrow","leftarrow","leftarrow","rightarrow","rightarrow","rightarrow","rightarrow","rightarrow","rightarrow"],"horizon":10,"forced_choices":["leftarrow","rightarrow","leftarrow","leftarrow"],"right_color":"lightblue","left_color":"orange","left_mu":60,"right_mu":90,"left_numbers":[66,75,76,63,67,69,56,49,72,71],"right_numbers":[92,86,101,82,104,87,96,90,102,87],"points_earned":857,"phase":"task","trial_type":"horizons-task","trial_index":17,"time_elapsed":730848,"internal_node_id":"0.0-13.0","task_version":"0.2"},{"response_times":[745.344999988447,715.41000000434,594.9649999965914,625.4699999990407,1540.9199999994598,1621.6249999997672,614.0350000059698,474.2800000094576,392.81999999366235,514.6749999985332],"keys_pressed":["leftarrow","leftarrow","leftarrow","rightarrow","leftarrow","rightarrow","leftarrow","leftarrow","leftarrow","leftarrow"],"horizon":10,"forced_choices":["leftarrow","leftarrow","leftarrow","rightarrow"],"right_color":"lightblue","left_color":"orange","left_mu":40,"right_mu":32,"left_numbers":[42,29,49,50,35,43,40,43,39,52],"right_numbers":[38,23,25,24,23,20,46,30,34,26],"points_earned":373,"phase":"task","trial_type":"horizons-task","trial_index":18,"time_elapsed":740189,"internal_node_id":"0.0-14.0","task_version":"0.2"},{"response_times":[795.960000003106,503.4750000049826,524.5500000019092,685.4300000122748,3153.4800000081304,1793.5949999955483,604.7799999942072,604.0099999954691,433.12000000150874,393.83499999530613],"keys_pressed":["leftarrow","rightarrow","leftarrow","rightarrow","leftarrow","rightarrow","leftarrow","leftarrow","leftarrow","leftarrow"],"horizon":10,"forced_choices":["leftarrow","rightarrow","leftarrow","rightarrow"],"right_color":"orange","left_color":"lightblue","left_mu":60,"right_mu":56,"left_numbers":[73,56,57,52,60,56,78,62,58,47],"right_numbers":[45,45,60,61,53,48,71,62,60,54],"points_earned":589,"phase":"task","trial_type":"horizons-task","trial_index":19,"time_elapsed":751184,"internal_node_id":"0.0-15.0","task_version":"0.2"},{"response_times":[987.2050000121817,685.3949999931501,483.36499999277294,796.8949999922188,895.2900000003865],"keys_pressed":["rightarrow","leftarrow","rightarrow","rightarrow","rightarrow"],"horizon":5,"forced_choices":["rightarrow","leftarrow","rightarrow","rightarrow"],"right_color":"orange","left_color":"lightblue","left_mu":60,"right_mu":72,"left_numbers":[49,58,67,50,42],"right_numbers":[63,78,80,56,78],"points_earned":335,"phase":"task","trial_type":"horizons-task","trial_index":20,"time_elapsed":756535,"internal_node_id":"0.0-16.0","task_version":"0.2"},{"response_times":[655.4999999934807,613.9400000101887,463.20499999274034,685.3499999997439,3326.0050000099,675.2550000092015,614.0699999959907,986.975000007078,1109.0149999945424,3305.785000004107],"keys_pressed":["leftarrow","leftarrow","rightarrow","rightarrow","leftarrow","leftarrow","leftarrow","rightarrow","leftarrow","leftarrow"],"horizon":10,"forced_choices":["leftarrow","leftarrow","rightarrow","rightarrow"],"right_color":"orange","left_color":"lightblue","left_mu":40,"right_mu":28,"left_numbers":[39,43,36,53,45,45,29,45,33,45],"right_numbers":[31,41,28,25,21,14,28,38,31,25],"points_earned":370,"phase":"task","trial_type":"horizons-task","trial_index":21,"time_elapsed":770479,"internal_node_id":"0.0-17.0","task_version":"0.2"},{"response_times":[2834.0599999937695,464.1949999931967,563.7950000091223,1904.7849999915343,1259.5650000002934],"keys_pressed":["rightarrow","leftarrow","leftarrow","rightarrow","leftarrow"],"horizon":5,"forced_choices":["rightarrow","leftarrow","leftarrow","rightarrow"],"right_color":"lightblue","left_color":"orange","left_mu":40,"right_mu":20,"left_numbers":[34,25,37,33,45],"right_numbers":[17,37,34,17,13],"points_earned":141,"phase":"task","trial_type":"horizons-task","trial_index":22,"time_elapsed":779008,"internal_node_id":"0.0-18.0","task_version":"0.2"},{"response_times":[642.584999994142,535.4800000059186,482.5399999972433,857.4299999891082,1622.3800000007031],"keys_pressed":["rightarrow","leftarrow","leftarrow","leftarrow","rightarrow"],"horizon":5,"forced_choices":["rightarrow","leftarrow","leftarrow","leftarrow"],"right_color":"orange","left_color":"lightblue","left_mu":40,"right_mu":44,"left_numbers":[36,38,43,40,40],"right_numbers":[54,37,32,39,43],"points_earned":218,"phase":"task","trial_type":"horizons-task","trial_index":23,"time_elapsed":784653,"internal_node_id":"0.0-19.0","task_version":"0.2"},{"response_times":[935.9850000037113,564.9049999919953,525.6950000039069,545.8349999971688,2458.1449999968754,1451.0350000055041,413.1200000119861,926.7700000054901,1229.2299999971874,5413.824999995995],"keys_pressed":["rightarrow","rightarrow","leftarrow","leftarrow","rightarrow","rightarrow","leftarrow","rightarrow","leftarrow","rightarrow"],"horizon":10,"forced_choices":["rightarrow","rightarrow","leftarrow","leftarrow"],"right_color":"orange","left_color":"lightblue","left_mu":40,"right_mu":48,"left_numbers":[51,40,49,30,33,53,35,34,45,58],"right_numbers":[54,48,46,45,36,56,58,38,54,59],"points_earned":450,"phase":"task","trial_type":"horizons-task","trial_index":24,"time_elapsed":800620,"internal_node_id":"0.0-20.0","task_version":"0.2"},{"response_times":[865.590000001248,474.71999999834225,624.0900000120746,574.0999999979977,2772.694999992382,533.7450000079116,615.3149999881862,503.5350000107428,484.5749999949476,433.2949999952689],"keys_pressed":["leftarrow","rightarrow","rightarrow","rightarrow","rightarrow","leftarrow","leftarrow","leftarrow","leftarrow","leftarrow"],"horizon":10,"forced_choices":["leftarrow","rightarrow","rightarrow","rightarrow"],"right_color":"lightblue","left_color":"orange","left_mu":60,"right_mu":48,"left_numbers":[61,61,56,61,50,55,57,64,57,60],"right_numbers":[41,54,49,56,41,52,44,45,49,60],"points_earned":554,"phase":"task","trial_type":"horizons-task","trial_index":25,"time_elapsed":810005,"internal_node_id":"0.0-21.0","task_version":"0.2"},{"response_times":[1257.8349999967031,574.9999999970896,544.7849999909522,543.9699999988079,1240.5549999966752],"keys_pressed":["rightarrow","rightarrow","leftarrow","rightarrow","rightarrow"],"horizon":5,"forced_choices":["rightarrow","rightarrow","leftarrow","rightarrow"],"right_color":"lightblue","left_color":"orange","left_mu":40,"right_mu":70,"left_numbers":[45,39,22,40,46],"right_numbers":[76,70,70,94,55],"points_earned":317,"phase":"task","trial_type":"horizons-task","trial_index":26,"time_elapsed":815669,"internal_node_id":"0.0-22.0","task_version":"0.2"},{"response_times":[886.0600000043632,544.899999993504,775.8400000020629,2691.1899999977322,3234.9249999970198],"keys_pressed":["leftarrow","rightarrow","rightarrow","rightarrow","leftarrow"],"horizon":5,"forced_choices":["leftarrow","rightarrow","rightarrow","rightarrow"],"right_color":"lightblue","left_color":"orange","left_mu":60,"right_mu":64,"left_numbers":[66,66,57,61,57],"right_numbers":[72,62,54,58,59],"points_earned":297,"phase":"task","trial_type":"horizons-task","trial_index":27,"time_elapsed":825305,"internal_node_id":"0.0-23.0","task_version":"0.2"},{"response_times":[694.935000006808,514.420000006794,684.6499999955995,817.2150000027614,2116.9599999993807,553.845000002184,534.5750000124099,684.5300000131829,374.165000001085,302.1850000077393],"keys_pressed":["rightarrow","rightarrow","rightarrow","leftarrow","leftarrow","leftarrow","leftarrow","rightarrow","leftarrow","leftarrow"],"horizon":10,"forced_choices":["rightarrow","rightarrow","rightarrow","leftarrow"],"right_color":"orange","left_color":"lightblue","left_mu":60,"right_mu":30,"left_numbers":[60,63,61,62,62,51,61,73,48,64],"right_numbers":[33,37,39,37,41,24,17,21,30,29],"points_earned":478,"phase":"task","trial_type":"horizons-task","trial_index":28,"time_elapsed":834085,"internal_node_id":"0.0-24.0","task_version":"0.2"},{"response_times":[951.4150000031805,474.3400000006659,533.7100000033388,543.7850000016624,1682.7049999992596],"keys_pressed":["leftarrow","rightarrow","leftarrow","leftarrow","leftarrow"],"horizon":5,"forced_choices":["leftarrow","rightarrow","leftarrow","leftarrow"],"right_color":"lightblue","left_color":"orange","left_mu":40,"right_mu":36,"left_numbers":[50,32,30,33,42],"right_numbers":[36,39,27,35,32],"points_earned":194,"phase":"task","trial_type":"horizons-task","trial_index":29,"time_elapsed":839778,"internal_node_id":"0.0-25.0","task_version":"0.2"},{"response_times":[936.1749999952735,564.8300000029849,1147.7450000093086,2943.1800000020303,1108.4899999987101],"keys_pressed":["rightarrow","rightarrow","leftarrow","leftarrow","rightarrow"],"horizon":5,"forced_choices":["rightarrow","rightarrow","leftarrow","leftarrow"],"right_color":"orange","left_color":"lightblue","left_mu":40,"right_mu":48,"left_numbers":[51,34,41,42,49],"right_numbers":[38,54,33,37,55],"points_earned":230,"phase":"task","trial_type":"horizons-task","trial_index":30,"time_elapsed":847981,"internal_node_id":"0.0-26.0","task_version":"0.2"},{"response_times":[775.0150000065332,464.38999999372754,604.010000010021,544.7449999919627,1331.0250000067754,564.9350000021514,433.1650000094669,372.93499999213964,352.79000000446104,312.62499999138527],"keys_pressed":["rightarrow","rightarrow","leftarrow","rightarrow","rightarrow","rightarrow","rightarrow","rightarrow","rightarrow","rightarrow"],"horizon":10,"forced_choices":["rightarrow","rightarrow","leftarrow","rightarrow"],"right_color":"lightblue","left_color":"orange","left_mu":40,"right_mu":70,"left_numbers":[22,37,40,48,41,46,42,16,48,31],"right_numbers":[73,76,84,78,85,73,70,74,68,69],"points_earned":706,"phase":"task","trial_type":"horizons-task","trial_index":31,"time_elapsed":855239,"internal_node_id":"0.0-27.0","task_version":"0.2"},{"response_times":[1049.4349999935366,906.5899999986868,473.5099999961676,523.7199999974109,1754.0800000133459,513.4499999985565,404.5899999910034,373.5350000060862,300.12499999429565,222.67000000283588],"keys_pressed":["leftarrow","rightarrow","rightarrow","leftarrow","rightarrow","rightarrow","rightarrow","rightarrow","rightarrow","rightarrow"],"horizon":10,"forced_choices":["leftarrow","rightarrow","rightarrow","leftarrow"],"right_color":"orange","left_color":"lightblue","left_mu":60,"right_mu":72,"left_numbers":[61,62,67,67,56,53,60,59,56,68],"right_numbers":[62,73,78,77,71,64,67,71,73,66],"points_earned":691,"phase":"task","trial_type":"horizons-task","trial_index":32,"time_elapsed":863263,"internal_node_id":"0.0-28.0","task_version":"0.2"},{"response_times":[683.2649999996647,584.9250000028405,807.0149999985006,523.6149999982445,1522.3750000004657],"keys_pressed":["rightarrow","rightarrow","leftarrow","rightarrow","leftarrow"],"horizon":5,"forced_choices":["rightarrow","rightarrow","leftarrow","rightarrow"],"right_color":"lightblue","left_color":"orange","left_mu":40,"right_mu":20,"left_numbers":[46,51,53,40,37],"right_numbers":[15,25,19,14,16],"points_earned":144,"phase":"task","trial_type":"horizons-task","trial_index":33,"time_elapsed":868887,"internal_node_id":"0.0-29.0","task_version":"0.2"},{"response_times":[845.25999998732,503.5199999983888,425.19500000344124,493.5350000014296,1289.5149999967543,664.3800000019837,454.26499999302905,356.2499999970896,237.61999999987893,253.30500000563916],"keys_pressed":["rightarrow","leftarrow","rightarrow","rightarrow","rightarrow","rightarrow","rightarrow","rightarrow","rightarrow","rightarrow"],"horizon":10,"forced_choices":["rightarrow","leftarrow","rightarrow","rightarrow"],"right_color":"lightblue","left_color":"orange","left_mu":60,"right_mu":80,"left_numbers":[59,54,56,44,49,66,59,55,37,50],"right_numbers":[97,86,81,81,73,81,79,66,92,85],"points_earned":789,"phase":"task","trial_type":"horizons-task","trial_index":34,"time_elapsed":875914,"internal_node_id":"0.0-30.0","task_version":"0.2"},{"response_times":[672.1749999996973,463.3949999988545,454.4949999981327,493.4249999932945,1915.1100000017323],"keys_pressed":["leftarrow","rightarrow","leftarrow","rightarrow","leftarrow"],"horizon":5,"forced_choices":["leftarrow","rightarrow","leftarrow","rightarrow"],"right_color":"lightblue","left_color":"orange","left_mu":60,"right_mu":48,"left_numbers":[62,59,71,53,63],"right_numbers":[45,61,43,52,41],"points_earned":309,"phase":"task","trial_type":"horizons-task","trial_index":35,"time_elapsed":881415,"internal_node_id":"0.0-31.0","task_version":"0.2"},{"response_times":[816.2050000100862,524.7400000080233,493.6149999994086,1149.265000000014,1844.4050000107381],"keys_pressed":["leftarrow","rightarrow","leftarrow","leftarrow","rightarrow"],"horizon":5,"forced_choices":["leftarrow","rightarrow","leftarrow","leftarrow"],"right_color":"lightblue","left_color":"orange","left_mu":60,"right_mu":90,"left_numbers":[58,68,55,56,63],"right_numbers":[86,100,92,96,101],"points_earned":370,"phase":"task","trial_type":"horizons-task","trial_index":36,"time_elapsed":887746,"internal_node_id":"0.0-32.0","task_version":"0.2"},{"response_times":[755.3699999989476,473.454999999376,545.8700000017416,523.7550000019837,1381.1900000000605],"keys_pressed":["leftarrow","rightarrow","rightarrow","leftarrow","rightarrow"],"horizon":5,"forced_choices":["leftarrow","rightarrow","rightarrow","leftarrow"],"right_color":"orange","left_color":"lightblue","left_mu":60,"right_mu":72,"left_numbers":[48,65,69,54,62],"right_numbers":[67,60,74,81,73],"points_earned":309,"phase":"task","trial_type":"horizons-task","trial_index":37,"time_elapsed":892928,"internal_node_id":"0.0-33.0","task_version":"0.2"},{"response_times":[876.4099999971222,402.09500001219567,474.4300000020303,483.64500000025146,5100.404999990133,666.1199999944074,615.1100000133738,684.4500000006519,886.3150000106543,4786.840000000666],"keys_pressed":["leftarrow","rightarrow","leftarrow","rightarrow","leftarrow","leftarrow","rightarrow","leftarrow","rightarrow","rightarrow"],"horizon":10,"forced_choices":["leftarrow","rightarrow","leftarrow","rightarrow"],"right_color":"orange","left_color":"lightblue","left_mu":40,"right_mu":44,"left_numbers":[36,48,40,18,40,20,43,38,26,43],"right_numbers":[46,49,13,27,46,40,37,41,43,32],"points_earned":362,"phase":"task","trial_type":"horizons-task","trial_index":38,"time_elapsed":909407,"internal_node_id":"0.0-34.0","task_version":"0.2"},{"response_times":[733.8950000121258,454.41500000015367,553.8399999932153,453.2400000025518,2530.464999988908,594.1549999988638,877.665000007255,584.0400000015507,1301.019999998971,1179.2800000112038],"keys_pressed":["rightarrow","leftarrow","leftarrow","rightarrow","rightarrow","rightarrow","leftarrow","rightarrow","rightarrow","rightarrow"],"horizon":10,"forced_choices":["rightarrow","leftarrow","leftarrow","rightarrow"],"right_color":"lightblue","left_color":"orange","left_mu":60,"right_mu":80,"left_numbers":[60,57,61,56,53,71,61,68,54,58],"right_numbers":[74,81,78,86,81,66,75,76,82,77],"points_earned":721,"phase":"task","trial_type":"horizons-task","trial_index":39,"time_elapsed":920172,"internal_node_id":"0.0-35.0","task_version":"0.2"},{"response_times":[876.7700000025798,382.6250000129221,453.5150000010617,686.5399999951478,2065.9449999948265,584.099999992759,716.7200000112643,496.53000000398606,4965.635000000475,927.6800000079675],"keys_pressed":["leftarrow","rightarrow","leftarrow","leftarrow","rightarrow","rightarrow","leftarrow","rightarrow","rightarrow","leftarrow"],"horizon":10,"forced_choices":["leftarrow","rightarrow","leftarrow","leftarrow"],"right_color":"lightblue","left_color":"orange","left_mu":40,"right_mu":36,"left_numbers":[28,38,29,37,46,34,35,45,41,36],"right_numbers":[50,40,17,36,40,21,39,41,38,42],"points_earned":345,"phase":"task","trial_type":"horizons-task","trial_index":40,"time_elapsed":933830,"internal_node_id":"0.0-36.0","task_version":"0.2"},{"response_times":[3366.314999992028,423.1549999967683,414.05000000668224,422.03499999595806,2077.2149999975227,504.6850000071572,906.5200000040932,462.8499999962514,727.324999999837,735.3949999960605],"keys_pressed":["rightarrow","leftarrow","rightarrow","leftarrow","rightarrow","rightarrow","leftarrow","rightarrow","rightarrow","rightarrow"],"horizon":10,"forced_choices":["rightarrow","leftarrow","rightarrow","leftarrow"],"right_color":"lightblue","left_color":"orange","left_mu":60,"right_mu":64,"left_numbers":[65,59,67,60,47,65,55,32,80,54],"right_numbers":[70,65,69,72,76,54,67,64,65,58],"points_earned":630,"phase":"task","trial_type":"horizons-task","trial_index":41,"time_elapsed":945384,"internal_node_id":"0.0-37.0","task_version":"0.2"},{"response_times":[745.9249999956228,776.2350000120932,604.0550000034273,1281.1450000008335,1137.9549999983283],"keys_pressed":["leftarrow","leftarrow","rightarrow","leftarrow","rightarrow"],"horizon":5,"forced_choices":["leftarrow","leftarrow","rightarrow","leftarrow"],"right_color":"orange","left_color":"lightblue","left_mu":60,"right_mu":68,"left_numbers":[68,59,54,61,70],"right_numbers":[76,60,73,72,73],"points_earned":334,"phase":"task","trial_type":"horizons-task","trial_index":42,"time_elapsed":951431,"internal_node_id":"0.0-38.0","task_version":"0.2"},{"response_times":[1342.4700000032317,624.0150000085123,654.5350000087637,575.1049999962561,1533.1950000108918,594.3199999892386,543.8649999996414,625.3649999998743,1683.149999997113,2593.345000001136],"keys_pressed":["leftarrow","rightarrow","rightarrow","rightarrow","rightarrow","rightarrow","leftarrow","rightarrow","leftarrow","rightarrow"],"horizon":10,"forced_choices":["leftarrow","rightarrow","rightarrow","rightarrow"],"right_color":"orange","left_color":"lightblue","left_mu":40,"right_mu":48,"left_numbers":[40,51,31,39,26,39,55,48,42,26],"right_numbers":[45,62,55,61,54,43,36,29,51,45],"points_earned":486,"phase":"task","trial_type":"horizons-task","trial_index":43,"time_elapsed":963703,"internal_node_id":"0.0-39.0","task_version":"0.2"},{"response_times":[1007.4100000056205,535.0000000034925,483.5999999922933,715.0050000054762,2834.579999995185],"keys_pressed":["leftarrow","leftarrow","rightarrow","rightarrow","rightarrow"],"horizon":5,"forced_choices":["leftarrow","leftarrow","rightarrow","rightarrow"],"right_color":"lightblue","left_color":"orange","left_mu":60,"right_mu":52,"left_numbers":[55,69,55,61,56],"right_numbers":[46,30,65,62,44],"points_earned":295,"phase":"task","trial_type":"horizons-task","trial_index":44,"time_elapsed":970781,"internal_node_id":"0.0-40.0","task_version":"0.2"},{"response_times":[826.6250000015134,635.5599999951664,2086.264999990817,654.7549999959301,7460.930000001099],"keys_pressed":["rightarrow","leftarrow","leftarrow","rightarrow","rightarrow"],"horizon":5,"forced_choices":["rightarrow","leftarrow","leftarrow","rightarrow"],"right_color":"orange","left_color":"lightblue","left_mu":60,"right_mu":68,"left_numbers":[56,64,60,47,76],"right_numbers":[61,62,71,68,74],"points_earned":327,"phase":"task","trial_type":"horizons-task","trial_index":45,"time_elapsed":983948,"internal_node_id":"0.0-41.0","task_version":"0.2"},{"response_times":[2178.2099999982165,454.4399999867892,502.61999999929685,564.16999999783,1503.1050000106916],"keys_pressed":["leftarrow","leftarrow","rightarrow","rightarrow","leftarrow"],"horizon":5,"forced_choices":["leftarrow","leftarrow","rightarrow","rightarrow"],"right_color":"orange","left_color":"lightblue","left_mu":40,"right_mu":28,"left_numbers":[44,56,16,48,39],"right_numbers":[32,43,36,34,13],"points_earned":209,"phase":"task","trial_type":"horizons-task","trial_index":46,"time_elapsed":990653,"internal_node_id":"0.0-42.0","task_version":"0.2"},{"response_times":[645.4950000043027,493.5949999926379,443.32000000576954,473.8000000070315,1694.1100000112783,574.9349999969127,473.45999999379274,433.3150000020396,371.97000000742264,322.65500001085456],"keys_pressed":["rightarrow","leftarrow","rightarrow","leftarrow","rightarrow","rightarrow","rightarrow","rightarrow","rightarrow","rightarrow"],"horizon":10,"forced_choices":["rightarrow","leftarrow","rightarrow","leftarrow"],"right_color":"lightblue","left_color":"orange","left_mu":40,"right_mu":70,"left_numbers":[38,39,38,48,46,38,44,30,14,38],"right_numbers":[64,69,79,72,83,76,74,63,56,68],"points_earned":650,"phase":"task","trial_type":"horizons-task","trial_index":47,"time_elapsed":998083,"internal_node_id":"0.0-43.0","task_version":"0.2"},{"response_times":[766.0800000012387,371.95500000962056,474.7449999995297,493.37999999988824,2771.8750000058208],"keys_pressed":["leftarrow","rightarrow","rightarrow","leftarrow","leftarrow"],"horizon":5,"forced_choices":["leftarrow","rightarrow","rightarrow","leftarrow"],"right_color":"lightblue","left_color":"orange","left_mu":40,"right_mu":32,"left_numbers":[34,39,22,28,43],"right_numbers":[24,21,29,30,30],"points_earned":155,"phase":"task","trial_type":"horizons-task","trial_index":48,"time_elapsed":1004464,"internal_node_id":"0.0-44.0","task_version":"0.2"},{"response_times":[664.7399999928894,453.29999999376014,524.9350000085542,1632.9899999982445,767.054999989341],"keys_pressed":["leftarrow","leftarrow","leftarrow","rightarrow","leftarrow"],"horizon":5,"forced_choices":["leftarrow","leftarrow","leftarrow","rightarrow"],"right_color":"lightblue","left_color":"orange","left_mu":40,"right_mu":32,"left_numbers":[47,41,38,41,53],"right_numbers":[18,35,32,21,44],"points_earned":200,"phase":"task","trial_type":"horizons-task","trial_index":49,"time_elapsed":1010010,"internal_node_id":"0.0-45.0","task_version":"0.2"},{"response_times":[865.7999999995809,525.0799999921583,503.10000000172295,534.6850000059931,604.2299999971874,1783.0450000037672,1099.8249999975087,484.01499999454245,3114.014999999199,1379.2499999981374],"keys_pressed":["leftarrow","leftarrow","leftarrow","rightarrow","leftarrow","leftarrow","leftarrow","rightarrow","leftarrow","rightarrow"],"horizon":10,"forced_choices":["leftarrow","leftarrow","leftarrow","rightarrow"],"right_color":"orange","left_color":"lightblue","left_mu":60,"right_mu":56,"left_numbers":[45,67,47,73,57,67,63,51,65,62],"right_numbers":[65,62,37,51,51,70,68,63,66,72],"points_earned":597,"phase":"task","trial_type":"horizons-task","trial_index":50,"time_elapsed":1022405,"internal_node_id":"0.0-46.0","task_version":"0.2"},{"view_history":"[{\"page_index\":0,\"viewing_time\":5334.7499999945285},{\"page_index\":1,\"viewing_time\":6290.0250000093365}]","rt":11625.199999994948,"trial_type":"instructions","trial_index":51,"time_elapsed":1034032,"internal_node_id":"0.0-47.0","task_version":"0.2"},{"response_times":[1509.539999999106,401.94499999051914,454.33999999659136,776.159999993979,857.6699999975972],"keys_pressed":["leftarrow","rightarrow","rightarrow","leftarrow","rightarrow"],"horizon":5,"forced_choices":["leftarrow","rightarrow","rightarrow","leftarrow"],"right_color":"orange","left_color":"lightblue","left_mu":40,"right_mu":60,"left_numbers":[28,49,47,31,33],"right_numbers":[64,48,60,67,66],"points_earned":233,"phase":"task","trial_type":"horizons-task","trial_index":52,"time_elapsed":1039537,"internal_node_id":"0.0-48.0","task_version":"0.2"},{"response_times":[786.5500000043539,413.02000000700355,533.7849999924656,523.7399999895133,1592.5350000034086,533.6399999943096,513.8200000075158,503.7000000011176,363.8150000041351,261.43499999307096],"keys_pressed":["rightarrow","rightarrow","leftarrow","leftarrow","rightarrow","rightarrow","rightarrow","rightarrow","rightarrow","rightarrow"],"horizon":10,"forced_choices":["rightarrow","rightarrow","leftarrow","leftarrow"],"right_color":"lightblue","left_color":"orange","left_mu":60,"right_mu":90,"left_numbers":[56,70,65,74,65,62,63,62,47,65],"right_numbers":[103,98,93,78,79,99,85,93,91,95],"points_earned":882,"phase":"task","trial_type":"horizons-task","trial_index":53,"time_elapsed":1047064,"internal_node_id":"0.0-49.0","task_version":"0.2"},{"response_times":[697.7449999975506,555.5650000022724,1078.2749999924563,493.6549999983981,2691.6649999911897,776.1549999997951,1411.799999987008,746.0050000082701,1129.1950000014622,503.7450000089593],"keys_pressed":["rightarrow","leftarrow","leftarrow","rightarrow","rightarrow","leftarrow","rightarrow","leftarrow","leftarrow","rightarrow"],"horizon":10,"forced_choices":["rightarrow","leftarrow","leftarrow","rightarrow"],"right_color":"lightblue","left_color":"orange","left_mu":40,"right_mu":36,"left_numbers":[55,48,27,35,34,50,56,30,36,29],"right_numbers":[32,32,42,36,36,35,38,47,33,26],"points_earned":359,"phase":"task","trial_type":"horizons-task","trial_index":54,"time_elapsed":1058651,"internal_node_id":"0.0-50.0","task_version":"0.2"},{"response_times":[1209.2199999899603,362.9150000051595,484.6550000074785,402.06999999657273,2036.6150000046473],"keys_pressed":["leftarrow","rightarrow","leftarrow","rightarrow","leftarrow"],"horizon":5,"forced_choices":["leftarrow","rightarrow","leftarrow","rightarrow"],"right_color":"orange","left_color":"lightblue","left_mu":60,"right_mu":56,"left_numbers":[68,57,57,67,69],"right_numbers":[55,50,51,51,35],"points_earned":295,"phase":"task","trial_type":"horizons-task","trial_index":55,"time_elapsed":1064649,"internal_node_id":"0.0-51.0","task_version":"0.2"},{"response_times":[877.495000008028,453.5150000010617,544.9600000136998,413.25499999220483,1582.620000001043,1138.5049999952316,938.344999987632,726.0150000073481,745.4800000120886,373.5049999959301],"keys_pressed":["rightarrow","leftarrow","leftarrow","rightarrow","leftarrow","leftarrow","rightarrow","leftarrow","leftarrow","leftarrow"],"horizon":10,"forced_choices":["rightarrow","leftarrow","leftarrow","rightarrow"],"right_color":"lightblue","left_color":"orange","left_mu":40,"right_mu":20,"left_numbers":[38,39,40,40,39,38,35,42,52,47],"right_numbers":[26,11,17,9,20,22,22,29,17,20],"points_earned":354,"phase":"task","trial_type":"horizons-task","trial_index":56,"time_elapsed":1073946,"internal_node_id":"0.0-52.0","task_version":"0.2"},{"response_times":[774.9650000040419,907.8550000123214,523.8049999896903,737.16000000434,1996.4150000014342],"keys_pressed":["rightarrow","rightarrow","leftarrow","leftarrow","rightarrow"],"horizon":5,"forced_choices":["rightarrow","rightarrow","leftarrow","leftarrow"],"right_color":"lightblue","left_color":"orange","left_mu":60,"right_mu":90,"left_numbers":[45,72,73,57,61],"right_numbers":[90,98,94,89,76],"points_earned":394,"phase":"task","trial_type":"horizons-task","trial_index":57,"time_elapsed":1080388,"internal_node_id":"0.0-53.0","task_version":"0.2"},{"response_times":[3490.1249999965075,585.2949999971315,493.7249999931082,2844.97000000556,10990.12499999674],"keys_pressed":["rightarrow","leftarrow","rightarrow","rightarrow","rightarrow"],"horizon":5,"forced_choices":["rightarrow","leftarrow","rightarrow","rightarrow"],"right_color":"lightblue","left_color":"orange","left_mu":60,"right_mu":80,"left_numbers":[63,56,60,63,54],"right_numbers":[67,81,74,71,81],"points_earned":349,"phase":"task","trial_type":"horizons-task","trial_index":58,"time_elapsed":1100295,"internal_node_id":"0.0-54.0","task_version":"0.2"},{"response_times":[1481.6850000061095,513.6599999968894,524.8649999992922,1401.9100000003818,1542.155000002589],"keys_pressed":["leftarrow","rightarrow","leftarrow","rightarrow","leftarrow"],"horizon":5,"forced_choices":["leftarrow","rightarrow","leftarrow","rightarrow"],"right_color":"orange","left_color":"lightblue","left_mu":40,"right_mu":10,"left_numbers":[41,24,33,43,38],"right_numbers":[16,12,12,5,2],"points_earned":129,"phase":"task","trial_type":"horizons-task","trial_index":59,"time_elapsed":1107276,"internal_node_id":"0.0-55.0","task_version":"0.2"},{"response_times":[1033.2650000054855,414.22000000602566,413.3799999982584,565.8899999982677,5068.599999998696,4102.069999993546,786.3250000083353,493.71500000404194,413.00499999476597,403.09499998693354],"keys_pressed":["leftarrow","rightarrow","leftarrow","rightarrow","rightarrow","leftarrow","leftarrow","leftarrow","leftarrow","leftarrow"],"horizon":10,"forced_choices":["leftarrow","rightarrow","leftarrow","rightarrow"],"right_color":"lightblue","left_color":"orange","left_mu":60,"right_mu":48,"left_numbers":[61,55,62,68,47,58,61,52,58,64],"right_numbers":[58,45,47,44,39,46,45,41,49,46],"points_earned":544,"phase":"task","trial_type":"horizons-task","trial_index":60,"time_elapsed":1122472,"internal_node_id":"0.0-56.0","task_version":"0.2"},{"response_times":[705.4749999952037,474.83500000089407,443.1900000052992,921.9650000014808,811.2499999988358,654.5949999997392,514.8099999933038,242.4500000050757,261.2150000059046,514.835000009276],"keys_pressed":["leftarrow","rightarrow","leftarrow","rightarrow","leftarrow","leftarrow","leftarrow","leftarrow","leftarrow","leftarrow"],"horizon":10,"forced_choices":["leftarrow","rightarrow","leftarrow","rightarrow"],"right_color":"orange","left_color":"lightblue","left_mu":40,"right_mu":10,"left_numbers":[33,41,38,32,36,44,43,37,45,40],"right_numbers":[11,7,7,14,15,2,6,14,8,12],"points_earned":337,"phase":"task","trial_type":"horizons-task","trial_index":61,"time_elapsed":1129519,"internal_node_id":"0.0-57.0","task_version":"0.2"},{"response_times":[3982.915000000503,666.7649999873247,605.1550000121351,765.3449999922886,757.8249999932013],"keys_pressed":["rightarrow","rightarrow","rightarrow","leftarrow","leftarrow"],"horizon":5,"forced_choices":["rightarrow","rightarrow","rightarrow","leftarrow"],"right_color":"orange","left_color":"lightblue","left_mu":60,"right_mu":30,"left_numbers":[56,65,64,66,70],"right_numbers":[36,38,32,29,45],"points_earned":242,"phase":"task","trial_type":"horizons-task","trial_index":62,"time_elapsed":1137799,"internal_node_id":"0.0-58.0","task_version":"0.2"},{"response_times":[826.535000000149,533.9799999929965,655.5499999956228,2106.789999990724,1734.5650000062305],"keys_pressed":["rightarrow","rightarrow","rightarrow","leftarrow","leftarrow"],"horizon":5,"forced_choices":["rightarrow","rightarrow","rightarrow","leftarrow"],"right_color":"orange","left_color":"lightblue","left_mu":40,"right_mu":10,"left_numbers":[49,54,33,41,41],"right_numbers":[18,5,1,3,10],"points_earned":106,"phase":"task","trial_type":"horizons-task","trial_index":63,"time_elapsed":1145159,"internal_node_id":"0.0-59.0","task_version":"0.2"},{"response_times":[11204.120000009425,534.6049999934621,785.2549999952316,686.424999992596,1057.3299999958836],"keys_pressed":["rightarrow","rightarrow","leftarrow","rightarrow","leftarrow"],"horizon":5,"forced_choices":["rightarrow","rightarrow","leftarrow","rightarrow"],"right_color":"orange","left_color":"lightblue","left_mu":40,"right_mu":28,"left_numbers":[40,31,34,38,42],"right_numbers":[15,22,30,5,25],"points_earned":118,"phase":"task","trial_type":"horizons-task","trial_index":64,"time_elapsed":1160929,"internal_node_id":"0.0-60.0","task_version":"0.2"},{"response_times":[2420.299999997951,545.0899999996182,473.6750000009779,754.9250000009779,1785.980000000447],"keys_pressed":["rightarrow","leftarrow","leftarrow","rightarrow","leftarrow"],"horizon":5,"forced_choices":["rightarrow","leftarrow","leftarrow","rightarrow"],"right_color":"lightblue","left_color":"orange","left_mu":40,"right_mu":36,"left_numbers":[40,38,40,35,44],"right_numbers":[33,42,41,36,40],"points_earned":191,"phase":"task","trial_type":"horizons-task","trial_index":65,"time_elapsed":1168412,"internal_node_id":"0.0-61.0","task_version":"0.2"},{"response_times":[764.5550000015646,615.3749999939464,866.5399999881629,453.3299999893643,1423.7500000016298,484.5249999924563,352.8400000068359,697.6799999976065,2249.0450000041164,846.3099999935366],"keys_pressed":["leftarrow","leftarrow","rightarrow","leftarrow","leftarrow","leftarrow","rightarrow","leftarrow","leftarrow","leftarrow"],"horizon":10,"forced_choices":["leftarrow","leftarrow","rightarrow","leftarrow"],"right_color":"orange","left_color":"lightblue","left_mu":40,"right_mu":52,"left_numbers":[50,46,41,39,35,40,34,57,44,42],"right_numbers":[36,65,34,47,52,70,39,42,60,44],"points_earned":426,"phase":"task","trial_type":"horizons-task","trial_index":66,"time_elapsed":1178668,"internal_node_id":"0.0-62.0","task_version":"0.2"},{"response_times":[662.4699999957811,432.3149999980815,473.624999998603,695.6599999975879,1078.7699999930337],"keys_pressed":["rightarrow","leftarrow","rightarrow","leftarrow","leftarrow"],"horizon":5,"forced_choices":["rightarrow","leftarrow","rightarrow","leftarrow"],"right_color":"orange","left_color":"lightblue","left_mu":60,"right_mu":30,"left_numbers":[70,59,58,73,78],"right_numbers":[24,27,36,19,13],"points_earned":270,"phase":"task","trial_type":"horizons-task","trial_index":67,"time_elapsed":1183517,"internal_node_id":"0.0-63.0","task_version":"0.2"},{"response_times":[634.4350000000559,513.0150000038557,947.2149999928661,624.4000000006054,1220.8499999977648],"keys_pressed":["leftarrow","leftarrow","leftarrow","rightarrow","rightarrow"],"horizon":5,"forced_choices":["leftarrow","leftarrow","leftarrow","rightarrow"],"right_color":"orange","left_color":"lightblue","left_mu":60,"right_mu":56,"left_numbers":[51,76,56,58,67],"right_numbers":[52,53,61,66,65],"points_earned":314,"phase":"task","trial_type":"horizons-task","trial_index":68,"time_elapsed":1188960,"internal_node_id":"0.0-64.0","task_version":"0.2"},{"response_times":[734.4600000069477,535.0349999933969,473.6399999966379,615.4050000042189,1582.8850000104867,565.1699999871198,554.0600000096019,898.1399999903515,795.4800000009127,2159.1999999945983],"keys_pressed":["leftarrow","leftarrow","rightarrow","rightarrow","leftarrow","leftarrow","leftarrow","rightarrow","leftarrow","leftarrow"],"horizon":10,"forced_choices":["leftarrow","leftarrow","rightarrow","rightarrow"],"right_color":"lightblue","left_color":"orange","left_mu":60,"right_mu":52,"left_numbers":[55,66,62,62,61,67,49,67,65,62],"right_numbers":[51,47,53,53,73,49,45,58,50,56],"points_earned":589,"phase":"task","trial_type":"horizons-task","trial_index":69,"time_elapsed":1199376,"internal_node_id":"0.0-65.0","task_version":"0.2"},{"response_times":[676.3999999966472,474.6900000027381,574.1899999992456,967.4250000098255,3267.554999998305,1392.9899999930058,564.2100000113714,877.1199999898672,694.7150000049733,495.36000000080094],"keys_pressed":["leftarrow","leftarrow","rightarrow","leftarrow","rightarrow","leftarrow","rightarrow","rightarrow","rightarrow","rightarrow"],"horizon":10,"forced_choices":["leftarrow","leftarrow","rightarrow","leftarrow"],"right_color":"orange","left_color":"lightblue","left_mu":60,"right_mu":68,"left_numbers":[66,62,64,44,44,61,60,55,67,59],"right_numbers":[64,70,73,80,64,70,65,74,69,68],"points_earned":646,"phase":"task","trial_type":"horizons-task","trial_index":70,"time_elapsed":1210863,"internal_node_id":"0.0-66.0","task_version":"0.2"},{"response_times":[987.0550000048243,524.6950000000652,554.1149999916088,554.0349999938626,1668.115000007674,1231.9200000057463,685.515000004787,494.6599999964237,473.4500000048429,272.64500000467524],"keys_pressed":["rightarrow","leftarrow","leftarrow","leftarrow","leftarrow","leftarrow","rightarrow","leftarrow","leftarrow","leftarrow"],"horizon":10,"forced_choices":["rightarrow","leftarrow","leftarrow","leftarrow"],"right_color":"lightblue","left_color":"orange","left_mu":60,"right_mu":40,"left_numbers":[48,60,51,51,71,59,55,67,49,60],"right_numbers":[35,29,36,36,44,51,38,34,44,50],"points_earned":541,"phase":"task","trial_type":"horizons-task","trial_index":71,"time_elapsed":1219812,"internal_node_id":"0.0-67.0","task_version":"0.2"},{"response_times":[716.1349999951199,564.8099999960978,474.6700000104029,554.1599999996834,1410.8400000114925,1351.555000001099,584.1500000096858,292.6699999952689,312.724999996135,393.23000000137836],"keys_pressed":["rightarrow","rightarrow","leftarrow","rightarrow","leftarrow","leftarrow","leftarrow","rightarrow","leftarrow","leftarrow"],"horizon":10,"forced_choices":["rightarrow","rightarrow","leftarrow","rightarrow"],"right_color":"lightblue","left_color":"orange","left_mu":40,"right_mu":20,"left_numbers":[60,35,34,45,43,40,41,40,50,41],"right_numbers":[15,14,28,12,0,4,23,21,7,20],"points_earned":311,"phase":"task","trial_type":"horizons-task","trial_index":72,"time_elapsed":1227969,"internal_node_id":"0.0-68.0","task_version":"0.2"},{"response_times":[564.1599999943282,523.7650000054855,514.9300000048243,463.6949999984354,1584.2149999954272,947.2749999987427,493.6849999940023,515.110000007553,403.3199999977369,383.07499999087304],"keys_pressed":["rightarrow","leftarrow","leftarrow","rightarrow","rightarrow","leftarrow","rightarrow","rightarrow","rightarrow","rightarrow"],"horizon":10,"forced_choices":["rightarrow","leftarrow","leftarrow","rightarrow"],"right_color":"orange","left_color":"lightblue","left_mu":60,"right_mu":68,"left_numbers":[65,58,68,56,61,57,59,48,64,62],"right_numbers":[66,69,57,83,66,77,85,78,67,56],"points_earned":684,"phase":"task","trial_type":"horizons-task","trial_index":73,"time_elapsed":1235865,"internal_node_id":"0.0-69.0","task_version":"0.2"},{"response_times":[758.4600000118371,413.37499998905696,564.1899999899324,757.43999998644,1704.0899999991525,523.7950000008568,483.69999999715947,273.7900000065565,251.105000003241,222.19999998924322],"keys_pressed":["leftarrow","rightarrow","rightarrow","leftarrow","rightarrow","rightarrow","rightarrow","rightarrow","rightarrow","rightarrow"],"horizon":10,"forced_choices":["leftarrow","rightarrow","rightarrow","leftarrow"],"right_color":"orange","left_color":"lightblue","left_mu":40,"right_mu":60,"left_numbers":[34,41,39,34,32,41,39,34,40,25],"right_numbers":[55,50,58,52,73,66,74,51,59,62],"points_earned":561,"phase":"task","trial_type":"horizons-task","trial_index":74,"time_elapsed":1243319,"internal_node_id":"0.0-70.0","task_version":"0.2"},{"response_times":[807.1049999999814,727.0450000069104,665.7200000043958,1027.7199999983422,2037.559999997029],"keys_pressed":["rightarrow","leftarrow","leftarrow","rightarrow","rightarrow"],"horizon":5,"forced_choices":["rightarrow","leftarrow","leftarrow","rightarrow"],"right_color":"lightblue","left_color":"orange","left_mu":60,"right_mu":80,"left_numbers":[56,59,65,62,52],"right_numbers":[76,74,66,78,79],"points_earned":357,"phase":"task","trial_type":"horizons-task","trial_index":75,"time_elapsed":1250087,"internal_node_id":"0.0-71.0","task_version":"0.2"},{"response_times":[1411.5500000042375,826.734999995213,594.4000000017695,645.8000000128523,3337.2799999923445,544.7849999910686,967.4399999929592,1119.1949999919161,493.73500001081266,514.7450000075623],"keys_pressed":["rightarrow","leftarrow","leftarrow","leftarrow","leftarrow","rightarrow","leftarrow","leftarrow","rightarrow","rightarrow"],"horizon":10,"forced_choices":["rightarrow","leftarrow","leftarrow","leftarrow"],"right_color":"orange","left_color":"lightblue","left_mu":40,"right_mu":44,"left_numbers":[28,41,43,36,48,33,35,36,23,42],"right_numbers":[38,55,43,63,50,50,39,31,43,30],"points_earned":400,"phase":"task","trial_type":"horizons-task","trial_index":76,"time_elapsed":1262045,"internal_node_id":"0.0-72.0","task_version":"0.2"},{"response_times":[1250.1000000047497,433.1850000019185,523.8499999977648,1361.6100000070874,1582.764999999199,584.0849999948405,565.1399999912828,555.0849999999627,1199.7049999919254,947.6700000087731],"keys_pressed":["leftarrow","rightarrow","rightarrow","leftarrow","leftarrow","leftarrow","rightarrow","leftarrow","leftarrow","rightarrow"],"horizon":10,"forced_choices":["leftarrow","rightarrow","rightarrow","leftarrow"],"right_color":"lightblue","left_color":"orange","left_mu":40,"right_mu":32,"left_numbers":[44,42,44,38,35,43,49,56,20,41],"right_numbers":[36,31,22,24,27,20,42,25,30,24],"points_earned":355,"phase":"task","trial_type":"horizons-task","trial_index":77,"time_elapsed":1272551,"internal_node_id":"0.0-73.0","task_version":"0.2"},{"response_times":[715.1799999992363,533.8550000016112,727.0249999999069,614.4999999960419,1623.1649999972433,2107.839999996824,523.9399999990128,452.5900000007823,272.41499999933876,231.39999998966232],"keys_pressed":["leftarrow","leftarrow","rightarrow","leftarrow","leftarrow","leftarrow","leftarrow","leftarrow","leftarrow","leftarrow"],"horizon":10,"forced_choices":["leftarrow","leftarrow","rightarrow","leftarrow"],"right_color":"lightblue","left_color":"orange","left_mu":60,"right_mu":52,"left_numbers":[66,67,72,66,55,63,57,69,69,50],"right_numbers":[49,45,52,37,45,53,55,59,53,55],"points_earned":614,"phase":"task","trial_type":"horizons-task","trial_index":78,"time_elapsed":1281856,"internal_node_id":"0.0-74.0","task_version":"0.2"},{"response_times":[25483.840000000782,655.3249999997206,737.0749999971595,654.6450000023469,907.1700000059791,474.51000000024214,393.1849999935366,292.1700000008568,242.25999999884516,201.80000000982545],"keys_pressed":["rightarrow","leftarrow","leftarrow","leftarrow","rightarrow","rightarrow","rightarrow","rightarrow","rightarrow","rightarrow"],"horizon":10,"forced_choices":["rightarrow","leftarrow","leftarrow","leftarrow"],"right_color":"orange","left_color":"lightblue","left_mu":40,"right_mu":60,"left_numbers":[26,37,31,32,33,33,50,48,33,54],"right_numbers":[63,67,57,62,72,62,64,54,61,62],"points_earned":538,"phase":"task","trial_type":"horizons-task","trial_index":79,"time_elapsed":1313400,"internal_node_id":"0.0-75.0","task_version":"0.2"},{"response_times":[1149.2250000010245,536.5450000099372,664.4349999986589,614.459999996936,4648.365000001155,967.18500000122,604.1849999893457,454.54500000039116,272.6249999979045,180.94999999459833],"keys_pressed":["rightarrow","leftarrow","rightarrow","rightarrow","leftarrow","rightarrow","rightarrow","rightarrow","rightarrow","rightarrow"],"horizon":10,"forced_choices":["rightarrow","leftarrow","rightarrow","rightarrow"],"right_color":"orange","left_color":"lightblue","left_mu":60,"right_mu":72,"left_numbers":[72,66,68,70,58,61,72,56,50,50],"right_numbers":[73,70,77,59,58,65,63,73,70,69],"points_earned":673,"phase":"task","trial_type":"horizons-task","trial_index":80,"time_elapsed":1324996,"internal_node_id":"0.0-76.0","task_version":"0.2"},{"response_times":[542.8699999903329,454.6299999929033,665.9749999963678,967.1649999944493,716.189999991795,625.4350000091363,736.7450000019744,473.8949999883771,372.134999997681,1301.355000003241],"keys_pressed":["rightarrow","rightarrow","rightarrow","leftarrow","leftarrow","leftarrow","rightarrow","leftarrow","leftarrow","leftarrow"],"horizon":10,"forced_choices":["rightarrow","rightarrow","rightarrow","leftarrow"],"right_color":"orange","left_color":"lightblue","left_mu":40,"right_mu":10,"left_numbers":[26,36,47,34,44,25,39,44,33,40],"right_numbers":[12,11,12,9,6,4,0,13,20,3],"points_earned":255,"phase":"task","trial_type":"horizons-task","trial_index":81,"time_elapsed":1333355,"internal_node_id":"0.0-77.0","task_version":"0.2"},{"response_times":[725.4749999991618,513.3700000005774,545.1299999987241,637.5849999892525,1834.3200000091456,1593.580000000773,1099.2649999971036,565.2399999960326,715.0800000091549,585.4449999898206],"keys_pressed":["leftarrow","rightarrow","rightarrow","rightarrow","rightarrow","leftarrow","leftarrow","rightarrow","leftarrow","rightarrow"],"horizon":10,"forced_choices":["leftarrow","rightarrow","rightarrow","rightarrow"],"right_color":"lightblue","left_color":"orange","left_mu":60,"right_mu":64,"left_numbers":[61,59,75,69,61,67,60,63,58,53],"right_numbers":[61,67,61,61,64,72,58,70,63,68],"points_earned":637,"phase":"task","trial_type":"horizons-task","trial_index":82,"time_elapsed":1343675,"internal_node_id":"0.0-78.0","task_version":"0.2"},{"response_times":[863.7649999873247,514.8199999965727,534.1150000020862,746.0950000095181,8328.900000007823,564.2550000047777,554.1749999974854,386.32000000518747,322.8700000036042,281.4949999882374],"keys_pressed":["leftarrow","leftarrow","rightarrow","rightarrow","rightarrow","rightarrow","rightarrow","leftarrow","rightarrow","rightarrow"],"horizon":10,"forced_choices":["leftarrow","leftarrow","rightarrow","rightarrow"],"right_color":"orange","left_color":"lightblue","left_mu":40,"right_mu":52,"left_numbers":[42,24,33,33,29,48,50,28,37,34],"right_numbers":[45,47,51,48,71,43,46,47,44,58],"points_earned":455,"phase":"task","trial_type":"horizons-task","trial_index":83,"time_elapsed":1358276,"internal_node_id":"0.0-79.0","task_version":"0.2"},{"response_times":[1271.340000006603,454.54500000039116,403.6049999995157,483.60999999567866,2702.820000005886],"keys_pressed":["rightarrow","leftarrow","rightarrow","leftarrow","leftarrow"],"horizon":5,"forced_choices":["rightarrow","leftarrow","rightarrow","leftarrow"],"right_color":"lightblue","left_color":"orange","left_mu":60,"right_mu":64,"left_numbers":[57,63,59,55,69],"right_numbers":[50,63,62,62,68],"points_earned":299,"phase":"task","trial_type":"horizons-task","trial_index":84,"time_elapsed":1365094,"internal_node_id":"0.0-80.0","task_version":"0.2"},{"response_times":[1382.0100000011735,513.7000000104308,614.6600000064354,565.245000005234,1683.9349999935366],"keys_pressed":["rightarrow","rightarrow","leftarrow","leftarrow","leftarrow"],"horizon":5,"forced_choices":["rightarrow","rightarrow","leftarrow","leftarrow"],"right_color":"lightblue","left_color":"orange","left_mu":60,"right_mu":40,"left_numbers":[65,72,62,89,62],"right_numbers":[48,48,38,35,16],"points_earned":309,"phase":"task","trial_type":"horizons-task","trial_index":85,"time_elapsed":1371356,"internal_node_id":"0.0-81.0","task_version":"0.2"},{"response_times":[5094.424999988405,655.7150000007823,563.9599999994971,1230.119999992894,1513.8700000096578],"keys_pressed":["leftarrow","rightarrow","rightarrow","rightarrow","rightarrow"],"horizon":5,"forced_choices":["leftarrow","rightarrow","rightarrow","rightarrow"],"right_color":"orange","left_color":"lightblue","left_mu":40,"right_mu":48,"left_numbers":[58,47,43,33,38],"right_numbers":[63,56,47,59,56],"points_earned":276,"phase":"task","trial_type":"horizons-task","trial_index":86,"time_elapsed":1381917,"internal_node_id":"0.0-82.0","task_version":"0.2"},{"response_times":[806.654999993043,444.41999999969266,654.6150000067428,1049.0750000027474,1209.8649999971967,695.9250000072643,555.3749999962747,876.7850000003818,483.7299999925308,281.869999991497],"keys_pressed":["rightarrow","rightarrow","leftarrow","leftarrow","leftarrow","rightarrow","leftarrow","leftarrow","leftarrow","leftarrow"],"horizon":10,"forced_choices":["rightarrow","rightarrow","leftarrow","leftarrow"],"right_color":"lightblue","left_color":"orange","left_mu":60,"right_mu":40,"left_numbers":[59,62,50,50,43,49,65,57,68,56],"right_numbers":[30,50,34,41,25,45,32,30,42,48],"points_earned":514,"phase":"task","trial_type":"horizons-task","trial_index":87,"time_elapsed":1390479,"internal_node_id":"0.0-83.0","task_version":"0.2"},{"response_times":[1510.72000000556,484.7000000011176,503.84499999927357,453.4249999995809,493.8300000068266,2342.45999999973,644.5999999996275,544.1950000096112,2894.2550000064075,1523.5399999944493],"keys_pressed":["rightarrow","rightarrow","leftarrow","rightarrow","leftarrow","rightarrow","leftarrow","leftarrow","rightarrow","leftarrow"],"horizon":10,"forced_choices":["rightarrow","rightarrow","leftarrow","rightarrow"],"right_color":"orange","left_color":"lightblue","left_mu":40,"right_mu":28,"left_numbers":[46,41,39,45,33,32,29,47,50,43],"right_numbers":[41,12,28,16,37,18,25,22,34,33],"points_earned":312,"phase":"task","trial_type":"horizons-task","trial_index":88,"time_elapsed":1403378,"internal_node_id":"0.0-84.0","task_version":"0.2"},{"response_times":[715.6899999971502,483.6000000068452,1441.8000000002794,927.8049999992363,635.1200000061654],"keys_pressed":["rightarrow","leftarrow","leftarrow","leftarrow","rightarrow"],"horizon":5,"forced_choices":["rightarrow","leftarrow","leftarrow","leftarrow"],"right_color":"orange","left_color":"lightblue","left_mu":40,"right_mu":60,"left_numbers":[36,50,42,53,29],"right_numbers":[70,43,49,61,68],"points_earned":283,"phase":"task","trial_type":"horizons-task","trial_index":89,"time_elapsed":1409085,"internal_node_id":"0.0-85.0","task_version":"0.2"},{"response_times":[936.4750000094064,464.6900000080932,575.2000000067055,1199.9399999913294,1864.7449999987148],"keys_pressed":["leftarrow","leftarrow","rightarrow","leftarrow","leftarrow"],"horizon":5,"forced_choices":["leftarrow","leftarrow","rightarrow","leftarrow"],"right_color":"lightblue","left_color":"orange","left_mu":60,"right_mu":52,"left_numbers":[67,68,70,64,44],"right_numbers":[54,55,67,47,60],"points_earned":310,"phase":"task","trial_type":"horizons-task","trial_index":90,"time_elapsed":1415629,"internal_node_id":"0.0-86.0","task_version":"0.2"},{"response_times":[1070.0149999901187,646.7100000008941,1371.1199999961536,1149.3699999991804,736.1749999979511],"keys_pressed":["leftarrow","rightarrow","rightarrow","rightarrow","leftarrow"],"horizon":5,"forced_choices":["leftarrow","rightarrow","rightarrow","rightarrow"],"right_color":"lightblue","left_color":"orange","left_mu":60,"right_mu":48,"left_numbers":[67,72,54,63,53],"right_numbers":[52,39,55,40,52],"points_earned":254,"phase":"task","trial_type":"horizons-task","trial_index":91,"time_elapsed":1422105,"internal_node_id":"0.0-87.0","task_version":"0.2"},{"rt":24728.004999997327,"responses":{"age":"30","gender-categorical":"Male","gender-free-response":"","ethnicity":"Not Hispanic or Latino","race":["Black or African American"],"language":"Yes","fluency":"Very well"},"survey":"demographics","trial_type":"survey-demo","trial_index":92,"time_elapsed":1446840,"internal_node_id":"0.0-88.0","task_version":"0.2"},{"rt":129028.9349999947,"responses":{"difficulty":"5","fun":"4","clarity":"5","strategy":"No particular strategy was used. i majorly used the first 4 figures as an average to make my choices","feedback":"no"},"survey":"debrief","trial_type":"survey-debrief","trial_index":93,"time_elapsed":1575871,"internal_node_id":"0.0-89.0","task_version":"0.2","interactions":"[]"}]