[{"view_history":"[{\"page_index\":0,\"viewing_time\":3546.6550000710413}]","rt":3548.5350000672042,"trial_type":"instructions","trial_index":0,"time_elapsed":3564,"internal_node_id":"0.0-0.0","task_version":"0.2"},{"item_order":[12,8,3,7,6,2,10,5,11,1,4,9,0],"responses":{"Q13":"4","Q09":"0","Q04":"0","Q08":"1","Q07":"1","Q03":"2","Q11":"0","Q06":"0","Q12":"2","Q02":"3","Q05":"0","Q10":"0","Q01":"0"},"radio_events":[4549.400000018068,9491.135000018403,15476.185000035912,19232.59499995038,22999.40999993123,27687.15999997221,33873.96500003524,39725.725000025705,43897.3700000206,48584.2549999943,55074.61999997031,59123.464999953285,61583.98999995552],"key_events":[],"mouse_events":[0.12500002048909664,4549.400000018068,8609.739999985322,9491.135000018403,13997.6500000339,15476.185000035912,19232.59499995038,22999.40999993123,27687.15999997221,33074.05499997549,33873.96500003524,39725.725000025705,42570.799999986775,43340.45000001788,43897.3700000206,47219.18499993626,47221.75000002608,47227.2299999604,48584.2549999943,54507.01499998104,55074.61999997031,59123.464999953285,61583.98999995552,63679.834999958985],"rt":63682.59500002023,"survey":"ius12","trial_type":"survey-template","trial_index":1,"time_elapsed":67253,"internal_node_id":"0.0-1.0","task_version":"0.2"},{"item_order":[15,7,10,6,0,14,12,4,2,3,1,5,13,8,11,9],"responses":{"Q16":"5","Q08":"4","Q11":"4","Q07":"3","Q01":"4","Q15":"1","Q13":"4","Q05":"1","Q03":"1","Q04":"0","Q02":"0","Q06":"0","Q14":"1","Q09":"3","Q12":"3","Q10":"0"},"radio_events":[5098.71499997098,38130.17999997828,44843.720000004396,49207.73999998346,52214.96500005014,56547.15500003658,61457.41500006989,67237.89500002749,75771.7849999899,80559.5200000098,83748.60499997158,102614.46499999147,107636.41500007361,114914.63999997359,121119.59000001661,127114.11500000395],"key_events":[],"mouse_events":[5098.71499997098,38130.17999997828,43142.61500001885,44843.720000004396,48428.2200000016,49207.73999998346,51707.92499999516,52214.96500005014,56547.15500003658,61457.41500006989,66266.52000006288,67237.89500002749,74618.55500005186,75315.95499999821,75771.7849999899,80559.5200000098,83748.60499997158,102614.46499999147,107636.41500007361,114914.63999997359,121119.59000001661,125756.29000004847,127114.11500000395,128023.64999998827],"rt":128027.6549999835,"survey":"nfc","trial_type":"survey-template","trial_index":2,"time_elapsed":195293,"internal_node_id":"0.0-2.0","task_version":"0.2"},{"item_order":[9,6,2,8,3,12,16,4,11,7,15,0,13,5,10,14,1],"responses":{"Q10":"4","Q07":"3","Q03":"4","Q09":"1","Q04":"3","Q13":"4","Q17":"0","Q05":"3","Q12":"4","Q08":"3","Q16":"3","Q01":"3","Q14":"1","Q06":"0","Q11":"4","Q15":"2","Q02":"0"},"radio_events":[7141.095000086352,10299.250000040047,13983.34999999497,19074.965000036173,22617.245000088587,27222.745000035502,29449.170000036247,32930.67500006873,38740.82000006456,41645.58500004932,47647.5700000301,50067.03500007279,55268.58000003267,57667.11000003852,66279.3450000463,71541.30000004079,74982.67500009388,78878.66000004578],"key_events":[],"mouse_events":[6027.245000004768,7141.095000086352,10299.250000040047,13072.180000017397,13983.34999999497,19074.965000036173,22253.075000015087,22617.245000088587,27222.745000035502,29449.170000036247,32930.67500006873,37981.78500006907,38740.82000006456,41645.58500004932,45178.100000019185,47647.5700000301,48770.69000003394,49469.610000029206,50067.03500007279,54792.695000069216,55268.58000003267,57667.11000003852,64629.70500008669,66279.3450000463,71541.30000004079,74982.67500009388,77482.13500005659,78878.66000004578,79779.86000000965],"rt":79783.0350000877,"survey":"pswq","trial_type":"survey-template","trial_index":3,"time_elapsed":275088,"internal_node_id":"0.0-3.0","task_version":"0.2"},{"view_history":"[{\"page_index\":0,\"viewing_time\":2922.054999973625},{\"page_index\":1,\"viewing_time\":5655.1500000059605},{\"page_index\":2,\"viewing_time\":11188.87499999255},{\"page_index\":3,\"viewing_time\":12340.920000104234},{\"page_index\":4,\"viewing_time\":6796.259999973699},{\"page_index\":5,\"viewing_time\":5091.75999998115},{\"page_index\":6,\"viewing_time\":6855.5799999739975},{\"page_index\":7,\"viewing_time\":17439.230000018142},{\"page_index\":8,\"viewing_time\":13883.200000040233},{\"page_index\":9,\"viewing_time\":12524.265000014566}]","rt":94698.33000004292,"trial_type":"instructions","trial_index":4,"time_elapsed":369793,"internal_node_id":"0.0-4.0-0.0","task_version":"0.2"},{"response_times":[878.4800000721589,900.6449999287724,1107.6299999840558,986.3149999873713,2169.3100000265986],"keys_pressed":["rightarrow","leftarrow","rightarrow","rightarrow","leftarrow"],"horizon":5,"forced_choices":["rightarrow","leftarrow","rightarrow","rightarrow"],"right_color":"lightblue","left_color":"orange","left_mu":40,"right_mu":20,"left_numbers":[35,41,45,47,39],"right_numbers":[27,18,26,20,6],"points_earned":153,"phase":"practice","trial_type":"horizons-task","trial_index":5,"time_elapsed":377351,"internal_node_id":"0.0-4.0-1.0","task_version":"0.2"},{"response_times":[1298.1450000079349,1116.7950000381097,716.0249999724329,690.2499999850988,2510.11999999173,1466.785000055097,2692.325000069104,4438.280000002123,746.1250000633299,642.2000000020489],"keys_pressed":["leftarrow","leftarrow","rightarrow","rightarrow","rightarrow","rightarrow","leftarrow","leftarrow","rightarrow","rightarrow"],"horizon":10,"forced_choices":["leftarrow","leftarrow","rightarrow","rightarrow"],"right_color":"orange","left_color":"lightblue","left_mu":60,"right_mu":70,"left_numbers":[70,57,72,50,67,56,61,58,58,35],"right_numbers":[78,70,78,79,69,54,85,79,86,64],"points_earned":676,"phase":"practice","trial_type":"horizons-task","trial_index":6,"time_elapsed":395175,"internal_node_id":"0.0-4.0-2.0","task_version":"0.2"},{"view_history":"[{\"page_index\":0,\"viewing_time\":1869.230000069365},{\"page_index\":1,\"viewing_time\":3169.514999957755},{\"page_index\":2,\"viewing_time\":3593.514999956824},{\"page_index\":3,\"viewing_time\":3745.2050000429153}]","rt":12377.775000059046,"trial_type":"instructions","trial_index":7,"time_elapsed":407554,"internal_node_id":"0.0-4.0-3.0","task_version":"0.2"},{"responses":["true","false","true"],"num_errors":0,"rt":16610.05999997724,"trial_type":"horizons-comprehension","trial_index":8,"time_elapsed":424168,"internal_node_id":"0.0-4.0-4.0","task_version":"0.2"},{"trial_type":"call-function","trial_index":9,"time_elapsed":424179,"internal_node_id":"0.0-5.0","task_version":"0.2"},{"view_history":"[{\"page_index\":0,\"viewing_time\":1909.1950000729412},{\"page_index\":1,\"viewing_time\":5048.39999997057}]","rt":6957.960000028834,"trial_type":"instructions","trial_index":10,"time_elapsed":431138,"internal_node_id":"0.0-6.0","task_version":"0.2"},{"response_times":[1118.5900000855327,569.7299999883398,703.525000018999,799.7849999228492,1123.8300000550225,677.9699999606237,902.2000000113621,579.8450000584126,564.8150000488386,687.9099999787286],"keys_pressed":["rightarrow","rightarrow","leftarrow","leftarrow","leftarrow","leftarrow","leftarrow","leftarrow","leftarrow","leftarrow"],"horizon":10,"forced_choices":["rightarrow","rightarrow","leftarrow","leftarrow"],"right_color":"orange","left_color":"lightblue","left_mu":40,"right_mu":10,"left_numbers":[35,31,48,43,53,34,43,39,53,40],"right_numbers":[4,6,4,14,18,11,0,18,0,25],"points_earned":363,"phase":"task","trial_type":"horizons-task","trial_index":11,"time_elapsed":440376,"internal_node_id":"0.0-7.0","task_version":"0.2"},{"response_times":[782.950000022538,556.3250000122935,754.1199999395758,858.1150000682101,1751.8400000408292,2726.2099999934435,489.90499996580184,420.9200000623241,337.7299999119714,320.8299999823794],"keys_pressed":["leftarrow","rightarrow","leftarrow","leftarrow","rightarrow","rightarrow","rightarrow","rightarrow","rightarrow","rightarrow"],"horizon":10,"forced_choices":["leftarrow","rightarrow","leftarrow","leftarrow"],"right_color":"orange","left_color":"lightblue","left_mu":60,"right_mu":72,"left_numbers":[54,64,66,58,75,49,61,56,58,61],"right_numbers":[69,66,69,83,63,61,66,68,75,72],"points_earned":649,"phase":"task","trial_type":"horizons-task","trial_index":12,"time_elapsed":450881,"internal_node_id":"0.0-8.0","task_version":"0.2"},{"response_times":[713.1599999265745,508.5250000702217,590.3799999505281,736.4799999631941,2180.930000031367,851.6500000841916,681.8900000071153,2663.895000005141,1822.8999999118969,461.02499996777624],"keys_pressed":["rightarrow","leftarrow","rightarrow","leftarrow","rightarrow","rightarrow","leftarrow","leftarrow","leftarrow","leftarrow"],"horizon":10,"forced_choices":["rightarrow","leftarrow","rightarrow","leftarrow"],"right_color":"orange","left_color":"lightblue","left_mu":40,"right_mu":36,"left_numbers":[49,49,37,25,38,42,47,46,46,32],"right_numbers":[44,43,31,23,32,37,34,42,42,44],"points_earned":389,"phase":"task","trial_type":"horizons-task","trial_index":13,"time_elapsed":463599,"internal_node_id":"0.0-9.0","task_version":"0.2"},{"response_times":[1192.6549999043345,759.665000019595,549.375000060536,1793.4100000420585,1948.050000006333],"keys_pressed":["leftarrow","leftarrow","rightarrow","leftarrow","rightarrow"],"horizon":5,"forced_choices":["leftarrow","leftarrow","rightarrow","leftarrow"],"right_color":"orange","left_color":"lightblue","left_mu":60,"right_mu":64,"left_numbers":[66,60,60,59,43],"right_numbers":[56,77,69,65,67],"points_earned":321,"phase":"task","trial_type":"horizons-task","trial_index":14,"time_elapsed":471349,"internal_node_id":"0.0-10.0","task_version":"0.2"},{"response_times":[699.860000051558,556.040000054054,789.4950000336394,613.8649999629706,2052.0949999336153,703.6200000438839,571.7449999647215,597.6200000150129,604.3899999931455,811.9200000073761],"keys_pressed":["rightarrow","leftarrow","leftarrow","rightarrow","leftarrow","leftarrow","rightarrow","leftarrow","leftarrow","leftarrow"],"horizon":10,"forced_choices":["rightarrow","leftarrow","leftarrow","rightarrow"],"right_color":"lightblue","left_color":"orange","left_mu":40,"right_mu":32,"left_numbers":[38,45,31,36,50,37,44,44,37,35],"right_numbers":[22,25,25,34,36,30,35,31,41,28],"points_earned":370,"phase":"task","trial_type":"horizons-task","trial_index":15,"time_elapsed":480878,"internal_node_id":"0.0-11.0","task_version":"0.2"},{"response_times":[633.8649999815971,560.3499999269843,564.3700000364333,659.5800000941381,1264.339999994263],"keys_pressed":["rightarrow","rightarrow","leftarrow","rightarrow","rightarrow"],"horizon":5,"forced_choices":["rightarrow","rightarrow","leftarrow","rightarrow"],"right_color":"orange","left_color":"lightblue","left_mu":40,"right_mu":48,"left_numbers":[26,36,47,36,41],"right_numbers":[48,47,55,52,30],"points_earned":224,"phase":"task","trial_type":"horizons-task","trial_index":16,"time_elapsed":486066,"internal_node_id":"0.0-12.0","task_version":"0.2"},{"response_times":[770.9250000771135,615.470000077039,631.6599999554455,746.915000025183,2029.770000022836],"keys_pressed":["leftarrow","rightarrow","leftarrow","leftarrow","leftarrow"],"horizon":5,"forced_choices":["leftarrow","rightarrow","leftarrow","leftarrow"],"right_color":"orange","left_color":"lightblue","left_mu":60,"right_mu":72,"left_numbers":[62,58,61,62,57],"right_numbers":[58,61,76,69,74],"points_earned":303,"phase":"task","trial_type":"horizons-task","trial_index":17,"time_elapsed":492365,"internal_node_id":"0.0-13.0","task_version":"0.2"},{"response_times":[1366.6649999795482,615.5100000323728,553.4650000045076,643.7850000802428,734.0299999341369],"keys_pressed":["leftarrow","leftarrow","rightarrow","rightarrow","rightarrow"],"horizon":5,"forced_choices":["leftarrow","leftarrow","rightarrow","rightarrow"],"right_color":"orange","left_color":"lightblue","left_mu":60,"right_mu":90,"left_numbers":[55,56,60,66,61],"right_numbers":[85,97,97,94,93],"points_earned":395,"phase":"task","trial_type":"horizons-task","trial_index":18,"time_elapsed":497784,"internal_node_id":"0.0-14.0","task_version":"0.2"},{"response_times":[561.8549999780953,479.38000003341585,571.5199999976903,728.1950000906363,1944.3500000052154,1827.6499999919906,1158.335000043735,1027.9849999351427,625.8899999083951,577.7200000593439],"keys_pressed":["rightarrow","leftarrow","rightarrow","leftarrow","rightarrow","leftarrow","leftarrow","rightarrow","leftarrow","leftarrow"],"horizon":10,"forced_choices":["rightarrow","leftarrow","rightarrow","leftarrow"],"right_color":"orange","left_color":"lightblue","left_mu":60,"right_mu":64,"left_numbers":[58,76,65,64,50,69,62,70,50,61],"right_numbers":[69,57,69,56,50,70,62,48,50,72],"points_earned":618,"phase":"task","trial_type":"horizons-task","trial_index":19,"time_elapsed":508792,"internal_node_id":"0.0-15.0","task_version":"0.2"},{"response_times":[629.1800000471994,405.6899999268353,1628.0799999367446,594.2299999296665,1774.4399999501184],"keys_pressed":["rightarrow","leftarrow","leftarrow","rightarrow","leftarrow"],"horizon":5,"forced_choices":["rightarrow","leftarrow","leftarrow","rightarrow"],"right_color":"lightblue","left_color":"orange","left_mu":60,"right_mu":52,"left_numbers":[45,68,68,71,57],"right_numbers":[49,60,42,33,45],"points_earned":275,"phase":"task","trial_type":"horizons-task","trial_index":20,"time_elapsed":515329,"internal_node_id":"0.0-16.0","task_version":"0.2"},{"response_times":[588.3349999785423,455.6050000246614,506.54500001110137,466.75999998115003,1220.0850000372157],"keys_pressed":["leftarrow","rightarrow","rightarrow","rightarrow","leftarrow"],"horizon":5,"forced_choices":["leftarrow","rightarrow","rightarrow","rightarrow"],"right_color":"lightblue","left_color":"orange","left_mu":60,"right_mu":56,"left_numbers":[70,71,60,59,57],"right_numbers":[61,61,61,58,56],"points_earned":307,"phase":"task","trial_type":"horizons-task","trial_index":21,"time_elapsed":520072,"internal_node_id":"0.0-17.0","task_version":"0.2"},{"response_times":[759.3750000232831,440.23499998729676,462.24999998230487,547.4099999992177,670.4350000945851,2450.3800000529736,499.6800000080839,582.4200001079589,316.4600000018254,257.4000000022352],"keys_pressed":["leftarrow","leftarrow","rightarrow","leftarrow","rightarrow","rightarrow","rightarrow","rightarrow","rightarrow","rightarrow"],"horizon":10,"forced_choices":["leftarrow","leftarrow","rightarrow","leftarrow"],"right_color":"orange","left_color":"lightblue","left_mu":60,"right_mu":64,"left_numbers":[55,54,56,63,67,65,63,57,49,56],"right_numbers":[64,60,63,68,65,61,63,62,82,56],"points_earned":624,"phase":"task","trial_type":"horizons-task","trial_index":22,"time_elapsed":528561,"internal_node_id":"0.0-18.0","task_version":"0.2"},{"response_times":[609.6350000007078,434.889999916777,666.3399999961257,787.7400000579655,1189.4650000613183],"keys_pressed":["rightarrow","leftarrow","leftarrow","leftarrow","rightarrow"],"horizon":5,"forced_choices":["rightarrow","leftarrow","leftarrow","leftarrow"],"right_color":"orange","left_color":"lightblue","left_mu":60,"right_mu":80,"left_numbers":[60,72,67,61,58],"right_numbers":[86,69,86,79,72],"points_earned":358,"phase":"task","trial_type":"horizons-task","trial_index":23,"time_elapsed":533753,"internal_node_id":"0.0-19.0","task_version":"0.2"},{"response_times":[788.6849999194965,420.2400000067428,532.4450000189245,473.424999974668,5190.04000001587],"keys_pressed":["rightarrow","leftarrow","leftarrow","rightarrow","rightarrow"],"horizon":5,"forced_choices":["rightarrow","leftarrow","leftarrow","rightarrow"],"right_color":"orange","left_color":"lightblue","left_mu":60,"right_mu":72,"left_numbers":[55,65,65,56,77],"right_numbers":[64,71,78,75,77],"points_earned":346,"phase":"task","trial_type":"horizons-task","trial_index":24,"time_elapsed":542664,"internal_node_id":"0.0-20.0","task_version":"0.2"},{"response_times":[687.7300000051036,514.6349999122322,493.6449999222532,408.1749999895692,3673.054999904707,1461.4849999779835,476.0849999729544,272.05999998841435,170.91499990783632,410.8900000574067],"keys_pressed":["rightarrow","rightarrow","leftarrow","rightarrow","leftarrow","rightarrow","rightarrow","rightarrow","rightarrow","rightarrow"],"horizon":10,"forced_choices":["rightarrow","rightarrow","leftarrow","rightarrow"],"right_color":"orange","left_color":"lightblue","left_mu":40,"right_mu":48,"left_numbers":[35,33,41,37,39,35,39,43,33,24],"right_numbers":[47,51,41,36,30,50,42,52,51,51],"points_earned":460,"phase":"task","trial_type":"horizons-task","trial_index":25,"time_elapsed":552736,"internal_node_id":"0.0-21.0","task_version":"0.2"},{"response_times":[874.7699999948964,374.2600000696257,472.04499994404614,1024.8300000093877,1323.8200000487268,185.11500000022352,163.88999996706843,162.32499992474914,169.08999998122454,510.89999999385327],"keys_pressed":["rightarrow","leftarrow","rightarrow","rightarrow","rightarrow","rightarrow","rightarrow","rightarrow","rightarrow","rightarrow"],"horizon":10,"forced_choices":["rightarrow","leftarrow","rightarrow","rightarrow"],"right_color":"orange","left_color":"lightblue","left_mu":40,"right_mu":60,"left_numbers":[44,44,35,54,36,35,34,36,37,55],"right_numbers":[65,52,61,55,56,51,52,71,49,48],"points_earned":552,"phase":"task","trial_type":"horizons-task","trial_index":26,"time_elapsed":559500,"internal_node_id":"0.0-22.0","task_version":"0.2"},{"response_times":[703.8850000826642,1230.1250000018626,581.209999974817,2109.705000068061,1798.175000003539],"keys_pressed":["leftarrow","rightarrow","rightarrow","rightarrow","rightarrow"],"horizon":5,"forced_choices":["leftarrow","rightarrow","rightarrow","rightarrow"],"right_color":"lightblue","left_color":"orange","left_mu":60,"right_mu":52,"left_numbers":[53,67,71,58,57],"right_numbers":[44,52,50,61,64],"points_earned":280,"phase":"task","trial_type":"horizons-task","trial_index":27,"time_elapsed":567429,"internal_node_id":"0.0-23.0","task_version":"0.2"},{"response_times":[632.4949999107048,471.9649999169633,737.5899999169633,449.350000009872,1144.0599999623373,656.3150000292808,468.3799999766052,170.23000004701316,151.79000003263354,170.0999999884516],"keys_pressed":["rightarrow","leftarrow","leftarrow","leftarrow","rightarrow","rightarrow","rightarrow","rightarrow","rightarrow","rightarrow"],"horizon":10,"forced_choices":["rightarrow","leftarrow","leftarrow","leftarrow"],"right_color":"lightblue","left_color":"orange","left_mu":40,"right_mu":70,"left_numbers":[34,32,34,47,50,39,37,49,35,42],"right_numbers":[73,58,77,64,67,87,56,73,75,58],"points_earned":602,"phase":"task","trial_type":"horizons-task","trial_index":28,"time_elapsed":573988,"internal_node_id":"0.0-24.0","task_version":"0.2"},{"response_times":[646.7499999562278,360.80499994568527,515.6849999912083,607.8399999532849,1728.1499999808148,952.9799999436364,2093.100000056438,578.9450000738725,3205.614999984391,430.8449999662116],"keys_pressed":["leftarrow","rightarrow","rightarrow","rightarrow","leftarrow","rightarrow","rightarrow","leftarrow","leftarrow","leftarrow"],"horizon":10,"forced_choices":["leftarrow","rightarrow","rightarrow","rightarrow"],"right_color":"orange","left_color":"lightblue","left_mu":40,"right_mu":36,"left_numbers":[49,36,27,41,18,42,38,47,49,27],"right_numbers":[35,38,30,23,28,28,43,40,36,39],"points_earned":352,"phase":"task","trial_type":"horizons-task","trial_index":29,"time_elapsed":586616,"internal_node_id":"0.0-25.0","task_version":"0.2"},{"response_times":[645.0549999717623,389.4800000125542,885.8450000407174,1391.829999978654,2577.169999945909,657.0250000804663,784.1600000392646,680.8749999618158,626.9999999785796,883.7449999991804],"keys_pressed":["leftarrow","rightarrow","leftarrow","leftarrow","rightarrow","rightarrow","rightarrow","rightarrow","rightarrow","rightarrow"],"horizon":10,"forced_choices":["leftarrow","rightarrow","leftarrow","leftarrow"],"right_color":"lightblue","left_color":"orange","left_mu":40,"right_mu":52,"left_numbers":[36,28,51,42,43,40,39,19,38,35],"right_numbers":[46,50,54,47,49,59,56,43,46,61],"points_earned":493,"phase":"task","trial_type":"horizons-task","trial_index":30,"time_elapsed":597645,"internal_node_id":"0.0-26.0","task_version":"0.2"},{"response_times":[605.3750000428408,570.2049999963492,609.195000026375,518.015000037849,1597.7300000377,555.4499999852851,647.1749999327585,615.7150000799447,349.3400000734255,297.67499992158264],"keys_pressed":["rightarrow","rightarrow","rightarrow","leftarrow","leftarrow","leftarrow","leftarrow","leftarrow","leftarrow","leftarrow"],"horizon":10,"forced_choices":["rightarrow","rightarrow","rightarrow","leftarrow"],"right_color":"lightblue","left_color":"orange","left_mu":60,"right_mu":30,"left_numbers":[71,60,71,50,50,91,62,68,71,53],"right_numbers":[13,36,40,20,18,33,26,26,22,20],"points_earned":534,"phase":"task","trial_type":"horizons-task","trial_index":31,"time_elapsed":605515,"internal_node_id":"0.0-27.0","task_version":"0.2"},{"response_times":[524.2650000145659,410.28999991249293,433.0299999564886,455.27999999467283,1664.8500000592321,329.145000083372,211.50500001385808,158.89999992214143,151.53000003192574,420.07999995257705],"keys_pressed":["leftarrow","rightarrow","leftarrow","rightarrow","rightarrow","rightarrow","rightarrow","rightarrow","rightarrow","rightarrow"],"horizon":10,"forced_choices":["leftarrow","rightarrow","leftarrow","rightarrow"],"right_color":"lightblue","left_color":"orange","left_mu":40,"right_mu":52,"left_numbers":[39,45,37,34,46,36,28,60,42,40],"right_numbers":[53,57,59,50,54,57,42,54,51,48],"points_earned":489,"phase":"task","trial_type":"horizons-task","trial_index":32,"time_elapsed":611779,"internal_node_id":"0.0-28.0","task_version":"0.2"},{"response_times":[674.8549999902025,381.3649999210611,398.24999996926636,526.3949999352917,869.0549999009818],"keys_pressed":["leftarrow","rightarrow","leftarrow","rightarrow","leftarrow"],"horizon":5,"forced_choices":["leftarrow","rightarrow","leftarrow","rightarrow"],"right_color":"lightblue","left_color":"orange","left_mu":60,"right_mu":48,"left_numbers":[63,65,65,61,52],"right_numbers":[34,45,55,46,52],"points_earned":271,"phase":"task","trial_type":"horizons-task","trial_index":33,"time_elapsed":616135,"internal_node_id":"0.0-29.0","task_version":"0.2"},{"response_times":[530.5200000293553,384.59999999031425,616.039999993518,712.2449999442324,525.8299999404699,1107.3549999855459,160.5549999512732,151.795000070706,156.01499995682389,171.13500006962568],"keys_pressed":["rightarrow","leftarrow","leftarrow","leftarrow","rightarrow","rightarrow","rightarrow","rightarrow","rightarrow","rightarrow"],"horizon":10,"forced_choices":["rightarrow","leftarrow","leftarrow","leftarrow"],"right_color":"orange","left_color":"lightblue","left_mu":60,"right_mu":80,"left_numbers":[66,35,51,68,59,63,54,65,60,51],"right_numbers":[70,74,74,77,73,68,70,71,83,74],"points_earned":663,"phase":"task","trial_type":"horizons-task","trial_index":34,"time_elapsed":622157,"internal_node_id":"0.0-30.0","task_version":"0.2"},{"response_times":[9760.065000038594,543.8599999761209,616.6250000242144,631.7800000542775,1333.3900000434369,555.0750000402331,316.8049999512732,150.774999987334,147.30000006966293,363.2199999410659],"keys_pressed":["rightarrow","leftarrow","leftarrow","rightarrow","rightarrow","rightarrow","rightarrow","rightarrow","rightarrow","rightarrow"],"horizon":10,"forced_choices":["rightarrow","leftarrow","leftarrow","rightarrow"],"right_color":"orange","left_color":"lightblue","left_mu":60,"right_mu":72,"left_numbers":[66,53,58,55,50,51,58,62,62,65],"right_numbers":[67,76,75,67,77,74,61,73,73,75],"points_earned":678,"phase":"task","trial_type":"horizons-task","trial_index":35,"time_elapsed":638081,"internal_node_id":"0.0-31.0","task_version":"0.2"},{"response_times":[629.200000083074,394.6549999527633,370.4049999359995,711.9850000599399,3754.9850000068545],"keys_pressed":["leftarrow","rightarrow","leftarrow","rightarrow","rightarrow"],"horizon":5,"forced_choices":["leftarrow","rightarrow","leftarrow","rightarrow"],"right_color":"orange","left_color":"lightblue","left_mu":40,"right_mu":48,"left_numbers":[30,33,39,49,46],"right_numbers":[58,46,46,48,53],"points_earned":216,"phase":"task","trial_type":"horizons-task","trial_index":36,"time_elapsed":645449,"internal_node_id":"0.0-32.0","task_version":"0.2"},{"response_times":[1536.9100000243634,504.49000007938594,452.7399999788031,435.15999999362975,2048.909999895841,1062.2450000373647,2366.165000014007,336.2050000578165,145.7500000251457,150.18000011332333],"keys_pressed":["rightarrow","rightarrow","leftarrow","rightarrow","rightarrow","leftarrow","rightarrow","rightarrow","rightarrow","rightarrow"],"horizon":10,"forced_choices":["rightarrow","rightarrow","leftarrow","rightarrow"],"right_color":"orange","left_color":"lightblue","left_mu":60,"right_mu":68,"left_numbers":[53,62,58,63,58,59,66,44,61,46],"right_numbers":[65,75,61,62,49,62,65,76,57,65],"points_earned":631,"phase":"task","trial_type":"horizons-task","trial_index":37,"time_elapsed":655994,"internal_node_id":"0.0-33.0","task_version":"0.2"},{"response_times":[630.2550000837073,451.6499999444932,559.9200000287965,844.1550000570714,1312.4649999663234],"keys_pressed":["rightarrow","rightarrow","leftarrow","rightarrow","rightarrow"],"horizon":5,"forced_choices":["rightarrow","rightarrow","leftarrow","rightarrow"],"right_color":"orange","left_color":"lightblue","left_mu":60,"right_mu":68,"left_numbers":[53,60,54,70,58],"right_numbers":[62,68,66,67,76],"points_earned":327,"phase":"task","trial_type":"horizons-task","trial_index":38,"time_elapsed":661298,"internal_node_id":"0.0-34.0","task_version":"0.2"},{"response_times":[608.7749999715015,821.3849999010563,565.3950000414625,557.2999999858439,685.5750000104308],"keys_pressed":["leftarrow","leftarrow","rightarrow","rightarrow","leftarrow"],"horizon":5,"forced_choices":["leftarrow","leftarrow","rightarrow","rightarrow"],"right_color":"lightblue","left_color":"orange","left_mu":40,"right_mu":20,"left_numbers":[35,39,41,41,26],"right_numbers":[32,8,29,21,48],"points_earned":150,"phase":"task","trial_type":"horizons-task","trial_index":39,"time_elapsed":666043,"internal_node_id":"0.0-35.0","task_version":"0.2"},{"response_times":[598.6050000647083,486.4350000862032,557.1400000480935,1514.9700000183657,927.3549999343231],"keys_pressed":["rightarrow","leftarrow","rightarrow","leftarrow","leftarrow"],"horizon":5,"forced_choices":["rightarrow","leftarrow","rightarrow","leftarrow"],"right_color":"orange","left_color":"lightblue","left_mu":40,"right_mu":36,"left_numbers":[29,41,38,46,42],"right_numbers":[28,26,24,43,28],"points_earned":181,"phase":"task","trial_type":"horizons-task","trial_index":40,"time_elapsed":671633,"internal_node_id":"0.0-36.0","task_version":"0.2"},{"response_times":[556.4549999544397,340.8199999248609,414.38500001095235,730.005000019446,1861.0450000269338,601.0600000154227,144.94999998714775,146.04499994311482,154.1900000302121,427.3350000148639],"keys_pressed":["rightarrow","leftarrow","rightarrow","rightarrow","leftarrow","leftarrow","leftarrow","leftarrow","leftarrow","leftarrow"],"horizon":10,"forced_choices":["rightarrow","leftarrow","rightarrow","rightarrow"],"right_color":"lightblue","left_color":"orange","left_mu":60,"right_mu":40,"left_numbers":[44,55,55,60,65,74,51,77,68,60],"right_numbers":[32,45,26,31,31,42,54,33,40,37],"points_earned":539,"phase":"task","trial_type":"horizons-task","trial_index":41,"time_elapsed":678515,"internal_node_id":"0.0-37.0","task_version":"0.2"},{"response_times":[716.2400000961497,343.94500008784235,707.9449999146163,535.109999938868,781.6600000951439],"keys_pressed":["leftarrow","rightarrow","rightarrow","leftarrow","rightarrow"],"horizon":5,"forced_choices":["leftarrow","rightarrow","rightarrow","leftarrow"],"right_color":"orange","left_color":"lightblue","left_mu":60,"right_mu":80,"left_numbers":[72,55,54,54,69],"right_numbers":[78,83,83,82,74],"points_earned":366,"phase":"task","trial_type":"horizons-task","trial_index":42,"time_elapsed":683106,"internal_node_id":"0.0-38.0","task_version":"0.2"},{"response_times":[594.3999999435619,603.9200000232086,467.2900000587106,435.50499994307756,1678.7100000074133,496.4249999029562,159.3749999301508,144.3449999205768,142.92499993462116,159.58999993745238],"keys_pressed":["leftarrow","leftarrow","rightarrow","rightarrow","leftarrow","leftarrow","leftarrow","leftarrow","leftarrow","leftarrow"],"horizon":10,"forced_choices":["leftarrow","leftarrow","rightarrow","rightarrow"],"right_color":"lightblue","left_color":"orange","left_mu":40,"right_mu":20,"left_numbers":[38,32,29,37,37,46,44,22,49,38],"right_numbers":[12,26,29,8,12,20,8,20,4,8],"points_earned":343,"phase":"task","trial_type":"horizons-task","trial_index":43,"time_elapsed":689494,"internal_node_id":"0.0-39.0","task_version":"0.2"},{"response_times":[653.6799999885261,319.5350000169128,885.2249999763444,2005.5400000419468,1232.205000007525],"keys_pressed":["rightarrow","leftarrow","leftarrow","rightarrow","leftarrow"],"horizon":5,"forced_choices":["rightarrow","leftarrow","leftarrow","rightarrow"],"right_color":"lightblue","left_color":"orange","left_mu":40,"right_mu":32,"left_numbers":[51,52,49,20,52],"right_numbers":[23,21,35,39,24],"points_earned":215,"phase":"task","trial_type":"horizons-task","trial_index":44,"time_elapsed":696096,"internal_node_id":"0.0-40.0","task_version":"0.2"},{"response_times":[537.8649999620393,357.164999935776,460.46499989461154,563.359999912791,1280.2750000264496],"keys_pressed":["rightarrow","rightarrow","leftarrow","leftarrow","leftarrow"],"horizon":5,"forced_choices":["rightarrow","rightarrow","leftarrow","leftarrow"],"right_color":"orange","left_color":"lightblue","left_mu":40,"right_mu":10,"left_numbers":[41,44,23,43,33],"right_numbers":[17,13,8,13,11],"points_earned":129,"phase":"task","trial_type":"horizons-task","trial_index":45,"time_elapsed":700800,"internal_node_id":"0.0-41.0","task_version":"0.2"},{"response_times":[1771.9799999613315,410.26500007137656,824.8100000200793,530.8649999788031,1293.9100000075996],"keys_pressed":["leftarrow","leftarrow","leftarrow","rightarrow","leftarrow"],"horizon":5,"forced_choices":["leftarrow","leftarrow","leftarrow","rightarrow"],"right_color":"lightblue","left_color":"orange","left_mu":40,"right_mu":32,"left_numbers":[42,36,31,37,28],"right_numbers":[19,23,24,34,33],"points_earned":171,"phase":"task","trial_type":"horizons-task","trial_index":46,"time_elapsed":707138,"internal_node_id":"0.0-42.0","task_version":"0.2"},{"response_times":[689.4099999917671,497.01499997172505,887.2350000310689,712.110000080429,2020.2199999475852],"keys_pressed":["rightarrow","rightarrow","leftarrow","rightarrow","leftarrow"],"horizon":5,"forced_choices":["rightarrow","rightarrow","leftarrow","rightarrow"],"right_color":"orange","left_color":"lightblue","left_mu":40,"right_mu":28,"left_numbers":[44,38,41,37,45],"right_numbers":[36,20,31,33,31],"points_earned":175,"phase":"task","trial_type":"horizons-task","trial_index":47,"time_elapsed":713453,"internal_node_id":"0.0-43.0","task_version":"0.2"},{"response_times":[594.2500000819564,361.7599999997765,440.3049999382347,431.30000005476177,1387.3000000603497],"keys_pressed":["leftarrow","rightarrow","rightarrow","leftarrow","leftarrow"],"horizon":5,"forced_choices":["leftarrow","rightarrow","rightarrow","leftarrow"],"right_color":"lightblue","left_color":"orange","left_mu":60,"right_mu":40,"left_numbers":[60,47,51,54,65],"right_numbers":[37,32,50,40,41],"points_earned":261,"phase":"task","trial_type":"horizons-task","trial_index":48,"time_elapsed":718173,"internal_node_id":"0.0-44.0","task_version":"0.2"},{"response_times":[640.2799999341369,402.9699999373406,446.39500009361655,462.5350000569597,2380.8849999913946,726.1849999194965,1613.260000012815,159.19499995652586,146.67499996721745,155.9249999700114],"keys_pressed":["leftarrow","rightarrow","leftarrow","rightarrow","rightarrow","rightarrow","rightarrow","rightarrow","rightarrow","rightarrow"],"horizon":10,"forced_choices":["leftarrow","rightarrow","leftarrow","rightarrow"],"right_color":"orange","left_color":"lightblue","left_mu":40,"right_mu":48,"left_numbers":[38,41,33,24,48,34,36,44,46,40],"right_numbers":[46,42,61,51,43,40,49,42,47,56],"points_earned":441,"phase":"task","trial_type":"horizons-task","trial_index":49,"time_elapsed":726814,"internal_node_id":"0.0-45.0","task_version":"0.2"},{"response_times":[605.9550000354648,466.8649999657646,452.44499994441867,432.5599999865517,2048.5549999866635],"keys_pressed":["leftarrow","leftarrow","rightarrow","leftarrow","leftarrow"],"horizon":5,"forced_choices":["leftarrow","leftarrow","rightarrow","leftarrow"],"right_color":"lightblue","left_color":"orange","left_mu":40,"right_mu":20,"left_numbers":[44,39,34,52,42],"right_numbers":[20,24,15,24,23],"points_earned":192,"phase":"task","trial_type":"horizons-task","trial_index":50,"time_elapsed":732331,"internal_node_id":"0.0-46.0","task_version":"0.2"},{"view_history":"[{\"page_index\":0,\"viewing_time\":2884.5999999903142},{\"page_index\":1,\"viewing_time\":2055.8149999706075}]","rt":4940.874999971129,"trial_type":"instructions","trial_index":51,"time_elapsed":737274,"internal_node_id":"0.0-47.0","task_version":"0.2"},{"response_times":[1050.8450000779703,467.2699999064207,570.9199999691918,502.34000000637025,2273.9849999779835,796.3149999268353,830.0349999917671,534.6900000004098,186.94499996490777,147.49000000301749],"keys_pressed":["rightarrow","leftarrow","leftarrow","rightarrow","leftarrow","leftarrow","leftarrow","leftarrow","leftarrow","leftarrow"],"horizon":10,"forced_choices":["rightarrow","leftarrow","leftarrow","rightarrow"],"right_color":"orange","left_color":"lightblue","left_mu":40,"right_mu":28,"left_numbers":[39,41,30,46,40,32,43,44,39,42],"right_numbers":[22,20,36,23,16,33,17,22,26,11],"points_earned":356,"phase":"task","trial_type":"horizons-task","trial_index":52,"time_elapsed":746144,"internal_node_id":"0.0-48.0","task_version":"0.2"},{"response_times":[687.7300000051036,365.73499999940395,1325.0700000207871,777.4999999674037,1545.6550000235438],"keys_pressed":["leftarrow","rightarrow","rightarrow","rightarrow","leftarrow"],"horizon":5,"forced_choices":["leftarrow","rightarrow","rightarrow","rightarrow"],"right_color":"orange","left_color":"lightblue","left_mu":40,"right_mu":36,"left_numbers":[43,38,35,50,42],"right_numbers":[33,40,40,31,33],"points_earned":196,"phase":"task","trial_type":"horizons-task","trial_index":53,"time_elapsed":752351,"internal_node_id":"0.0-49.0","task_version":"0.2"},{"response_times":[572.455000015907,327.7399999788031,553.9900000439957,603.9549999404699,602.6850000489503,1483.174999943003,155.07499990053475,145.50000010058284,165.86499998811632,370.46500004362315],"keys_pressed":["leftarrow","rightarrow","rightarrow","leftarrow","rightarrow","rightarrow","rightarrow","rightarrow","rightarrow","rightarrow"],"horizon":10,"forced_choices":["leftarrow","rightarrow","rightarrow","leftarrow"],"right_color":"lightblue","left_color":"orange","left_mu":40,"right_mu":70,"left_numbers":[52,38,31,37,39,53,30,41,62,41],"right_numbers":[66,51,77,78,57,62,76,81,60,69],"points_earned":622,"phase":"task","trial_type":"horizons-task","trial_index":54,"time_elapsed":758838,"internal_node_id":"0.0-50.0","task_version":"0.2"},{"response_times":[572.7399999741465,870.4650000436231,378.8199999835342,529.8199999378994,976.7399999545887],"keys_pressed":["rightarrow","leftarrow","rightarrow","leftarrow","leftarrow"],"horizon":5,"forced_choices":["rightarrow","leftarrow","rightarrow","leftarrow"],"right_color":"lightblue","left_color":"orange","left_mu":60,"right_mu":30,"left_numbers":[50,66,55,70,55],"right_numbers":[48,29,14,50,36],"points_earned":253,"phase":"task","trial_type":"horizons-task","trial_index":55,"time_elapsed":763672,"internal_node_id":"0.0-51.0","task_version":"0.2"},{"response_times":[471.35999996680766,486.65500001516193,432.1500000078231,863.6750000296161,2111.395000014454,601.52000002563,178.83999994955957,149.2400000570342,148.40000006370246,141.82499994058162],"keys_pressed":["rightarrow","rightarrow","leftarrow","leftarrow","rightarrow","rightarrow","rightarrow","rightarrow","rightarrow","rightarrow"],"horizon":10,"forced_choices":["rightarrow","rightarrow","leftarrow","leftarrow"],"right_color":"orange","left_color":"lightblue","left_mu":40,"right_mu":60,"left_numbers":[42,45,47,40,36,21,48,36,36,40],"right_numbers":[52,72,60,56,62,53,56,61,62,53],"points_earned":558,"phase":"task","trial_type":"horizons-task","trial_index":56,"time_elapsed":770762,"internal_node_id":"0.0-52.0","task_version":"0.2"},{"response_times":[733.0999999539927,564.9400000693277,465.14500002376735,520.7350000273436,1865.6949999276549,957.0000000530854,565.7849999843165,150.08000005036592,153.09000003617257,141.30999997723848],"keys_pressed":["leftarrow","leftarrow","rightarrow","leftarrow","rightarrow","rightarrow","leftarrow","leftarrow","leftarrow","leftarrow"],"horizon":10,"forced_choices":["leftarrow","leftarrow","rightarrow","leftarrow"],"right_color":"lightblue","left_color":"orange","left_mu":40,"right_mu":20,"left_numbers":[23,38,24,41,37,43,30,13,50,23],"right_numbers":[11,9,20,13,19,26,8,11,26,9],"points_earned":283,"phase":"task","trial_type":"horizons-task","trial_index":57,"time_elapsed":778385,"internal_node_id":"0.0-53.0","task_version":"0.2"},{"response_times":[573.0350000085309,292.84499993082136,302.5350000243634,568.36499995552,2133.159999968484,586.8299999274313,430.0550000043586,145.615000044927,759.1750000137836,359.2850000131875],"keys_pressed":["rightarrow","leftarrow","rightarrow","leftarrow","leftarrow","leftarrow","leftarrow","leftarrow","leftarrow","leftarrow"],"horizon":10,"forced_choices":["rightarrow","leftarrow","rightarrow","leftarrow"],"right_color":"lightblue","left_color":"orange","left_mu":60,"right_mu":30,"left_numbers":[59,50,61,51,50,55,63,62,60,45],"right_numbers":[19,31,41,20,51,21,18,24,27,28],"points_earned":496,"phase":"task","trial_type":"horizons-task","trial_index":58,"time_elapsed":786043,"internal_node_id":"0.0-54.0","task_version":"0.2"},{"response_times":[568.2400000514463,284.14000000339,277.2650000406429,609.7100001061335,1825.3350000595674,486.51499999687076,1857.8599999891594,889.5649999612942,810.7399999862537,1453.925000037998],"keys_pressed":["leftarrow","rightarrow","leftarrow","rightarrow","leftarrow","rightarrow","rightarrow","rightarrow","leftarrow","rightarrow"],"horizon":10,"forced_choices":["leftarrow","rightarrow","leftarrow","rightarrow"],"right_color":"lightblue","left_color":"orange","left_mu":60,"right_mu":56,"left_numbers":[63,71,65,62,62,66,49,62,75,56],"right_numbers":[51,62,49,48,54,71,58,45,54,50],"points_earned":599,"phase":"task","trial_type":"horizons-task","trial_index":59,"time_elapsed":796611,"internal_node_id":"0.0-55.0","task_version":"0.2"},{"response_times":[583.6499999277294,285.77499999664724,628.4549999982119,1404.9150000791997,3885.6849999865517,600.9100000374019,568.874999997206,210.07999998982996,162.0850000763312,140.51000005565584],"keys_pressed":["rightarrow","leftarrow","leftarrow","rightarrow","rightarrow","leftarrow","leftarrow","leftarrow","leftarrow","leftarrow"],"horizon":10,"forced_choices":["rightarrow","leftarrow","leftarrow","rightarrow"],"right_color":"lightblue","left_color":"orange","left_mu":60,"right_mu":52,"left_numbers":[65,48,61,48,59,63,58,81,64,48],"right_numbers":[56,66,52,45,36,61,41,48,45,42],"points_earned":560,"phase":"task","trial_type":"horizons-task","trial_index":60,"time_elapsed":806588,"internal_node_id":"0.0-56.0","task_version":"0.2"},{"response_times":[627.8249999741092,380.2650000434369,404.37000000383705,406.47000004537404,2077.519999933429,1710.9849998960271,172.46499995235354,147.55499991588295,149.77500005625188,137.17000000178814],"keys_pressed":["leftarrow","leftarrow","rightarrow","leftarrow","rightarrow","leftarrow","leftarrow","leftarrow","leftarrow","leftarrow"],"horizon":10,"forced_choices":["leftarrow","leftarrow","rightarrow","leftarrow"],"right_color":"lightblue","left_color":"orange","left_mu":60,"right_mu":48,"left_numbers":[54,59,65,63,77,62,58,49,66,50],"right_numbers":[59,43,41,57,36,54,49,32,37,49],"points_earned":538,"phase":"task","trial_type":"horizons-task","trial_index":61,"time_elapsed":814309,"internal_node_id":"0.0-57.0","task_version":"0.2"},{"response_times":[530.4949999554083,448.41499999165535,362.07500007003546,484.8700000438839,1285.0649999454618,1619.994999957271,699.4999999878928,157.0449999999255,141.70000003650784,144.74000001791865],"keys_pressed":["leftarrow","rightarrow","leftarrow","rightarrow","leftarrow","leftarrow","leftarrow","leftarrow","leftarrow","leftarrow"],"horizon":10,"forced_choices":["leftarrow","rightarrow","leftarrow","rightarrow"],"right_color":"lightblue","left_color":"orange","left_mu":60,"right_mu":48,"left_numbers":[65,59,53,62,71,56,57,59,48,58],"right_numbers":[42,58,42,45,64,48,53,52,48,47],"points_earned":570,"phase":"task","trial_type":"horizons-task","trial_index":62,"time_elapsed":821689,"internal_node_id":"0.0-58.0","task_version":"0.2"},{"response_times":[693.9149999525398,339.0450000297278,590.2899999637157,651.4149999711663,582.2799999732524,861.9099999777973,833.2500000251457,152.0200000377372,150.50999994855374,138.22500000242144],"keys_pressed":["leftarrow","rightarrow","rightarrow","rightarrow","leftarrow","leftarrow","leftarrow","leftarrow","leftarrow","leftarrow"],"horizon":10,"forced_choices":["leftarrow","rightarrow","rightarrow","rightarrow"],"right_color":"lightblue","left_color":"orange","left_mu":60,"right_mu":52,"left_numbers":[78,54,53,67,63,62,56,62,68,56],"right_numbers":[62,52,53,44,68,57,54,38,64,61],"points_earned":594,"phase":"task","trial_type":"horizons-task","trial_index":63,"time_elapsed":828188,"internal_node_id":"0.0-59.0","task_version":"0.2"},{"response_times":[577.0900000352412,365.7299999613315,528.1100000720471,518.8399999169633,949.9350000405684,1081.9299999857321,180.67499995231628,159.03000009711832,162.78500005137175,154.42999999504536],"keys_pressed":["rightarrow","rightarrow","leftarrow","rightarrow","leftarrow","leftarrow","leftarrow","leftarrow","leftarrow","leftarrow"],"horizon":10,"forced_choices":["rightarrow","rightarrow","leftarrow","rightarrow"],"right_color":"orange","left_color":"lightblue","left_mu":40,"right_mu":28,"left_numbers":[51,41,35,52,53,45,42,39,40,29],"right_numbers":[20,12,17,9,31,30,39,18,36,26],"points_earned":324,"phase":"task","trial_type":"horizons-task","trial_index":64,"time_elapsed":834372,"internal_node_id":"0.0-60.0","task_version":"0.2"},{"response_times":[462.195000029169,863.4949999395758,625.3700000233948,838.2449999917299,957.9549999907613],"keys_pressed":["rightarrow","rightarrow","rightarrow","leftarrow","leftarrow"],"horizon":5,"forced_choices":["rightarrow","rightarrow","rightarrow","leftarrow"],"right_color":"orange","left_color":"lightblue","left_mu":40,"right_mu":10,"left_numbers":[42,41,45,36,47],"right_numbers":[15,0,22,0,22],"points_earned":120,"phase":"task","trial_type":"horizons-task","trial_index":65,"time_elapsed":839627,"internal_node_id":"0.0-61.0","task_version":"0.2"},{"response_times":[470.13500006869435,550.8150000823662,581.1349999858066,1694.565000012517,1976.8099999055266],"keys_pressed":["rightarrow","leftarrow","leftarrow","leftarrow","rightarrow"],"horizon":5,"forced_choices":["rightarrow","leftarrow","leftarrow","leftarrow"],"right_color":"orange","left_color":"lightblue","left_mu":60,"right_mu":90,"left_numbers":[52,58,69,43,52],"right_numbers":[89,85,95,81,85],"points_earned":344,"phase":"task","trial_type":"horizons-task","trial_index":66,"time_elapsed":846406,"internal_node_id":"0.0-62.0","task_version":"0.2"},{"response_times":[591.164999990724,463.3499999763444,380.54000004194677,572.9849999770522,1239.350000047125],"keys_pressed":["rightarrow","rightarrow","rightarrow","leftarrow","leftarrow"],"horizon":5,"forced_choices":["rightarrow","rightarrow","rightarrow","leftarrow"],"right_color":"lightblue","left_color":"orange","left_mu":60,"right_mu":30,"left_numbers":[55,49,55,62,44],"right_numbers":[30,20,30,38,16],"points_earned":186,"phase":"task","trial_type":"horizons-task","trial_index":67,"time_elapsed":851159,"internal_node_id":"0.0-63.0","task_version":"0.2"},{"response_times":[945.5350000644103,468.1950000813231,462.28999993763864,633.9450000086799,1955.435000010766],"keys_pressed":["leftarrow","leftarrow","rightarrow","rightarrow","rightarrow"],"horizon":5,"forced_choices":["leftarrow","leftarrow","rightarrow","rightarrow"],"right_color":"lightblue","left_color":"orange","left_mu":40,"right_mu":44,"left_numbers":[33,43,53,48,22],"right_numbers":[44,35,47,41,42],"points_earned":206,"phase":"task","trial_type":"horizons-task","trial_index":68,"time_elapsed":857129,"internal_node_id":"0.0-64.0","task_version":"0.2"},{"response_times":[951.4849999686703,454.4400000013411,383.86499998159707,493.5250000562519,976.8999998923391,595.0049998937175,148.16499990411103,145.62999992631376,153.0849999981001,151.51500003412366],"keys_pressed":["leftarrow","rightarrow","rightarrow","leftarrow","rightarrow","rightarrow","rightarrow","rightarrow","rightarrow","rightarrow"],"horizon":10,"forced_choices":["leftarrow","rightarrow","rightarrow","leftarrow"],"right_color":"orange","left_color":"lightblue","left_mu":60,"right_mu":80,"left_numbers":[58,65,66,57,66,57,67,60,53,71],"right_numbers":[76,80,89,89,80,65,84,71,73,95],"points_earned":752,"phase":"task","trial_type":"horizons-task","trial_index":69,"time_elapsed":863089,"internal_node_id":"0.0-65.0","task_version":"0.2"},{"response_times":[780.2750000264496,540.6650000950322,680.8899999596179,532.0849999552593,680.7099999859929],"keys_pressed":["rightarrow","leftarrow","leftarrow","leftarrow","rightarrow"],"horizon":5,"forced_choices":["rightarrow","leftarrow","leftarrow","leftarrow"],"right_color":"lightblue","left_color":"orange","left_mu":40,"right_mu":70,"left_numbers":[54,38,41,31,33],"right_numbers":[67,71,76,78,71],"points_earned":248,"phase":"task","trial_type":"horizons-task","trial_index":70,"time_elapsed":867811,"internal_node_id":"0.0-66.0","task_version":"0.2"},{"response_times":[616.3850000593811,384.7050000913441,451.6099999891594,408.350000041537,786.13000002224],"keys_pressed":["leftarrow","leftarrow","rightarrow","leftarrow","leftarrow"],"horizon":5,"forced_choices":["leftarrow","leftarrow","rightarrow","leftarrow"],"right_color":"lightblue","left_color":"orange","left_mu":60,"right_mu":48,"left_numbers":[58,58,62,66,70],"right_numbers":[44,50,52,40,46],"points_earned":304,"phase":"task","trial_type":"horizons-task","trial_index":71,"time_elapsed":871965,"internal_node_id":"0.0-67.0","task_version":"0.2"},{"response_times":[522.8950000600889,410.3949998971075,379.4200000120327,537.5900000799447,1254.384999978356],"keys_pressed":["leftarrow","rightarrow","rightarrow","leftarrow","rightarrow"],"horizon":5,"forced_choices":["leftarrow","rightarrow","rightarrow","leftarrow"],"right_color":"lightblue","left_color":"orange","left_mu":40,"right_mu":70,"left_numbers":[38,39,52,45,37],"right_numbers":[78,79,74,56,64],"points_earned":300,"phase":"task","trial_type":"horizons-task","trial_index":72,"time_elapsed":876578,"internal_node_id":"0.0-68.0","task_version":"0.2"},{"response_times":[466.2549999775365,360.4449999984354,430.7000000262633,530.849999981001,2000.5700000328943],"keys_pressed":["rightarrow","rightarrow","leftarrow","leftarrow","rightarrow"],"horizon":5,"forced_choices":["rightarrow","rightarrow","leftarrow","leftarrow"],"right_color":"orange","left_color":"lightblue","left_mu":40,"right_mu":60,"left_numbers":[44,39,46,45,50],"right_numbers":[50,61,58,65,45],"points_earned":247,"phase":"task","trial_type":"horizons-task","trial_index":73,"time_elapsed":881871,"internal_node_id":"0.0-69.0","task_version":"0.2"},{"response_times":[616.8349999934435,635.0949999177828,484.54500001389533,817.4550000112504,1591.3650000002235],"keys_pressed":["leftarrow","rightarrow","leftarrow","rightarrow","rightarrow"],"horizon":5,"forced_choices":["leftarrow","rightarrow","leftarrow","rightarrow"],"right_color":"lightblue","left_color":"orange","left_mu":40,"right_mu":52,"left_numbers":[43,33,28,51,39],"right_numbers":[35,52,49,53,48],"points_earned":224,"phase":"task","trial_type":"horizons-task","trial_index":74,"time_elapsed":887523,"internal_node_id":"0.0-70.0","task_version":"0.2"},{"response_times":[591.2450000178069,409.63000000920147,424.03999995440245,403.13999995123595,414.7550000343472,1797.5500000175089,150.0450000166893,146.82500006165355,149.6850000694394,142.26999995298684],"keys_pressed":["leftarrow","leftarrow","rightarrow","rightarrow","leftarrow","rightarrow","rightarrow","rightarrow","rightarrow","rightarrow"],"horizon":10,"forced_choices":["leftarrow","leftarrow","rightarrow","rightarrow"],"right_color":"orange","left_color":"lightblue","left_mu":60,"right_mu":90,"left_numbers":[52,66,51,59,56,63,56,73,69,52],"right_numbers":[83,87,92,92,100,84,85,94,82,97],"points_earned":800,"phase":"task","trial_type":"horizons-task","trial_index":75,"time_elapsed":893658,"internal_node_id":"0.0-71.0","task_version":"0.2"},{"response_times":[860.3350000921637,388.87999998405576,383.0050000688061,515.0900000007823,1556.4500000327826,693.8000000081956,1781.16500005126,205.904999980703,149.559999932535,148.28500000294298],"keys_pressed":["leftarrow","rightarrow","rightarrow","rightarrow","leftarrow","leftarrow","leftarrow","leftarrow","leftarrow","leftarrow"],"horizon":10,"forced_choices":["leftarrow","rightarrow","rightarrow","rightarrow"],"right_color":"lightblue","left_color":"orange","left_mu":60,"right_mu":56,"left_numbers":[53,63,72,61,53,48,62,65,49,68],"right_numbers":[41,50,30,52,47,65,62,53,70,58],"points_earned":530,"phase":"task","trial_type":"horizons-task","trial_index":76,"time_elapsed":901846,"internal_node_id":"0.0-72.0","task_version":"0.2"},{"response_times":[551.9850000273436,299.2599999997765,379.76000003982335,417.0099999755621,2415.9500000532717,842.2499999869615,519.0949999960139,343.08499994222075,143.35000002756715,141.83500001672655],"keys_pressed":["leftarrow","leftarrow","rightarrow","rightarrow","leftarrow","rightarrow","leftarrow","leftarrow","leftarrow","leftarrow"],"horizon":10,"forced_choices":["leftarrow","leftarrow","rightarrow","rightarrow"],"right_color":"lightblue","left_color":"orange","left_mu":40,"right_mu":44,"left_numbers":[49,41,31,33,38,36,35,30,13,49],"right_numbers":[44,59,46,33,44,34,38,49,37,35],"points_earned":368,"phase":"task","trial_type":"horizons-task","trial_index":77,"time_elapsed":909406,"internal_node_id":"0.0-73.0","task_version":"0.2"},{"response_times":[492.2399999340996,336.974999983795,440.76000002678484,768.5599999967963,1763.5299999965355],"keys_pressed":["rightarrow","rightarrow","leftarrow","leftarrow","rightarrow"],"horizon":5,"forced_choices":["rightarrow","rightarrow","leftarrow","leftarrow"],"right_color":"orange","left_color":"lightblue","left_mu":60,"right_mu":68,"left_numbers":[56,68,45,59,60],"right_numbers":[77,66,79,72,64],"points_earned":311,"phase":"task","trial_type":"horizons-task","trial_index":78,"time_elapsed":914714,"internal_node_id":"0.0-74.0","task_version":"0.2"},{"response_times":[546.3749999180436,376.44500005990267,450.48499992117286,501.2499999720603,1773.9999999757856],"keys_pressed":["leftarrow","rightarrow","leftarrow","rightarrow","leftarrow"],"horizon":5,"forced_choices":["leftarrow","rightarrow","leftarrow","rightarrow"],"right_color":"lightblue","left_color":"orange","left_mu":60,"right_mu":56,"left_numbers":[65,49,62,49,67],"right_numbers":[48,44,53,58,61],"points_earned":296,"phase":"task","trial_type":"horizons-task","trial_index":79,"time_elapsed":919870,"internal_node_id":"0.0-75.0","task_version":"0.2"},{"response_times":[1279.2400000616908,361.0900000203401,597.5549999857321,571.5250000357628,211.44500002264977,3916.505000088364,161.94999997969717,140.3300000820309,157.47500001452863,152.37000002525747],"keys_pressed":["leftarrow","leftarrow","leftarrow","rightarrow","rightarrow","leftarrow","leftarrow","leftarrow","leftarrow","leftarrow"],"horizon":10,"forced_choices":["leftarrow","leftarrow","leftarrow","rightarrow"],"right_color":"lightblue","left_color":"orange","left_mu":40,"right_mu":32,"left_numbers":[47,48,33,40,37,46,35,40,28,40],"right_numbers":[40,20,20,35,29,33,36,21,50,33],"points_earned":381,"phase":"task","trial_type":"horizons-task","trial_index":80,"time_elapsed":928925,"internal_node_id":"0.0-76.0","task_version":"0.2"},{"response_times":[637.7050000010058,373.5249999444932,410.2750000311062,3200.399999972433,1391.71500003431],"keys_pressed":["leftarrow","rightarrow","leftarrow","leftarrow","rightarrow"],"horizon":5,"forced_choices":["leftarrow","rightarrow","leftarrow","leftarrow"],"right_color":"lightblue","left_color":"orange","left_mu":40,"right_mu":52,"left_numbers":[37,29,47,37,36],"right_numbers":[49,50,56,68,52],"points_earned":223,"phase":"task","trial_type":"horizons-task","trial_index":81,"time_elapsed":936445,"internal_node_id":"0.0-77.0","task_version":"0.2"},{"response_times":[738.7800000142306,385.2750000078231,406.98000008706003,451.05499995406717,1617.7950000856072,528.8399999262765,762.9799999995157,155.8749999385327,151.86500002164394,135.61999995727092],"keys_pressed":["leftarrow","rightarrow","rightarrow","leftarrow","leftarrow","leftarrow","leftarrow","leftarrow","leftarrow","leftarrow"],"horizon":10,"forced_choices":["leftarrow","rightarrow","rightarrow","leftarrow"],"right_color":"lightblue","left_color":"orange","left_mu":60,"right_mu":40,"left_numbers":[63,66,60,68,51,77,48,54,52,76],"right_numbers":[37,41,42,57,49,29,28,51,40,47],"points_earned":572,"phase":"task","trial_type":"horizons-task","trial_index":82,"time_elapsed":943285,"internal_node_id":"0.0-78.0","task_version":"0.2"},{"response_times":[521.9649999635294,379.7300000442192,1066.5149999549612,589.9799999315292,1171.1150000337511,1043.0400000186637,456.57999999821186,165.46499996911734,147.0550000667572,347.1750000026077],"keys_pressed":["rightarrow","leftarrow","leftarrow","leftarrow","rightarrow","rightarrow","rightarrow","rightarrow","rightarrow","rightarrow"],"horizon":10,"forced_choices":["rightarrow","leftarrow","leftarrow","leftarrow"],"right_color":"orange","left_color":"lightblue","left_mu":60,"right_mu":90,"left_numbers":[52,70,58,68,58,67,71,69,70,56],"right_numbers":[91,85,93,101,79,90,100,92,82,94],"points_earned":824,"phase":"task","trial_type":"horizons-task","trial_index":83,"time_elapsed":950679,"internal_node_id":"0.0-79.0","task_version":"0.2"},{"response_times":[692.4049999797717,376.42999994568527,513.4950000792742,449.94999992195517,1850.624999962747,916.8800000334159,214.9800000479445,173.9600000437349,162.430000025779,365.87500001769513],"keys_pressed":["leftarrow","leftarrow","leftarrow","rightarrow","rightarrow","rightarrow","rightarrow","rightarrow","rightarrow","rightarrow"],"horizon":10,"forced_choices":["leftarrow","leftarrow","leftarrow","rightarrow"],"right_color":"lightblue","left_color":"orange","left_mu":40,"right_mu":44,"left_numbers":[35,43,33,25,21,45,46,37,39,45],"right_numbers":[41,37,57,43,51,48,61,53,48,33],"points_earned":448,"phase":"task","trial_type":"horizons-task","trial_index":84,"time_elapsed":957903,"internal_node_id":"0.0-80.0","task_version":"0.2"},{"response_times":[519.5250000106171,669.2500000353903,660.7500000391155,470.2400000533089,1424.1400000173599,536.9550000177696,145.4050000756979,146.86500001698732,150.35000001080334,156.88000002410263],"keys_pressed":["rightarrow","rightarrow","leftarrow","leftarrow","rightarrow","rightarrow","rightarrow","rightarrow","rightarrow","rightarrow"],"horizon":10,"forced_choices":["rightarrow","rightarrow","leftarrow","leftarrow"],"right_color":"orange","left_color":"lightblue","left_mu":60,"right_mu":68,"left_numbers":[52,59,54,53,51,61,70,62,64,63],"right_numbers":[74,75,55,61,74,71,66,70,72,71],"points_earned":680,"phase":"task","trial_type":"horizons-task","trial_index":85,"time_elapsed":964289,"internal_node_id":"0.0-81.0","task_version":"0.2"},{"response_times":[881.6499999957159,350.6150000030175,317.90499994531274,475.9199999971315,1348.839999991469],"keys_pressed":["rightarrow","leftarrow","rightarrow","leftarrow","rightarrow"],"horizon":5,"forced_choices":["rightarrow","leftarrow","rightarrow","leftarrow"],"right_color":"orange","left_color":"lightblue","left_mu":60,"right_mu":64,"left_numbers":[68,40,54,53,80],"right_numbers":[59,60,41,73,75],"points_earned":268,"phase":"task","trial_type":"horizons-task","trial_index":86,"time_elapsed":969171,"internal_node_id":"0.0-82.0","task_version":"0.2"},{"response_times":[589.2600000370294,363.80000005010515,371.5350000420585,412.3799999943003,1284.7000000765547],"keys_pressed":["leftarrow","leftarrow","leftarrow","rightarrow","rightarrow"],"horizon":5,"forced_choices":["leftarrow","leftarrow","leftarrow","rightarrow"],"right_color":"lightblue","left_color":"orange","left_mu":40,"right_mu":44,"left_numbers":[33,35,43,42,47],"right_numbers":[28,49,47,41,45],"points_earned":197,"phase":"task","trial_type":"horizons-task","trial_index":87,"time_elapsed":973698,"internal_node_id":"0.0-83.0","task_version":"0.2"},{"response_times":[449.8500000918284,390.45500010252,370.08999998215586,631.5199999371544,1419.80000003241],"keys_pressed":["rightarrow","leftarrow","rightarrow","rightarrow","rightarrow"],"horizon":5,"forced_choices":["rightarrow","leftarrow","rightarrow","rightarrow"],"right_color":"orange","left_color":"lightblue","left_mu":40,"right_mu":60,"left_numbers":[37,41,30,32,33],"right_numbers":[63,65,50,70,75],"points_earned":299,"phase":"task","trial_type":"horizons-task","trial_index":88,"time_elapsed":978465,"internal_node_id":"0.0-84.0","task_version":"0.2"},{"response_times":[509.0750000672415,421.27499997150153,360.43500003870577,609.7049999516457,1220.1150000328198],"keys_pressed":["rightarrow","leftarrow","rightarrow","rightarrow","leftarrow"],"horizon":5,"forced_choices":["rightarrow","leftarrow","rightarrow","rightarrow"],"right_color":"lightblue","left_color":"orange","left_mu":60,"right_mu":40,"left_numbers":[57,59,42,61,53],"right_numbers":[42,42,42,44,32],"points_earned":240,"phase":"task","trial_type":"horizons-task","trial_index":89,"time_elapsed":983091,"internal_node_id":"0.0-85.0","task_version":"0.2"},{"response_times":[566.4399999659508,332.0199999725446,438.4700000518933,411.1750000156462,1228.289999999106],"keys_pressed":["rightarrow","leftarrow","leftarrow","rightarrow","rightarrow"],"horizon":5,"forced_choices":["rightarrow","leftarrow","leftarrow","rightarrow"],"right_color":"orange","left_color":"lightblue","left_mu":40,"right_mu":28,"left_numbers":[35,36,14,45,34],"right_numbers":[30,24,18,33,14],"points_earned":127,"phase":"task","trial_type":"horizons-task","trial_index":90,"time_elapsed":987572,"internal_node_id":"0.0-86.0","task_version":"0.2"},{"response_times":[649.9450000701472,634.8849999485537,426.3149999314919,568.6699999496341,2418.16999996081,741.4050000952557,656.1500000534579,528.4199999878183,522.8049999568611,357.4750000843778],"keys_pressed":["rightarrow","rightarrow","rightarrow","leftarrow","leftarrow","leftarrow","leftarrow","rightarrow","leftarrow","leftarrow"],"horizon":10,"forced_choices":["rightarrow","rightarrow","rightarrow","leftarrow"],"right_color":"orange","left_color":"lightblue","left_mu":40,"right_mu":10,"left_numbers":[50,34,47,23,39,47,27,45,36,47],"right_numbers":[9,0,28,4,0,3,18,7,1,13],"points_earned":263,"phase":"task","trial_type":"horizons-task","trial_index":91,"time_elapsed":996582,"internal_node_id":"0.0-87.0","task_version":"0.2"},{"rt":16981.68500000611,"responses":{"age":"26","gender-categorical":"Male","gender-free-response":"","ethnicity":"Not Hispanic or Latino","race":["White"],"language":"No","fluency":"Very well"},"survey":"demographics","trial_type":"survey-demo","trial_index":92,"time_elapsed":1013569,"internal_node_id":"0.0-88.0","task_version":"0.2"},{"rt":31448.65999999456,"responses":{"difficulty":"4","fun":"4","clarity":"5","strategy":"Tested a few cases to see and then decide based on what numbers I uncovered.","feedback":""},"survey":"debrief","trial_type":"survey-debrief","trial_index":93,"time_elapsed":1045030,"internal_node_id":"0.0-89.0","task_version":"0.2","interactions":"[]"}]