[{"view_history":"[{\"page_index\":0,\"viewing_time\":2846.0000000000005}]","rt":2846.9999999999995,"trial_type":"instructions","trial_index":0,"time_elapsed":2876,"internal_node_id":"0.0-0.0","task_version":"0.2"},{"item_order":[2,10,6,12,14,0,3,11,15,9,13,5,7,1,8,4],"responses":{"Q03":"4","Q11":"5","Q07":"2","Q13":"3","Q15":"3","Q01":"4","Q04":"5","Q12":"5","Q16":"5","Q10":"2","Q14":"2","Q06":"3","Q08":"4","Q02":"3","Q09":"3","Q05":"3"},"radio_events":[11180,21263,30471,32475,35117,38122,44326.00000000001,61335,69745,74112,77949.00000000001,87080,98162,106094,107855,111627,116110],"key_events":[],"mouse_events":[0,11180,21263,27789,30471,32475,35117,38122,44326.00000000001,61335,67334,69745,74112,77949.00000000001,87080,98162,103581,106094,107855,111627,116110,116977],"rt":116994,"survey":"nfc","trial_type":"survey-template","trial_index":1,"time_elapsed":119879,"internal_node_id":"0.0-1.0","task_version":"0.2"},{"item_order":[4,16,9,6,8,7,5,13,14,2,0,12,11,15,10,1,3],"responses":{"Q05":"4","Q17":"0","Q10":"4","Q07":"3","Q09":"2","Q08":"4","Q06":"3","Q14":"3","Q15":"4","Q03":"4","Q01":"3","Q13":"4","Q12":"4","Q16":"4","Q11":"2","Q02":"3","Q04":"3"},"radio_events":[7298,15767.00000000003,16919,18955,24867,28196,32580,34477,37556,41654.00000000003,48422.00000000003,53494,59108,61385,63687,67468,68705,70263],"key_events":[],"mouse_events":[7298,11858,14028,15767.00000000003,16919,18955,24867,28196,32580,34477,37556,41654.00000000003,48422.00000000003,53494,56337,57783,59108,60109,61385,63687,67468,68705,70263,71127],"rt":71142.00000000003,"survey":"pswq","trial_type":"survey-template","trial_index":2,"time_elapsed":191028,"internal_node_id":"0.0-2.0","task_version":"0.2"},{"item_order":[7,1,0,4,5,12,9,3,8,2,6,11,10],"responses":{"Q08":"4","Q02":"3","Q01":"2","Q05":"1","Q06":"1","Q13":"4","Q10":"2","Q04":"3","Q09":"1","Q03":"1","Q07":"1","Q12":"1","Q11":"3"},"radio_events":[3900,6542,9684,14425.00000000003,20895.00000000003,22007,26966.00000000003,31143,34387,41676,44475,49812.00000000003,52178,53351,54634],"key_events":[],"mouse_events":[3900,6542,9684,14425.00000000003,17704,20895.00000000003,22007,26966.00000000003,31143,33438,34387,41676,44475,48915,49812.00000000003,52178,53351,54634,55292],"rt":55300.00000000003,"survey":"ius12","trial_type":"survey-template","trial_index":3,"time_elapsed":246334,"internal_node_id":"0.0-3.0","task_version":"0.2"},{"view_history":"[{\"page_index\":0,\"viewing_time\":3527},{\"page_index\":1,\"viewing_time\":4082.999999999971},{\"page_index\":2,\"viewing_time\":10512.00000000003},{\"page_index\":3,\"viewing_time\":13818},{\"page_index\":4,\"viewing_time\":4621},{\"page_index\":5,\"viewing_time\":2701},{\"page_index\":6,\"viewing_time\":4592},{\"page_index\":7,\"viewing_time\":7541},{\"page_index\":8,\"viewing_time\":5755},{\"page_index\":9,\"viewing_time\":7674}]","rt":64824,"trial_type":"instructions","trial_index":4,"time_elapsed":311161,"internal_node_id":"0.0-4.0-0.0","task_version":"0.2"},{"response_times":[1045,1060.0000000000582,1088.9999999999418,1996,10425],"keys_pressed":["rightarrow","leftarrow","rightarrow","rightarrow","rightarrow"],"horizon":5,"forced_choices":["rightarrow","leftarrow","rightarrow","rightarrow"],"right_color":"lightblue","left_color":"orange","left_mu":40,"right_mu":20,"left_numbers":[48,33,27,47,37],"right_numbers":[23,17,17,33,31],"points_earned":137,"phase":"practice","trial_type":"horizons-task","trial_index":5,"time_elapsed":328286,"internal_node_id":"0.0-4.0-1.0","task_version":"0.2"},{"response_times":[1174,702,763,700,1166,24,3208,2,3908,43],"keys_pressed":["leftarrow","leftarrow","rightarrow","rightarrow","leftarrow","rightarrow","rightarrow","leftarrow","leftarrow","rightarrow"],"horizon":10,"forced_choices":["leftarrow","leftarrow","rightarrow","rightarrow"],"right_color":"orange","left_color":"lightblue","left_mu":60,"right_mu":70,"left_numbers":[61,60,55,54,62,32,59,58,51,48],"right_numbers":[86,73,71,67,81,64,74,65,54,63],"points_earned":631,"phase":"practice","trial_type":"horizons-task","trial_index":6,"time_elapsed":341480,"internal_node_id":"0.0-4.0-2.0","task_version":"0.2"},{"view_history":"[{\"page_index\":0,\"viewing_time\":1599.9999999999418},{\"page_index\":1,\"viewing_time\":1970},{\"page_index\":2,\"viewing_time\":3292},{\"page_index\":3,\"viewing_time\":1546}]","rt":8408.999999999942,"trial_type":"instructions","trial_index":7,"time_elapsed":349890,"internal_node_id":"0.0-4.0-3.0","task_version":"0.2"},{"responses":["true","false","true"],"num_errors":0,"rt":9720.999999999942,"trial_type":"horizons-comprehension","trial_index":8,"time_elapsed":359615,"internal_node_id":"0.0-4.0-4.0","task_version":"0.2"},{"trial_type":"call-function","trial_index":9,"time_elapsed":359618,"internal_node_id":"0.0-5.0","task_version":"0.2"},{"view_history":"[{\"page_index\":0,\"viewing_time\":1404.9999999999418},{\"page_index\":1,\"viewing_time\":2206}]","rt":3610.999999999942,"trial_type":"instructions","trial_index":10,"time_elapsed":363230,"internal_node_id":"0.0-6.0","task_version":"0.2"},{"response_times":[792,960.9999999999418,1070,1300,1400.0000000000582,7.999999999941792,2310,2,1720,24],"keys_pressed":["rightarrow","leftarrow","rightarrow","rightarrow","rightarrow","leftarrow","rightarrow","leftarrow","leftarrow","rightarrow"],"horizon":10,"forced_choices":["rightarrow","leftarrow","rightarrow","rightarrow"],"right_color":"orange","left_color":"lightblue","left_mu":60,"right_mu":72,"left_numbers":[61,41,58,73,73,50,68,64,68,61],"right_numbers":[64,82,72,70,58,73,83,75,63,76],"points_earned":646,"phase":"task","trial_type":"horizons-task","trial_index":11,"time_elapsed":374327,"internal_node_id":"0.0-7.0","task_version":"0.2"},{"response_times":[7745,500,687.0000000000582,1403.9999999999418,9086],"keys_pressed":["rightarrow","leftarrow","leftarrow","rightarrow","rightarrow"],"horizon":5,"forced_choices":["rightarrow","leftarrow","leftarrow","rightarrow"],"right_color":"lightblue","left_color":"orange","left_mu":40,"right_mu":36,"left_numbers":[34,35,43,38,36],"right_numbers":[37,37,28,37,42],"points_earned":194,"phase":"task","trial_type":"horizons-task","trial_index":12,"time_elapsed":395254,"internal_node_id":"0.0-8.0","task_version":"0.2"},{"response_times":[878,493,600,707.0000000000582,4645.999999999942,4249,3556,1418,1927,984],"keys_pressed":["leftarrow","rightarrow","leftarrow","leftarrow","rightarrow","leftarrow","rightarrow","leftarrow","leftarrow","leftarrow"],"horizon":10,"forced_choices":["leftarrow","rightarrow","leftarrow","leftarrow"],"right_color":"lightblue","left_color":"orange","left_mu":40,"right_mu":36,"left_numbers":[34,38,35,43,55,38,38,39,54,40],"right_numbers":[40,41,37,29,24,17,29,38,53,43],"points_earned":377,"phase":"task","trial_type":"horizons-task","trial_index":13,"time_elapsed":416218,"internal_node_id":"0.0-9.0","task_version":"0.2"},{"response_times":[766,705,604,1135.0000000000582,1057.9999999999418],"keys_pressed":["rightarrow","rightarrow","leftarrow","leftarrow","leftarrow"],"horizon":5,"forced_choices":["rightarrow","rightarrow","leftarrow","leftarrow"],"right_color":"orange","left_color":"lightblue","left_mu":60,"right_mu":30,"left_numbers":[52,48,59,37,56],"right_numbers":[26,37,19,37,42],"points_earned":215,"phase":"task","trial_type":"horizons-task","trial_index":14,"time_elapsed":421991,"internal_node_id":"0.0-10.0","task_version":"0.2"},{"response_times":[714,733,584,789,1099.0000000000582],"keys_pressed":["leftarrow","leftarrow","rightarrow","rightarrow","leftarrow"],"horizon":5,"forced_choices":["leftarrow","leftarrow","rightarrow","rightarrow"],"right_color":"lightblue","left_color":"orange","left_mu":40,"right_mu":10,"left_numbers":[53,43,39,56,46],"right_numbers":[7,8,15,18,16],"points_earned":175,"phase":"task","trial_type":"horizons-task","trial_index":15,"time_elapsed":427412,"internal_node_id":"0.0-11.0","task_version":"0.2"},{"response_times":[618.0000000000582,570.9999999999418,788,850,898],"keys_pressed":["rightarrow","rightarrow","rightarrow","leftarrow","rightarrow"],"horizon":5,"forced_choices":["rightarrow","rightarrow","rightarrow","leftarrow"],"right_color":"lightblue","left_color":"orange","left_mu":60,"right_mu":80,"left_numbers":[56,53,73,50,59],"right_numbers":[73,82,67,82,88],"points_earned":360,"phase":"task","trial_type":"horizons-task","trial_index":16,"time_elapsed":432641,"internal_node_id":"0.0-12.0","task_version":"0.2"},{"response_times":[752.0000000000582,719.9999999999418,565,553,805],"keys_pressed":["rightarrow","leftarrow","rightarrow","leftarrow","leftarrow"],"horizon":5,"forced_choices":["rightarrow","leftarrow","rightarrow","leftarrow"],"right_color":"orange","left_color":"lightblue","left_mu":40,"right_mu":20,"left_numbers":[48,35,32,51,41],"right_numbers":[23,15,17,12,26],"points_earned":167,"phase":"task","trial_type":"horizons-task","trial_index":17,"time_elapsed":437539,"internal_node_id":"0.0-13.0","task_version":"0.2"},{"response_times":[963,773,807,661,1429.0000000000582],"keys_pressed":["leftarrow","leftarrow","leftarrow","rightarrow","leftarrow"],"horizon":5,"forced_choices":["leftarrow","leftarrow","leftarrow","rightarrow"],"right_color":"orange","left_color":"lightblue","left_mu":60,"right_mu":48,"left_numbers":[56,60,75,61,71],"right_numbers":[54,58,52,47,53],"points_earned":309,"phase":"task","trial_type":"horizons-task","trial_index":18,"time_elapsed":443675,"internal_node_id":"0.0-14.0","task_version":"0.2"},{"response_times":[682.0000000000582,2068.999999999942,804,503,2581,1261,1262,1467.0000000000582,1229.9999999999418,1266],"keys_pressed":["rightarrow","rightarrow","leftarrow","rightarrow","leftarrow","leftarrow","rightarrow","leftarrow","leftarrow","leftarrow"],"horizon":10,"forced_choices":["rightarrow","rightarrow","leftarrow","rightarrow"],"right_color":"orange","left_color":"lightblue","left_mu":40,"right_mu":20,"left_numbers":[41,47,41,35,41,31,44,40,36,38],"right_numbers":[21,22,14,15,18,38,18,0,15,17],"points_earned":303,"phase":"task","trial_type":"horizons-task","trial_index":19,"time_elapsed":458305,"internal_node_id":"0.0-15.0","task_version":"0.2"},{"response_times":[640.9999999999418,614.0000000000582,529.9999999999418,732.0000000000582,3370],"keys_pressed":["rightarrow","rightarrow","leftarrow","rightarrow","rightarrow"],"horizon":5,"forced_choices":["rightarrow","rightarrow","leftarrow","rightarrow"],"right_color":"orange","left_color":"lightblue","left_mu":40,"right_mu":32,"left_numbers":[43,26,35,48,38],"right_numbers":[30,33,38,37,36],"points_earned":171,"phase":"task","trial_type":"horizons-task","trial_index":20,"time_elapsed":465695,"internal_node_id":"0.0-16.0","task_version":"0.2"},{"response_times":[703,601,494,700,1479,1670,1447,1254.0000000000582,566.9999999999418,571],"keys_pressed":["leftarrow","leftarrow","rightarrow","rightarrow","leftarrow","rightarrow","leftarrow","leftarrow","leftarrow","leftarrow"],"horizon":10,"forced_choices":["leftarrow","leftarrow","rightarrow","rightarrow"],"right_color":"lightblue","left_color":"orange","left_mu":60,"right_mu":56,"left_numbers":[70,64,72,61,56,67,69,68,66,65],"right_numbers":[58,65,64,53,62,62,47,56,54,46],"points_earned":637,"phase":"task","trial_type":"horizons-task","trial_index":21,"time_elapsed":476686,"internal_node_id":"0.0-17.0","task_version":"0.2"},{"response_times":[640,678,545,512,1600.0000000000582,1894.9999999999418,822,894,896,1174],"keys_pressed":["rightarrow","leftarrow","rightarrow","leftarrow","leftarrow","rightarrow","leftarrow","leftarrow","leftarrow","leftarrow"],"horizon":10,"forced_choices":["rightarrow","leftarrow","rightarrow","leftarrow"],"right_color":"orange","left_color":"lightblue","left_mu":40,"right_mu":20,"left_numbers":[39,35,45,39,43,45,39,32,35,38],"right_numbers":[16,17,28,21,7,19,23,33,25,9],"points_earned":324,"phase":"task","trial_type":"horizons-task","trial_index":22,"time_elapsed":487848,"internal_node_id":"0.0-18.0","task_version":"0.2"},{"response_times":[825,706,738,2123,852.0000000000582],"keys_pressed":["rightarrow","rightarrow","leftarrow","rightarrow","leftarrow"],"horizon":5,"forced_choices":["rightarrow","rightarrow","leftarrow","rightarrow"],"right_color":"lightblue","left_color":"orange","left_mu":40,"right_mu":10,"left_numbers":[40,30,41,48,55],"right_numbers":[0,16,21,13,0],"points_earned":125,"phase":"task","trial_type":"horizons-task","trial_index":23,"time_elapsed":494596,"internal_node_id":"0.0-19.0","task_version":"0.2"},{"response_times":[935,479.9999999999418,672,643,1192],"keys_pressed":["rightarrow","leftarrow","leftarrow","rightarrow","leftarrow"],"horizon":5,"forced_choices":["rightarrow","leftarrow","leftarrow","rightarrow"],"right_color":"lightblue","left_color":"orange","left_mu":40,"right_mu":28,"left_numbers":[45,36,43,37,27],"right_numbers":[36,29,40,23,37],"points_earned":165,"phase":"task","trial_type":"horizons-task","trial_index":24,"time_elapsed":500023,"internal_node_id":"0.0-20.0","task_version":"0.2"},{"response_times":[1446,660.0000000000582,738.9999999999418,814.0000000000582,929,1640,1294,1449.0000000000582,660.9999999999418,647.0000000000582],"keys_pressed":["leftarrow","rightarrow","leftarrow","rightarrow","leftarrow","leftarrow","rightarrow","leftarrow","rightarrow","leftarrow"],"horizon":10,"forced_choices":["leftarrow","rightarrow","leftarrow","rightarrow"],"right_color":"orange","left_color":"lightblue","left_mu":40,"right_mu":32,"left_numbers":[43,42,50,50,56,34,29,32,30,51],"right_numbers":[38,21,35,35,21,24,34,37,25,29],"points_earned":381,"phase":"task","trial_type":"horizons-task","trial_index":25,"time_elapsed":511808,"internal_node_id":"0.0-21.0","task_version":"0.2"},{"response_times":[726,1219.0000000000582,833.9999999999418,573,729.0000000000582],"keys_pressed":["leftarrow","rightarrow","leftarrow","rightarrow","rightarrow"],"horizon":5,"forced_choices":["leftarrow","rightarrow","leftarrow","rightarrow"],"right_color":"lightblue","left_color":"orange","left_mu":40,"right_mu":70,"left_numbers":[45,41,42,28,46],"right_numbers":[84,72,61,68,68],"points_earned":295,"phase":"task","trial_type":"horizons-task","trial_index":26,"time_elapsed":517399,"internal_node_id":"0.0-22.0","task_version":"0.2"},{"response_times":[1069.0000000001164,452,476,433.9999999999418,26630,688,1044,1271,834,1497.0000000001164],"keys_pressed":["rightarrow","leftarrow","rightarrow","leftarrow","leftarrow","rightarrow","rightarrow","rightarrow","rightarrow","rightarrow"],"horizon":10,"forced_choices":["rightarrow","leftarrow","rightarrow","leftarrow"],"right_color":"orange","left_color":"lightblue","left_mu":60,"right_mu":48,"left_numbers":[61,59,65,64,44,41,57,68,58,64],"right_numbers":[42,44,47,37,40,56,65,58,52,46],"points_earned":533,"phase":"task","trial_type":"horizons-task","trial_index":27,"time_elapsed":553298,"internal_node_id":"0.0-23.0","task_version":"0.2"},{"response_times":[733,626,614,581,890],"keys_pressed":["rightarrow","leftarrow","leftarrow","rightarrow","rightarrow"],"horizon":5,"forced_choices":["rightarrow","leftarrow","leftarrow","rightarrow"],"right_color":"orange","left_color":"lightblue","left_mu":60,"right_mu":68,"left_numbers":[61,52,55,52,58],"right_numbers":[77,62,75,83,81],"points_earned":348,"phase":"task","trial_type":"horizons-task","trial_index":28,"time_elapsed":558247,"internal_node_id":"0.0-24.0","task_version":"0.2"},{"response_times":[661,569,573,543.0000000001164,1241.9999999998836,1915,638,938,628,711.0000000001164],"keys_pressed":["leftarrow","rightarrow","leftarrow","rightarrow","rightarrow","rightarrow","rightarrow","leftarrow","rightarrow","rightarrow"],"horizon":10,"forced_choices":["leftarrow","rightarrow","leftarrow","rightarrow"],"right_color":"lightblue","left_color":"orange","left_mu":60,"right_mu":80,"left_numbers":[47,59,47,47,61,60,57,54,53,62],"right_numbers":[75,64,76,79,85,73,67,84,93,90],"points_earned":699,"phase":"task","trial_type":"horizons-task","trial_index":29,"time_elapsed":568169,"internal_node_id":"0.0-25.0","task_version":"0.2"},{"response_times":[531,486,644,836,1205,1166,542,2872,1163,558],"keys_pressed":["rightarrow","rightarrow","leftarrow","leftarrow","rightarrow","leftarrow","rightarrow","rightarrow","leftarrow","rightarrow"],"horizon":10,"forced_choices":["rightarrow","rightarrow","leftarrow","leftarrow"],"right_color":"lightblue","left_color":"orange","left_mu":40,"right_mu":48,"left_numbers":[38,44,28,38,24,38,44,34,35,46],"right_numbers":[48,41,70,53,43,44,38,44,48,40],"points_earned":393,"phase":"task","trial_type":"horizons-task","trial_index":30,"time_elapsed":579677,"internal_node_id":"0.0-26.0","task_version":"0.2"},{"response_times":[572,527,639,487,1665,1111,1299,775,901,632],"keys_pressed":["rightarrow","leftarrow","leftarrow","rightarrow","rightarrow","leftarrow","rightarrow","leftarrow","rightarrow","leftarrow"],"horizon":10,"forced_choices":["rightarrow","leftarrow","leftarrow","rightarrow"],"right_color":"lightblue","left_color":"orange","left_mu":40,"right_mu":36,"left_numbers":[44,49,43,34,37,40,36,33,37,44],"right_numbers":[27,35,27,50,17,20,36,30,19,33],"points_earned":358,"phase":"task","trial_type":"horizons-task","trial_index":31,"time_elapsed":589794,"internal_node_id":"0.0-27.0","task_version":"0.2"},{"response_times":[895,1914.9999999998836,847,1250,3253],"keys_pressed":["leftarrow","rightarrow","rightarrow","rightarrow","rightarrow"],"horizon":5,"forced_choices":["leftarrow","rightarrow","rightarrow","rightarrow"],"right_color":"orange","left_color":"lightblue","left_mu":60,"right_mu":68,"left_numbers":[60,56,67,51,52],"right_numbers":[61,72,72,72,68],"points_earned":344,"phase":"task","trial_type":"horizons-task","trial_index":32,"time_elapsed":599459,"internal_node_id":"0.0-28.0","task_version":"0.2"},{"response_times":[776,2799,507,519,442,1774,676,4534,930,507],"keys_pressed":["leftarrow","leftarrow","rightarrow","leftarrow","rightarrow","leftarrow","rightarrow","leftarrow","rightarrow","leftarrow"],"horizon":10,"forced_choices":["leftarrow","leftarrow","rightarrow","leftarrow"],"right_color":"lightblue","left_color":"orange","left_mu":40,"right_mu":28,"left_numbers":[37,36,42,30,30,22,29,45,41,52],"right_numbers":[25,26,32,35,18,22,24,35,23,28],"points_earned":319,"phase":"task","trial_type":"horizons-task","trial_index":33,"time_elapsed":614426,"internal_node_id":"0.0-29.0","task_version":"0.2"},{"response_times":[581,802,1137,1101,1213],"keys_pressed":["rightarrow","leftarrow","leftarrow","rightarrow","rightarrow"],"horizon":5,"forced_choices":["rightarrow","leftarrow","leftarrow","rightarrow"],"right_color":"orange","left_color":"lightblue","left_mu":40,"right_mu":60,"left_numbers":[11,37,35,33,48],"right_numbers":[61,61,57,51,51],"points_earned":235,"phase":"task","trial_type":"horizons-task","trial_index":34,"time_elapsed":620768,"internal_node_id":"0.0-30.0","task_version":"0.2"},{"response_times":[742.9999999998836,799,544,1162,1247.0000000001164,680.9999999998836,707,1343.0000000001164,640.9999999998836,826],"keys_pressed":["leftarrow","leftarrow","rightarrow","rightarrow","leftarrow","leftarrow","leftarrow","leftarrow","leftarrow","leftarrow"],"horizon":10,"forced_choices":["leftarrow","leftarrow","rightarrow","rightarrow"],"right_color":"lightblue","left_color":"orange","left_mu":40,"right_mu":10,"left_numbers":[40,36,39,43,46,35,47,53,39,50],"right_numbers":[11,12,16,1,1,4,14,11,0,10],"points_earned":363,"phase":"task","trial_type":"horizons-task","trial_index":35,"time_elapsed":630965,"internal_node_id":"0.0-31.0","task_version":"0.2"},{"response_times":[634.9999999998836,1613,1106,844,965,984,516,1298,942,461],"keys_pressed":["leftarrow","rightarrow","rightarrow","rightarrow","rightarrow","leftarrow","rightarrow","rightarrow","leftarrow","rightarrow"],"horizon":10,"forced_choices":["leftarrow","rightarrow","rightarrow","rightarrow"],"right_color":"orange","left_color":"lightblue","left_mu":60,"right_mu":68,"left_numbers":[53,46,61,64,46,64,55,65,58,60],"right_numbers":[46,52,88,71,77,59,68,60,65,63],"points_earned":654,"phase":"task","trial_type":"horizons-task","trial_index":36,"time_elapsed":641832,"internal_node_id":"0.0-32.0","task_version":"0.2"},{"response_times":[699,517.0000000001164,531.9999999998836,769,1515],"keys_pressed":["rightarrow","rightarrow","leftarrow","leftarrow","rightarrow"],"horizon":5,"forced_choices":["rightarrow","rightarrow","leftarrow","leftarrow"],"right_color":"lightblue","left_color":"orange","left_mu":40,"right_mu":48,"left_numbers":[42,33,42,39,37],"right_numbers":[42,56,49,49,33],"points_earned":212,"phase":"task","trial_type":"horizons-task","trial_index":37,"time_elapsed":647366,"internal_node_id":"0.0-33.0","task_version":"0.2"},{"response_times":[687.9999999998836,709,790,1631,1598,981,812,889,566,1264],"keys_pressed":["rightarrow","leftarrow","leftarrow","leftarrow","rightarrow","leftarrow","rightarrow","rightarrow","rightarrow","rightarrow"],"horizon":10,"forced_choices":["rightarrow","leftarrow","leftarrow","leftarrow"],"right_color":"lightblue","left_color":"orange","left_mu":40,"right_mu":48,"left_numbers":[39,35,33,49,26,38,40,36,47,36],"right_numbers":[48,36,50,53,30,43,46,58,47,48],"points_earned":432,"phase":"task","trial_type":"horizons-task","trial_index":38,"time_elapsed":658796,"internal_node_id":"0.0-34.0","task_version":"0.2"},{"response_times":[1198.9999999998836,1374,552.0000000001164,890.9999999998836,1254,709,487.0000000001164,665.9999999998836,656,541],"keys_pressed":["leftarrow","leftarrow","leftarrow","rightarrow","leftarrow","rightarrow","leftarrow","leftarrow","leftarrow","leftarrow"],"horizon":10,"forced_choices":["leftarrow","leftarrow","leftarrow","rightarrow"],"right_color":"orange","left_color":"lightblue","left_mu":60,"right_mu":48,"left_numbers":[62,65,57,57,56,55,64,58,70,68],"right_numbers":[69,39,59,46,61,43,53,46,56,52],"points_earned":589,"phase":"task","trial_type":"horizons-task","trial_index":39,"time_elapsed":668617,"internal_node_id":"0.0-35.0","task_version":"0.2"},{"response_times":[636.0000000001164,652,735,556,1312,1570,551,1174,694,493.0000000001164],"keys_pressed":["leftarrow","rightarrow","leftarrow","rightarrow","rightarrow","leftarrow","rightarrow","rightarrow","rightarrow","rightarrow"],"horizon":10,"forced_choices":["leftarrow","rightarrow","leftarrow","rightarrow"],"right_color":"lightblue","left_color":"orange","left_mu":40,"right_mu":70,"left_numbers":[46,48,35,50,38,41,37,53,48,47],"right_numbers":[68,73,68,77,63,79,66,59,77,74],"points_earned":611,"phase":"task","trial_type":"horizons-task","trial_index":40,"time_elapsed":678495,"internal_node_id":"0.0-36.0","task_version":"0.2"},{"response_times":[662,586,895,491,1164,744,554,638,734,627],"keys_pressed":["rightarrow","leftarrow","leftarrow","rightarrow","rightarrow","rightarrow","rightarrow","rightarrow","rightarrow","rightarrow"],"horizon":10,"forced_choices":["rightarrow","leftarrow","leftarrow","rightarrow"],"right_color":"orange","left_color":"lightblue","left_mu":60,"right_mu":68,"left_numbers":[62,62,54,54,60,64,52,63,54,62],"right_numbers":[74,81,77,65,60,73,74,65,79,68],"points_earned":674,"phase":"task","trial_type":"horizons-task","trial_index":41,"time_elapsed":687091,"internal_node_id":"0.0-37.0","task_version":"0.2"},{"response_times":[1373.0000000001164,599.9999999998836,1668,914,662],"keys_pressed":["leftarrow","rightarrow","rightarrow","rightarrow","leftarrow"],"horizon":5,"forced_choices":["leftarrow","rightarrow","rightarrow","rightarrow"],"right_color":"orange","left_color":"lightblue","left_mu":60,"right_mu":40,"left_numbers":[63,55,56,43,51],"right_numbers":[29,42,40,32,32],"points_earned":228,"phase":"task","trial_type":"horizons-task","trial_index":42,"time_elapsed":693811,"internal_node_id":"0.0-38.0","task_version":"0.2"},{"response_times":[5071,479,718,667,790,1211,438,455,396,422.0000000001164],"keys_pressed":["leftarrow","rightarrow","rightarrow","rightarrow","rightarrow","leftarrow","rightarrow","rightarrow","rightarrow","rightarrow"],"horizon":10,"forced_choices":["leftarrow","rightarrow","rightarrow","rightarrow"],"right_color":"orange","left_color":"lightblue","left_mu":40,"right_mu":60,"left_numbers":[36,46,37,58,34,35,38,46,40,39],"right_numbers":[54,63,71,76,57,50,64,51,59,59],"points_earned":571,"phase":"task","trial_type":"horizons-task","trial_index":43,"time_elapsed":705960,"internal_node_id":"0.0-39.0","task_version":"0.2"},{"response_times":[980,636,578,651,2134,748,867,443,475,550],"keys_pressed":["leftarrow","leftarrow","rightarrow","leftarrow","rightarrow","rightarrow","rightarrow","leftarrow","leftarrow","leftarrow"],"horizon":10,"forced_choices":["leftarrow","leftarrow","rightarrow","leftarrow"],"right_color":"orange","left_color":"lightblue","left_mu":40,"right_mu":44,"left_numbers":[39,42,40,32,53,23,40,31,36,31],"right_numbers":[32,36,38,42,50,37,28,31,46,50],"points_earned":364,"phase":"task","trial_type":"horizons-task","trial_index":44,"time_elapsed":715525,"internal_node_id":"0.0-40.0","task_version":"0.2"},{"response_times":[814,789,633,487,2297,919,899,1103,524,441],"keys_pressed":["rightarrow","leftarrow","leftarrow","rightarrow","leftarrow","rightarrow","leftarrow","leftarrow","leftarrow","leftarrow"],"horizon":10,"forced_choices":["rightarrow","leftarrow","leftarrow","rightarrow"],"right_color":"lightblue","left_color":"orange","left_mu":40,"right_mu":28,"left_numbers":[44,43,26,36,43,32,36,40,41,39],"right_numbers":[29,30,24,42,31,31,27,11,39,20],"points_earned":370,"phase":"task","trial_type":"horizons-task","trial_index":45,"time_elapsed":725934,"internal_node_id":"0.0-41.0","task_version":"0.2"},{"response_times":[620,1143.9999999998836,629,1347,2706],"keys_pressed":["rightarrow","leftarrow","rightarrow","leftarrow","rightarrow"],"horizon":5,"forced_choices":["rightarrow","leftarrow","rightarrow","leftarrow"],"right_color":"orange","left_color":"lightblue","left_mu":60,"right_mu":48,"left_numbers":[68,44,63,59,51],"right_numbers":[49,31,62,43,50],"points_earned":264,"phase":"task","trial_type":"horizons-task","trial_index":46,"time_elapsed":733887,"internal_node_id":"0.0-42.0","task_version":"0.2"},{"response_times":[674,2352.0000000001164,516.9999999998836,570,1825],"keys_pressed":["rightarrow","leftarrow","rightarrow","leftarrow","rightarrow"],"horizon":5,"forced_choices":["rightarrow","leftarrow","rightarrow","leftarrow"],"right_color":"lightblue","left_color":"orange","left_mu":60,"right_mu":64,"left_numbers":[53,66,70,63,71],"right_numbers":[73,58,53,45,53],"points_earned":308,"phase":"task","trial_type":"horizons-task","trial_index":47,"time_elapsed":741329,"internal_node_id":"0.0-43.0","task_version":"0.2"},{"response_times":[750,2309,1666,624,2661],"keys_pressed":["leftarrow","leftarrow","leftarrow","rightarrow","rightarrow"],"horizon":5,"forced_choices":["leftarrow","leftarrow","leftarrow","rightarrow"],"right_color":"lightblue","left_color":"orange","left_mu":40,"right_mu":52,"left_numbers":[47,58,35,29,29],"right_numbers":[56,46,60,48,43],"points_earned":231,"phase":"task","trial_type":"horizons-task","trial_index":48,"time_elapsed":750843,"internal_node_id":"0.0-44.0","task_version":"0.2"},{"response_times":[695.0000000001164,529.9999999998836,529,880,1611],"keys_pressed":["leftarrow","rightarrow","rightarrow","leftarrow","leftarrow"],"horizon":5,"forced_choices":["leftarrow","rightarrow","rightarrow","leftarrow"],"right_color":"orange","left_color":"lightblue","left_mu":60,"right_mu":52,"left_numbers":[68,41,62,53,55],"right_numbers":[54,47,50,54,56],"points_earned":273,"phase":"task","trial_type":"horizons-task","trial_index":49,"time_elapsed":756593,"internal_node_id":"0.0-45.0","task_version":"0.2"},{"response_times":[697,736,626,787,510],"keys_pressed":["leftarrow","leftarrow","rightarrow","leftarrow","leftarrow"],"horizon":5,"forced_choices":["leftarrow","leftarrow","rightarrow","leftarrow"],"right_color":"orange","left_color":"lightblue","left_mu":60,"right_mu":30,"left_numbers":[82,68,68,66,50],"right_numbers":[29,31,31,20,37],"points_earned":297,"phase":"task","trial_type":"horizons-task","trial_index":50,"time_elapsed":761452,"internal_node_id":"0.0-46.0","task_version":"0.2"},{"view_history":"[{\"page_index\":0,\"viewing_time\":2323},{\"page_index\":1,\"viewing_time\":2049}]","rt":4373,"trial_type":"instructions","trial_index":51,"time_elapsed":765826,"internal_node_id":"0.0-47.0","task_version":"0.2"},{"response_times":[1157.0000000001164,478.9999999998836,573,597.0000000001164,1627.9999999998836,1188,491,544.0000000001164,430.9999999998836,1685],"keys_pressed":["leftarrow","rightarrow","rightarrow","leftarrow","rightarrow","leftarrow","rightarrow","rightarrow","rightarrow","rightarrow"],"horizon":10,"forced_choices":["leftarrow","rightarrow","rightarrow","leftarrow"],"right_color":"lightblue","left_color":"orange","left_mu":40,"right_mu":52,"left_numbers":[41,47,47,51,46,49,32,50,43,27],"right_numbers":[41,71,51,64,50,57,65,55,44,49],"points_earned":526,"phase":"task","trial_type":"horizons-task","trial_index":52,"time_elapsed":776106,"internal_node_id":"0.0-48.0","task_version":"0.2"},{"response_times":[688.9999999998836,508,446,633,2220],"keys_pressed":["leftarrow","rightarrow","leftarrow","rightarrow","leftarrow"],"horizon":5,"forced_choices":["leftarrow","rightarrow","leftarrow","rightarrow"],"right_color":"orange","left_color":"lightblue","left_mu":40,"right_mu":44,"left_numbers":[45,39,31,43,46],"right_numbers":[40,49,42,43,40],"points_earned":214,"phase":"task","trial_type":"horizons-task","trial_index":53,"time_elapsed":782107,"internal_node_id":"0.0-49.0","task_version":"0.2"},{"response_times":[656.9999999998836,815,439,861,523],"keys_pressed":["rightarrow","leftarrow","rightarrow","rightarrow","rightarrow"],"horizon":5,"forced_choices":["rightarrow","leftarrow","rightarrow","rightarrow"],"right_color":"orange","left_color":"lightblue","left_mu":60,"right_mu":72,"left_numbers":[45,52,65,60,65],"right_numbers":[74,60,76,71,83],"points_earned":356,"phase":"task","trial_type":"horizons-task","trial_index":54,"time_elapsed":786905,"internal_node_id":"0.0-50.0","task_version":"0.2"},{"response_times":[516,453,640,923,526],"keys_pressed":["rightarrow","rightarrow","rightarrow","leftarrow","rightarrow"],"horizon":5,"forced_choices":["rightarrow","rightarrow","rightarrow","leftarrow"],"right_color":"lightblue","left_color":"orange","left_mu":60,"right_mu":90,"left_numbers":[46,64,49,53,55],"right_numbers":[86,63,92,89,106],"points_earned":400,"phase":"task","trial_type":"horizons-task","trial_index":55,"time_elapsed":791468,"internal_node_id":"0.0-51.0","task_version":"0.2"},{"response_times":[581,628,1522,463,863],"keys_pressed":["rightarrow","rightarrow","leftarrow","rightarrow","leftarrow"],"horizon":5,"forced_choices":["rightarrow","rightarrow","leftarrow","rightarrow"],"right_color":"orange","left_color":"lightblue","left_mu":40,"right_mu":20,"left_numbers":[44,41,35,43,33],"right_numbers":[18,6,16,12,29],"points_earned":104,"phase":"task","trial_type":"horizons-task","trial_index":56,"time_elapsed":797034,"internal_node_id":"0.0-52.0","task_version":"0.2"},{"response_times":[613,742,634,923,566,1210,593,393,329,428.9999999998836],"keys_pressed":["rightarrow","rightarrow","rightarrow","leftarrow","rightarrow","rightarrow","rightarrow","rightarrow","rightarrow","rightarrow"],"horizon":10,"forced_choices":["rightarrow","rightarrow","rightarrow","leftarrow"],"right_color":"lightblue","left_color":"orange","left_mu":60,"right_mu":80,"left_numbers":[50,57,67,58,59,65,58,56,66,65],"right_numbers":[71,77,81,76,61,74,79,73,78,77],"points_earned":729,"phase":"task","trial_type":"horizons-task","trial_index":57,"time_elapsed":804974,"internal_node_id":"0.0-53.0","task_version":"0.2"},{"response_times":[883,628,689,644,642,1169,535,470,922,541],"keys_pressed":["leftarrow","rightarrow","rightarrow","rightarrow","leftarrow","rightarrow","leftarrow","leftarrow","rightarrow","leftarrow"],"horizon":10,"forced_choices":["leftarrow","rightarrow","rightarrow","rightarrow"],"right_color":"orange","left_color":"lightblue","left_mu":60,"right_mu":40,"left_numbers":[73,56,54,72,62,68,42,49,68,54],"right_numbers":[38,32,50,40,41,38,31,30,25,44],"points_earned":465,"phase":"task","trial_type":"horizons-task","trial_index":58,"time_elapsed":813600,"internal_node_id":"0.0-54.0","task_version":"0.2"},{"response_times":[537.0000000001164,530.9999999998836,3330,824,659],"keys_pressed":["rightarrow","leftarrow","leftarrow","leftarrow","rightarrow"],"horizon":5,"forced_choices":["rightarrow","leftarrow","leftarrow","leftarrow"],"right_color":"lightblue","left_color":"orange","left_mu":40,"right_mu":48,"left_numbers":[31,47,37,47,23],"right_numbers":[55,50,47,55,63],"points_earned":249,"phase":"task","trial_type":"horizons-task","trial_index":59,"time_elapsed":820985,"internal_node_id":"0.0-55.0","task_version":"0.2"},{"response_times":[687,508,596,459,2901,349,520.0000000001164,414,443.9999999998836,722],"keys_pressed":["leftarrow","rightarrow","rightarrow","leftarrow","rightarrow","leftarrow","leftarrow","leftarrow","leftarrow","leftarrow"],"horizon":10,"forced_choices":["leftarrow","rightarrow","rightarrow","leftarrow"],"right_color":"orange","left_color":"lightblue","left_mu":60,"right_mu":40,"left_numbers":[47,61,65,65,55,60,61,58,53,67],"right_numbers":[53,49,32,38,42,34,46,40,36,34],"points_earned":534,"phase":"task","trial_type":"horizons-task","trial_index":60,"time_elapsed":830090,"internal_node_id":"0.0-56.0","task_version":"0.2"},{"response_times":[594,403,700,2137,1217],"keys_pressed":["rightarrow","leftarrow","leftarrow","leftarrow","rightarrow"],"horizon":5,"forced_choices":["rightarrow","leftarrow","leftarrow","leftarrow"],"right_color":"lightblue","left_color":"orange","left_mu":60,"right_mu":64,"left_numbers":[60,57,56,56,59],"right_numbers":[58,58,72,74,60],"points_earned":287,"phase":"task","trial_type":"horizons-task","trial_index":61,"time_elapsed":836645,"internal_node_id":"0.0-57.0","task_version":"0.2"},{"response_times":[120139,2310,1234,3727.0000000001164,489.9999999998836,432,446,367.0000000001164,377.9999999998836,342],"keys_pressed":["rightarrow","rightarrow","leftarrow","leftarrow","leftarrow","leftarrow","rightarrow","leftarrow","leftarrow","leftarrow"],"horizon":10,"forced_choices":["rightarrow","rightarrow","leftarrow","leftarrow"],"right_color":"orange","left_color":"lightblue","left_mu":60,"right_mu":30,"left_numbers":[60,44,62,78,50,59,57,63,66,64],"right_numbers":[37,10,29,41,28,31,24,28,21,33],"points_earned":513,"phase":"task","trial_type":"horizons-task","trial_index":62,"time_elapsed":968024,"internal_node_id":"0.0-58.0","task_version":"0.2"},{"response_times":[35323,782,418,780,323,1147,278,407.0000000001164,416.9999999998836,531],"keys_pressed":["rightarrow","rightarrow","rightarrow","leftarrow","rightarrow","rightarrow","rightarrow","rightarrow","rightarrow","rightarrow"],"horizon":10,"forced_choices":["rightarrow","rightarrow","rightarrow","leftarrow"],"right_color":"lightblue","left_color":"orange","left_mu":60,"right_mu":90,"left_numbers":[68,61,61,70,65,51,43,71,57,64],"right_numbers":[90,90,95,98,91,103,83,93,100,83],"points_earned":898,"phase":"task","trial_type":"horizons-task","trial_index":63,"time_elapsed":1009935,"internal_node_id":"0.0-59.0","task_version":"0.2"},{"response_times":[5192,657,366,501,789,465,298,414,205,563],"keys_pressed":["leftarrow","leftarrow","rightarrow","leftarrow","rightarrow","leftarrow","leftarrow","leftarrow","leftarrow","leftarrow"],"horizon":10,"forced_choices":["leftarrow","leftarrow","rightarrow","leftarrow"],"right_color":"orange","left_color":"lightblue","left_mu":60,"right_mu":30,"left_numbers":[56,55,65,57,52,50,45,49,66,60],"right_numbers":[17,30,40,25,22,21,36,45,30,33],"points_earned":500,"phase":"task","trial_type":"horizons-task","trial_index":64,"time_elapsed":1020890,"internal_node_id":"0.0-60.0","task_version":"0.2"},{"response_times":[598.9999999998836,472.9999999998836,952,437.9999999998836,430.0000000001164],"keys_pressed":["leftarrow","rightarrow","rightarrow","leftarrow","leftarrow"],"horizon":5,"forced_choices":["leftarrow","rightarrow","rightarrow","leftarrow"],"right_color":"orange","left_color":"lightblue","left_mu":60,"right_mu":40,"left_numbers":[49,56,60,71,63],"right_numbers":[33,36,34,49,47],"points_earned":253,"phase":"task","trial_type":"horizons-task","trial_index":65,"time_elapsed":1025290,"internal_node_id":"0.0-61.0","task_version":"0.2"},{"response_times":[597,502.9999999998836,385,528,439.0000000001164,665.9999999998836,889,428.0000000001164,267,2693],"keys_pressed":["leftarrow","rightarrow","leftarrow","leftarrow","leftarrow","rightarrow","rightarrow","rightarrow","rightarrow","rightarrow"],"horizon":10,"forced_choices":["leftarrow","rightarrow","leftarrow","leftarrow"],"right_color":"lightblue","left_color":"orange","left_mu":60,"right_mu":56,"left_numbers":[45,50,50,49,45,54,63,47,61,58],"right_numbers":[39,52,57,65,42,61,71,73,44,59],"points_earned":549,"phase":"task","trial_type":"horizons-task","trial_index":66,"time_elapsed":1034189,"internal_node_id":"0.0-62.0","task_version":"0.2"},{"response_times":[2332.0000000001164,544.9999999998836,623,618,553],"keys_pressed":["leftarrow","leftarrow","rightarrow","rightarrow","rightarrow"],"horizon":5,"forced_choices":["leftarrow","leftarrow","rightarrow","rightarrow"],"right_color":"lightblue","left_color":"orange","left_mu":60,"right_mu":90,"left_numbers":[55,44,49,76,60],"right_numbers":[96,100,86,99,84],"points_earned":368,"phase":"task","trial_type":"horizons-task","trial_index":67,"time_elapsed":1040364,"internal_node_id":"0.0-63.0","task_version":"0.2"},{"response_times":[635.9999999998836,576.0000000001164,423.9999999998836,579.0000000002328,1205.9999999998836,699.0000000001164,384.9999999998836,555.0000000002328,1063.9999999997672,1031],"keys_pressed":["rightarrow","rightarrow","leftarrow","leftarrow","rightarrow","rightarrow","rightarrow","leftarrow","leftarrow","rightarrow"],"horizon":10,"forced_choices":["rightarrow","rightarrow","leftarrow","leftarrow"],"right_color":"orange","left_color":"lightblue","left_mu":60,"right_mu":72,"left_numbers":[63,69,63,56,55,65,54,65,63,48],"right_numbers":[65,73,68,76,89,67,53,76,69,62],"points_earned":656,"phase":"task","trial_type":"horizons-task","trial_index":68,"time_elapsed":1049023,"internal_node_id":"0.0-64.0","task_version":"0.2"},{"response_times":[2217,450,407,498,1404,755,1203,627,885,523],"keys_pressed":["leftarrow","rightarrow","leftarrow","rightarrow","rightarrow","leftarrow","rightarrow","rightarrow","leftarrow","rightarrow"],"horizon":10,"forced_choices":["leftarrow","rightarrow","leftarrow","rightarrow"],"right_color":"orange","left_color":"lightblue","left_mu":40,"right_mu":44,"left_numbers":[55,37,32,46,46,41,45,40,34,41],"right_numbers":[45,42,37,18,37,53,50,39,46,40],"points_earned":388,"phase":"task","trial_type":"horizons-task","trial_index":69,"time_elapsed":1059496,"internal_node_id":"0.0-65.0","task_version":"0.2"},{"response_times":[479,513,700,686,1349.0000000002328,472.99999999976717,609,640,490.00000000023283,462.99999999976717],"keys_pressed":["rightarrow","leftarrow","leftarrow","leftarrow","rightarrow","leftarrow","rightarrow","rightarrow","rightarrow","rightarrow"],"horizon":10,"forced_choices":["rightarrow","leftarrow","leftarrow","leftarrow"],"right_color":"lightblue","left_color":"orange","left_mu":60,"right_mu":64,"left_numbers":[62,52,80,54,65,47,49,55,70,57],"right_numbers":[60,57,74,59,51,61,80,59,72,56],"points_earned":611,"phase":"task","trial_type":"horizons-task","trial_index":70,"time_elapsed":1067402,"internal_node_id":"0.0-66.0","task_version":"0.2"},{"response_times":[463,430,863,644,463,481,374,321,253,469],"keys_pressed":["rightarrow","leftarrow","leftarrow","leftarrow","rightarrow","rightarrow","rightarrow","rightarrow","rightarrow","rightarrow"],"horizon":10,"forced_choices":["rightarrow","leftarrow","leftarrow","leftarrow"],"right_color":"lightblue","left_color":"orange","left_mu":40,"right_mu":70,"left_numbers":[39,42,25,49,48,50,35,46,26,51],"right_numbers":[71,78,80,68,64,72,74,71,61,81],"points_earned":610,"phase":"task","trial_type":"horizons-task","trial_index":71,"time_elapsed":1073670,"internal_node_id":"0.0-67.0","task_version":"0.2"},{"response_times":[770,434.00000000023283,716.9999999997672,479,1209],"keys_pressed":["leftarrow","rightarrow","rightarrow","rightarrow","rightarrow"],"horizon":5,"forced_choices":["leftarrow","rightarrow","rightarrow","rightarrow"],"right_color":"orange","left_color":"lightblue","left_mu":40,"right_mu":60,"left_numbers":[44,37,47,45,50],"right_numbers":[64,55,74,56,63],"points_earned":292,"phase":"task","trial_type":"horizons-task","trial_index":72,"time_elapsed":1078785,"internal_node_id":"0.0-68.0","task_version":"0.2"},{"response_times":[604,401,617,619,460],"keys_pressed":["rightarrow","leftarrow","leftarrow","leftarrow","rightarrow"],"horizon":5,"forced_choices":["rightarrow","leftarrow","leftarrow","leftarrow"],"right_color":"lightblue","left_color":"orange","left_mu":40,"right_mu":70,"left_numbers":[52,43,32,46,30],"right_numbers":[72,68,57,65,68],"points_earned":261,"phase":"task","trial_type":"horizons-task","trial_index":73,"time_elapsed":1082990,"internal_node_id":"0.0-69.0","task_version":"0.2"},{"response_times":[798,449,327,971,201],"keys_pressed":["leftarrow","rightarrow","leftarrow","rightarrow","rightarrow"],"horizon":5,"forced_choices":["leftarrow","rightarrow","leftarrow","rightarrow"],"right_color":"lightblue","left_color":"orange","left_mu":60,"right_mu":80,"left_numbers":[68,63,49,66,52],"right_numbers":[89,79,82,72,81],"points_earned":349,"phase":"task","trial_type":"horizons-task","trial_index":74,"time_elapsed":1087240,"internal_node_id":"0.0-70.0","task_version":"0.2"},{"response_times":[95342,4137,2125,2098,900,1005,428,286,298,429],"keys_pressed":["leftarrow","leftarrow","rightarrow","rightarrow","leftarrow","rightarrow","rightarrow","rightarrow","rightarrow","rightarrow"],"horizon":10,"forced_choices":["leftarrow","leftarrow","rightarrow","rightarrow"],"right_color":"lightblue","left_color":"orange","left_mu":60,"right_mu":90,"left_numbers":[71,65,62,61,71,52,58,40,67,54],"right_numbers":[85,87,107,85,99,91,103,80,84,111],"points_earned":868,"phase":"task","trial_type":"horizons-task","trial_index":75,"time_elapsed":1195799,"internal_node_id":"0.0-71.0","task_version":"0.2"},{"response_times":[557,513,512,400,1217,694,622,712,523,3734],"keys_pressed":["rightarrow","rightarrow","leftarrow","rightarrow","leftarrow","rightarrow","rightarrow","leftarrow","rightarrow","rightarrow"],"horizon":10,"forced_choices":["rightarrow","rightarrow","leftarrow","rightarrow"],"right_color":"orange","left_color":"lightblue","left_mu":40,"right_mu":32,"left_numbers":[43,31,34,38,36,45,30,29,28,50],"right_numbers":[39,19,36,20,24,39,34,32,22,42],"points_earned":314,"phase":"task","trial_type":"horizons-task","trial_index":76,"time_elapsed":1206788,"internal_node_id":"0.0-72.0","task_version":"0.2"},{"response_times":[697,616,429,586,389],"keys_pressed":["leftarrow","leftarrow","rightarrow","leftarrow","leftarrow"],"horizon":5,"forced_choices":["leftarrow","leftarrow","rightarrow","leftarrow"],"right_color":"orange","left_color":"lightblue","left_mu":40,"right_mu":44,"left_numbers":[37,38,57,33,34],"right_numbers":[49,40,34,43,45],"points_earned":176,"phase":"task","trial_type":"horizons-task","trial_index":77,"time_elapsed":1211009,"internal_node_id":"0.0-73.0","task_version":"0.2"},{"response_times":[591,560,377,630,659,894,496,540,461,379],"keys_pressed":["rightarrow","leftarrow","rightarrow","rightarrow","leftarrow","rightarrow","leftarrow","leftarrow","leftarrow","leftarrow"],"horizon":10,"forced_choices":["rightarrow","leftarrow","rightarrow","rightarrow"],"right_color":"orange","left_color":"lightblue","left_mu":60,"right_mu":52,"left_numbers":[54,41,61,71,58,45,58,79,51,56],"right_numbers":[52,50,62,46,47,40,56,48,42,62],"points_earned":543,"phase":"task","trial_type":"horizons-task","trial_index":78,"time_elapsed":1218098,"internal_node_id":"0.0-74.0","task_version":"0.2"},{"response_times":[643,586,543,614,838],"keys_pressed":["leftarrow","leftarrow","rightarrow","rightarrow","leftarrow"],"horizon":5,"forced_choices":["leftarrow","leftarrow","rightarrow","rightarrow"],"right_color":"lightblue","left_color":"orange","left_mu":60,"right_mu":56,"left_numbers":[54,75,60,51,68],"right_numbers":[52,61,57,52,48],"points_earned":306,"phase":"task","trial_type":"horizons-task","trial_index":79,"time_elapsed":1222826,"internal_node_id":"0.0-75.0","task_version":"0.2"},{"response_times":[806.0000000002328,490.99999999976717,466,445,2553,454,352,302,468,579],"keys_pressed":["rightarrow","leftarrow","rightarrow","leftarrow","rightarrow","rightarrow","rightarrow","rightarrow","leftarrow","rightarrow"],"horizon":10,"forced_choices":["rightarrow","leftarrow","rightarrow","leftarrow"],"right_color":"lightblue","left_color":"orange","left_mu":60,"right_mu":64,"left_numbers":[48,48,75,52,56,45,56,50,59,51],"right_numbers":[55,64,65,70,70,71,51,50,60,78],"points_earned":599,"phase":"task","trial_type":"horizons-task","trial_index":80,"time_elapsed":1231246,"internal_node_id":"0.0-76.0","task_version":"0.2"},{"response_times":[698,585,756,430,469,858,382,468,524,607],"keys_pressed":["leftarrow","rightarrow","rightarrow","leftarrow","rightarrow","leftarrow","leftarrow","rightarrow","leftarrow","leftarrow"],"horizon":10,"forced_choices":["leftarrow","rightarrow","rightarrow","leftarrow"],"right_color":"orange","left_color":"lightblue","left_mu":60,"right_mu":52,"left_numbers":[71,66,45,68,79,58,51,34,63,59],"right_numbers":[36,43,63,48,58,46,55,53,40,51],"points_earned":587,"phase":"task","trial_type":"horizons-task","trial_index":81,"time_elapsed":1238526,"internal_node_id":"0.0-77.0","task_version":"0.2"},{"response_times":[478.00000000023283,468.99999999976717,744,1269,973],"keys_pressed":["rightarrow","rightarrow","leftarrow","leftarrow","rightarrow"],"horizon":5,"forced_choices":["rightarrow","rightarrow","leftarrow","leftarrow"],"right_color":"orange","left_color":"lightblue","left_mu":60,"right_mu":72,"left_numbers":[68,60,56,65,43],"right_numbers":[66,72,74,64,73],"points_earned":332,"phase":"task","trial_type":"horizons-task","trial_index":82,"time_elapsed":1243968,"internal_node_id":"0.0-78.0","task_version":"0.2"},{"response_times":[760.0000000002328,476,620,642,456],"keys_pressed":["leftarrow","rightarrow","leftarrow","leftarrow","rightarrow"],"horizon":5,"forced_choices":["leftarrow","rightarrow","leftarrow","leftarrow"],"right_color":"lightblue","left_color":"orange","left_mu":60,"right_mu":56,"left_numbers":[64,60,44,61,56],"right_numbers":[41,66,64,41,59],"points_earned":294,"phase":"task","trial_type":"horizons-task","trial_index":83,"time_elapsed":1248430,"internal_node_id":"0.0-79.0","task_version":"0.2"},{"response_times":[596,786.9999999997672,578,624,2485,1560,742,676.0000000002328,598.9999999997672,4391.000000000233],"keys_pressed":["leftarrow","leftarrow","leftarrow","rightarrow","leftarrow","leftarrow","rightarrow","leftarrow","rightarrow","leftarrow"],"horizon":10,"forced_choices":["leftarrow","leftarrow","leftarrow","rightarrow"],"right_color":"lightblue","left_color":"orange","left_mu":40,"right_mu":52,"left_numbers":[45,55,37,32,54,46,35,29,52,46],"right_numbers":[61,54,50,54,64,37,33,60,40,60],"points_earned":439,"phase":"task","trial_type":"horizons-task","trial_index":84,"time_elapsed":1262974,"internal_node_id":"0.0-80.0","task_version":"0.2"},{"response_times":[531,460,728,590,608],"keys_pressed":["rightarrow","leftarrow","rightarrow","rightarrow","leftarrow"],"horizon":5,"forced_choices":["rightarrow","leftarrow","rightarrow","rightarrow"],"right_color":"orange","left_color":"lightblue","left_mu":60,"right_mu":52,"left_numbers":[70,64,57,57,61],"right_numbers":[61,52,59,32,57],"points_earned":277,"phase":"task","trial_type":"horizons-task","trial_index":85,"time_elapsed":1267394,"internal_node_id":"0.0-81.0","task_version":"0.2"},{"response_times":[526,414,520.0000000002328,410.99999999976717,830.0000000002328,392.99999999976717,424.00000000023283,878.9999999997672,560,799.9999999997672],"keys_pressed":["rightarrow","leftarrow","leftarrow","rightarrow","rightarrow","rightarrow","rightarrow","rightarrow","rightarrow","rightarrow"],"horizon":10,"forced_choices":["rightarrow","leftarrow","leftarrow","rightarrow"],"right_color":"orange","left_color":"lightblue","left_mu":40,"right_mu":60,"left_numbers":[63,33,43,39,40,54,32,34,51,27],"right_numbers":[69,52,49,68,68,68,65,62,72,54],"points_earned":602,"phase":"task","trial_type":"horizons-task","trial_index":86,"time_elapsed":1274658,"internal_node_id":"0.0-82.0","task_version":"0.2"},{"response_times":[946,750,450,566,488],"keys_pressed":["leftarrow","leftarrow","rightarrow","leftarrow","leftarrow"],"horizon":5,"forced_choices":["leftarrow","leftarrow","rightarrow","leftarrow"],"right_color":"lightblue","left_color":"orange","left_mu":40,"right_mu":28,"left_numbers":[40,42,60,31,33],"right_numbers":[21,37,21,33,36],"points_earned":167,"phase":"task","trial_type":"horizons-task","trial_index":87,"time_elapsed":1279361,"internal_node_id":"0.0-83.0","task_version":"0.2"},{"response_times":[642,1448,531,1755,1540.0000000002328],"keys_pressed":["leftarrow","rightarrow","leftarrow","rightarrow","leftarrow"],"horizon":5,"forced_choices":["leftarrow","rightarrow","leftarrow","rightarrow"],"right_color":"orange","left_color":"lightblue","left_mu":40,"right_mu":32,"left_numbers":[35,60,29,43,43],"right_numbers":[20,35,35,25,29],"points_earned":167,"phase":"task","trial_type":"horizons-task","trial_index":88,"time_elapsed":1286781,"internal_node_id":"0.0-84.0","task_version":"0.2"},{"response_times":[541,448,818,548,822,629,226,663,327,433],"keys_pressed":["rightarrow","rightarrow","leftarrow","rightarrow","leftarrow","leftarrow","rightarrow","leftarrow","leftarrow","leftarrow"],"horizon":10,"forced_choices":["rightarrow","rightarrow","leftarrow","rightarrow"],"right_color":"lightblue","left_color":"orange","left_mu":40,"right_mu":10,"left_numbers":[45,43,36,44,33,44,29,44,33,37],"right_numbers":[6,6,12,22,14,1,10,9,15,0],"points_earned":271,"phase":"task","trial_type":"horizons-task","trial_index":89,"time_elapsed":1293740,"internal_node_id":"0.0-85.0","task_version":"0.2"},{"response_times":[765.9999999997672,496,673,574.0000000002328,893.9999999997672],"keys_pressed":["leftarrow","rightarrow","rightarrow","leftarrow","rightarrow"],"horizon":5,"forced_choices":["leftarrow","rightarrow","rightarrow","leftarrow"],"right_color":"lightblue","left_color":"orange","left_mu":40,"right_mu":52,"left_numbers":[34,35,29,37,43],"right_numbers":[47,55,48,70,66],"points_earned":240,"phase":"task","trial_type":"horizons-task","trial_index":90,"time_elapsed":1298647,"internal_node_id":"0.0-86.0","task_version":"0.2"},{"response_times":[746,600,782,1155,769],"keys_pressed":["leftarrow","rightarrow","leftarrow","leftarrow","rightarrow"],"horizon":5,"forced_choices":["leftarrow","rightarrow","leftarrow","leftarrow"],"right_color":"lightblue","left_color":"orange","left_mu":40,"right_mu":36,"left_numbers":[39,38,28,34,43],"right_numbers":[38,42,33,46,35],"points_earned":178,"phase":"task","trial_type":"horizons-task","trial_index":91,"time_elapsed":1304204,"internal_node_id":"0.0-87.0","task_version":"0.2"},{"rt":14977.000000000233,"responses":{"age":"20","gender-categorical":"Female","gender-free-response":"","ethnicity":"Hispanic or Latino","race":["White"],"language":"No","fluency":"Very well"},"survey":"demographics","trial_type":"survey-demo","trial_index":92,"time_elapsed":1319186,"internal_node_id":"0.0-88.0","task_version":"0.2"},{"rt":53405,"responses":{"difficulty":"3","fun":"4","clarity":"5","strategy":"Not necessarily. I just eyeballed the the averages and if one slot had a significantly higher number than the other, I decided to choose that one the most.","feedback":""},"survey":"debrief","trial_type":"survey-debrief","trial_index":93,"time_elapsed":1372598,"internal_node_id":"0.0-89.0","task_version":"0.2","interactions":"[]"}]