[{"view_history":"[{\"page_index\":0,\"viewing_time\":9682}]","rt":9683,"trial_type":"instructions","trial_index":0,"time_elapsed":9687,"internal_node_id":"0.0-0.0","task_version":"0.2"},{"item_order":[2,7,3,6,0,4,15,9,10,8,13,1,11,5,12,14,16],"responses":{"Q03":"1","Q08":"1","Q04":"1","Q07":"1","Q01":"2","Q05":"2","Q16":"3","Q10":"2","Q11":"1","Q09":"2","Q14":"1","Q02":"1","Q12":"0","Q06":"1","Q13":"1","Q15":"0","Q17":"0"},"radio_events":[5037,9540,12236,16024,20675,26678,35944,39265,48938,55992,57292,59600,67218,71220,74003,115733,120342,123679,125249,134622],"key_events":[],"mouse_events":[0,5037,9540,12236,16024,20675,26678,35944,39265,48938,55992,57292,59600,67218,71220,74003,86746,86945,104957,115733,120342,123679,125249,134622,137491],"rt":137491,"survey":"pswq","trial_type":"survey-template","trial_index":1,"time_elapsed":147190,"internal_node_id":"0.0-1.0","task_version":"0.2"},{"item_order":[4,2,7,3,1,10,0,6,12,5,9,11,8],"responses":{"Q05":"1","Q03":"2","Q08":"3","Q04":"3","Q02":"3","Q11":"4","Q01":"1","Q07":"2","Q13":"3","Q06":"1","Q10":"1","Q12":"2","Q09":"1"},"radio_events":[12561,16114,27935,35340,42932,45438,48817,52340,56866,59619,70706,73440,76104,78609,82001],"key_events":[],"mouse_events":[12561,16114,25169,27935,35340,42932,45438,48157,48817,52340,56866,59619,70706,73440,76104,78609,82001,82951],"rt":82951,"survey":"ius12","trial_type":"survey-template","trial_index":2,"time_elapsed":230147,"internal_node_id":"0.0-2.0","task_version":"0.2"},{"item_order":[10,15,12,14,5,13,9,1,2,8,4,7,11,3,6,0],"responses":{"Q11":"3","Q16":"4","Q13":"5","Q15":"3","Q06":"3","Q14":"3","Q10":"3","Q02":"3","Q03":"4","Q09":"2","Q05":"3","Q08":"3","Q12":"4","Q04":"3","Q07":"4","Q01":"3"},"radio_events":[5766,9936,13188,16081,24290,27731,31132,34796,44935,48726,54640,56091,69491,78594,83525,89386,91313,94430],"key_events":[],"mouse_events":[5766,9936,13188,16081,24290,27731,31132,34796,44125,44935,48726,54640,56091,69491,73968,78594,83525,89386,91313,94430,95485],"rt":95485,"survey":"nfc","trial_type":"survey-template","trial_index":3,"time_elapsed":325638,"internal_node_id":"0.0-3.0","task_version":"0.2"},{"view_history":"[{\"page_index\":0,\"viewing_time\":6982},{\"page_index\":1,\"viewing_time\":13200},{\"page_index\":2,\"viewing_time\":25239},{\"page_index\":3,\"viewing_time\":14225},{\"page_index\":4,\"viewing_time\":16729},{\"page_index\":5,\"viewing_time\":6267},{\"page_index\":6,\"viewing_time\":16683},{\"page_index\":7,\"viewing_time\":26131},{\"page_index\":8,\"viewing_time\":17353},{\"page_index\":9,\"viewing_time\":12201}]","rt":155010,"trial_type":"instructions","trial_index":4,"time_elapsed":480648,"internal_node_id":"0.0-4.0-0.0","task_version":"0.2"},{"response_times":[1528,1779,998,944,1802],"keys_pressed":["rightarrow","leftarrow","rightarrow","rightarrow","rightarrow"],"horizon":5,"forced_choices":["rightarrow","leftarrow","rightarrow","rightarrow"],"right_color":"lightblue","left_color":"orange","left_mu":40,"right_mu":20,"left_numbers":[33,34,46,45,28],"right_numbers":[21,24,28,13,33],"points_earned":129,"phase":"practice","trial_type":"horizons-task","trial_index":5,"time_elapsed":489209,"internal_node_id":"0.0-4.0-1.0","task_version":"0.2"},{"response_times":[1286,776,710,847,1354,775,816,777,511,463],"keys_pressed":["leftarrow","leftarrow","rightarrow","rightarrow","rightarrow","rightarrow","rightarrow","rightarrow","rightarrow","rightarrow"],"horizon":10,"forced_choices":["leftarrow","leftarrow","rightarrow","rightarrow"],"right_color":"orange","left_color":"lightblue","left_mu":60,"right_mu":70,"left_numbers":[70,73,63,64,60,72,61,68,54,45],"right_numbers":[71,75,58,67,51,64,65,59,82,63],"points_earned":652,"phase":"practice","trial_type":"horizons-task","trial_index":6,"time_elapsed":499032,"internal_node_id":"0.0-4.0-2.0","task_version":"0.2"},{"view_history":"[{\"page_index\":0,\"viewing_time\":6239},{\"page_index\":1,\"viewing_time\":6252},{\"page_index\":2,\"viewing_time\":4816},{\"page_index\":3,\"viewing_time\":5489}]","rt":22796,"trial_type":"instructions","trial_index":7,"time_elapsed":521829,"internal_node_id":"0.0-4.0-3.0","task_version":"0.2"},{"responses":["true","false","true"],"num_errors":0,"rt":28780,"trial_type":"horizons-comprehension","trial_index":8,"time_elapsed":550613,"internal_node_id":"0.0-4.0-4.0","task_version":"0.2"},{"trial_type":"call-function","trial_index":9,"time_elapsed":550617,"internal_node_id":"0.0-5.0","task_version":"0.2"},{"view_history":"[{\"page_index\":0,\"viewing_time\":2371},{\"page_index\":1,\"viewing_time\":12893}]","rt":15264,"trial_type":"instructions","trial_index":10,"time_elapsed":565882,"internal_node_id":"0.0-6.0","task_version":"0.2"},{"response_times":[1130,616,646,600,576,512,519,414,456,359],"keys_pressed":["leftarrow","leftarrow","rightarrow","rightarrow","rightarrow","rightarrow","rightarrow","rightarrow","rightarrow","rightarrow"],"horizon":10,"forced_choices":["leftarrow","leftarrow","rightarrow","rightarrow"],"right_color":"lightblue","left_color":"orange","left_mu":40,"right_mu":32,"left_numbers":[31,44,21,47,37,44,44,38,30,43],"right_numbers":[44,25,20,27,37,36,49,35,32,17],"points_earned":328,"phase":"task","trial_type":"horizons-task","trial_index":11,"time_elapsed":573237,"internal_node_id":"0.0-7.0","task_version":"0.2"},{"response_times":[682,607,367,680,1014],"keys_pressed":["rightarrow","rightarrow","rightarrow","leftarrow","rightarrow"],"horizon":5,"forced_choices":["rightarrow","rightarrow","rightarrow","leftarrow"],"right_color":"lightblue","left_color":"orange","left_mu":40,"right_mu":10,"left_numbers":[45,40,42,36,31],"right_numbers":[9,19,6,0,15],"points_earned":85,"phase":"task","trial_type":"horizons-task","trial_index":12,"time_elapsed":578094,"internal_node_id":"0.0-8.0","task_version":"0.2"},{"response_times":[597,609,630,487,552],"keys_pressed":["rightarrow","leftarrow","rightarrow","rightarrow","rightarrow"],"horizon":5,"forced_choices":["rightarrow","leftarrow","rightarrow","rightarrow"],"right_color":"orange","left_color":"lightblue","left_mu":60,"right_mu":52,"left_numbers":[64,64,63,62,65],"right_numbers":[51,33,52,54,39],"points_earned":260,"phase":"task","trial_type":"horizons-task","trial_index":13,"time_elapsed":582473,"internal_node_id":"0.0-9.0","task_version":"0.2"},{"response_times":[636,407,558,971,741],"keys_pressed":["leftarrow","leftarrow","rightarrow","leftarrow","rightarrow"],"horizon":5,"forced_choices":["leftarrow","leftarrow","rightarrow","leftarrow"],"right_color":"orange","left_color":"lightblue","left_mu":60,"right_mu":40,"left_numbers":[58,62,67,49,56],"right_numbers":[31,36,43,39,45],"points_earned":257,"phase":"task","trial_type":"horizons-task","trial_index":14,"time_elapsed":587290,"internal_node_id":"0.0-10.0","task_version":"0.2"},{"response_times":[702,493,432,657,968],"keys_pressed":["leftarrow","rightarrow","rightarrow","leftarrow","leftarrow"],"horizon":5,"forced_choices":["leftarrow","rightarrow","rightarrow","leftarrow"],"right_color":"orange","left_color":"lightblue","left_mu":60,"right_mu":40,"left_numbers":[60,64,59,53,76],"right_numbers":[47,38,44,47,40],"points_earned":271,"phase":"task","trial_type":"horizons-task","trial_index":15,"time_elapsed":592047,"internal_node_id":"0.0-11.0","task_version":"0.2"},{"response_times":[644,517,609,629,976],"keys_pressed":["leftarrow","rightarrow","leftarrow","rightarrow","rightarrow"],"horizon":5,"forced_choices":["leftarrow","rightarrow","leftarrow","rightarrow"],"right_color":"orange","left_color":"lightblue","left_mu":60,"right_mu":72,"left_numbers":[61,55,61,58,60],"right_numbers":[75,87,72,81,61],"points_earned":351,"phase":"task","trial_type":"horizons-task","trial_index":16,"time_elapsed":596927,"internal_node_id":"0.0-12.0","task_version":"0.2"},{"response_times":[503,447,575,592,493],"keys_pressed":["leftarrow","rightarrow","leftarrow","rightarrow","rightarrow"],"horizon":5,"forced_choices":["leftarrow","rightarrow","leftarrow","rightarrow"],"right_color":"orange","left_color":"lightblue","left_mu":40,"right_mu":48,"left_numbers":[42,37,45,34,28],"right_numbers":[34,41,58,61,52],"points_earned":241,"phase":"task","trial_type":"horizons-task","trial_index":17,"time_elapsed":601039,"internal_node_id":"0.0-13.0","task_version":"0.2"},{"response_times":[806,407,566,390,1539,486,576,647,503,512],"keys_pressed":["leftarrow","leftarrow","rightarrow","rightarrow","rightarrow","rightarrow","rightarrow","rightarrow","rightarrow","rightarrow"],"horizon":10,"forced_choices":["leftarrow","leftarrow","rightarrow","rightarrow"],"right_color":"lightblue","left_color":"orange","left_mu":40,"right_mu":10,"left_numbers":[57,38,27,29,61,30,32,44,40,48],"right_numbers":[8,4,21,8,7,8,16,14,11,11],"points_earned":191,"phase":"task","trial_type":"horizons-task","trial_index":18,"time_elapsed":608980,"internal_node_id":"0.0-14.0","task_version":"0.2"},{"response_times":[578,469,407,608,704],"keys_pressed":["leftarrow","rightarrow","rightarrow","rightarrow","rightarrow"],"horizon":5,"forced_choices":["leftarrow","rightarrow","rightarrow","rightarrow"],"right_color":"orange","left_color":"lightblue","left_mu":60,"right_mu":68,"left_numbers":[62,66,58,70,63],"right_numbers":[66,56,65,60,69],"points_earned":312,"phase":"task","trial_type":"horizons-task","trial_index":19,"time_elapsed":613252,"internal_node_id":"0.0-15.0","task_version":"0.2"},{"response_times":[652,494,407,737,833,615,536,582,496,520],"keys_pressed":["leftarrow","rightarrow","rightarrow","leftarrow","leftarrow","leftarrow","leftarrow","leftarrow","leftarrow","leftarrow"],"horizon":10,"forced_choices":["leftarrow","rightarrow","rightarrow","leftarrow"],"right_color":"orange","left_color":"lightblue","left_mu":60,"right_mu":40,"left_numbers":[73,52,53,67,67,56,67,49,44,51],"right_numbers":[42,49,53,38,48,43,39,37,39,39],"points_earned":576,"phase":"task","trial_type":"horizons-task","trial_index":20,"time_elapsed":620627,"internal_node_id":"0.0-16.0","task_version":"0.2"},{"response_times":[626,776,497,543,857],"keys_pressed":["rightarrow","leftarrow","leftarrow","leftarrow","leftarrow"],"horizon":5,"forced_choices":["rightarrow","leftarrow","leftarrow","leftarrow"],"right_color":"lightblue","left_color":"orange","left_mu":60,"right_mu":48,"left_numbers":[72,77,57,52,63],"right_numbers":[54,43,49,36,48],"points_earned":303,"phase":"task","trial_type":"horizons-task","trial_index":21,"time_elapsed":625429,"internal_node_id":"0.0-17.0","task_version":"0.2"},{"response_times":[515,469,432,447,968],"keys_pressed":["leftarrow","rightarrow","rightarrow","rightarrow","rightarrow"],"horizon":5,"forced_choices":["leftarrow","rightarrow","rightarrow","rightarrow"],"right_color":"orange","left_color":"lightblue","left_mu":40,"right_mu":36,"left_numbers":[39,62,52,38,29],"right_numbers":[54,27,29,43,43],"points_earned":181,"phase":"task","trial_type":"horizons-task","trial_index":22,"time_elapsed":629766,"internal_node_id":"0.0-18.0","task_version":"0.2"},{"response_times":[598,679,609,495,560],"keys_pressed":["leftarrow","rightarrow","leftarrow","leftarrow","leftarrow"],"horizon":5,"forced_choices":["leftarrow","rightarrow","leftarrow","leftarrow"],"right_color":"lightblue","left_color":"orange","left_mu":60,"right_mu":64,"left_numbers":[47,56,64,83,61],"right_numbers":[61,69,59,83,60],"points_earned":324,"phase":"task","trial_type":"horizons-task","trial_index":23,"time_elapsed":634211,"internal_node_id":"0.0-19.0","task_version":"0.2"},{"response_times":[589,497,431,399,801,946,653,456,923,559],"keys_pressed":["rightarrow","leftarrow","leftarrow","leftarrow","leftarrow","leftarrow","rightarrow","rightarrow","leftarrow","leftarrow"],"horizon":10,"forced_choices":["rightarrow","leftarrow","leftarrow","leftarrow"],"right_color":"lightblue","left_color":"orange","left_mu":60,"right_mu":48,"left_numbers":[48,67,65,49,56,70,62,54,67,51],"right_numbers":[48,40,44,46,55,44,47,51,54,55],"points_earned":571,"phase":"task","trial_type":"horizons-task","trial_index":24,"time_elapsed":641969,"internal_node_id":"0.0-20.0","task_version":"0.2"},{"response_times":[1132,864,432,706,695],"keys_pressed":["rightarrow","leftarrow","leftarrow","leftarrow","leftarrow"],"horizon":5,"forced_choices":["rightarrow","leftarrow","leftarrow","leftarrow"],"right_color":"lightblue","left_color":"orange","left_mu":40,"right_mu":28,"left_numbers":[34,35,38,46,54],"right_numbers":[42,16,40,34,29],"points_earned":215,"phase":"task","trial_type":"horizons-task","trial_index":25,"time_elapsed":647317,"internal_node_id":"0.0-21.0","task_version":"0.2"},{"response_times":[519,454,719,649,1232,504,440,431,495,304],"keys_pressed":["leftarrow","leftarrow","rightarrow","leftarrow","rightarrow","rightarrow","rightarrow","rightarrow","rightarrow","rightarrow"],"horizon":10,"forced_choices":["leftarrow","leftarrow","rightarrow","leftarrow"],"right_color":"lightblue","left_color":"orange","left_mu":40,"right_mu":52,"left_numbers":[55,35,37,48,38,38,44,30,31,36],"right_numbers":[51,43,46,44,56,64,40,56,59,55],"points_earned":514,"phase":"task","trial_type":"horizons-task","trial_index":26,"time_elapsed":654568,"internal_node_id":"0.0-22.0","task_version":"0.2"},{"response_times":[647,665,449,677,551],"keys_pressed":["rightarrow","leftarrow","leftarrow","rightarrow","rightarrow"],"horizon":5,"forced_choices":["rightarrow","leftarrow","leftarrow","rightarrow"],"right_color":"orange","left_color":"lightblue","left_mu":60,"right_mu":90,"left_numbers":[56,70,61,58,57],"right_numbers":[85,84,88,98,83],"points_earned":397,"phase":"task","trial_type":"horizons-task","trial_index":27,"time_elapsed":659059,"internal_node_id":"0.0-23.0","task_version":"0.2"},{"response_times":[528,358,327,546,888,569,621,471,480,432],"keys_pressed":["rightarrow","rightarrow","rightarrow","leftarrow","leftarrow","leftarrow","rightarrow","rightarrow","rightarrow","rightarrow"],"horizon":10,"forced_choices":["rightarrow","rightarrow","rightarrow","leftarrow"],"right_color":"lightblue","left_color":"orange","left_mu":40,"right_mu":60,"left_numbers":[33,38,36,46,43,44,33,54,34,40],"right_numbers":[56,62,62,59,64,74,52,69,59,68],"points_earned":561,"phase":"task","trial_type":"horizons-task","trial_index":28,"time_elapsed":665782,"internal_node_id":"0.0-24.0","task_version":"0.2"},{"response_times":[576,558,399,1267,710,560,503,495,456,326],"keys_pressed":["leftarrow","rightarrow","rightarrow","leftarrow","rightarrow","rightarrow","rightarrow","rightarrow","rightarrow","rightarrow"],"horizon":10,"forced_choices":["leftarrow","rightarrow","rightarrow","leftarrow"],"right_color":"lightblue","left_color":"orange","left_mu":60,"right_mu":80,"left_numbers":[62,52,48,59,58,65,62,66,67,68],"right_numbers":[81,67,88,77,78,100,71,84,75,83],"points_earned":767,"phase":"task","trial_type":"horizons-task","trial_index":29,"time_elapsed":673135,"internal_node_id":"0.0-25.0","task_version":"0.2"},{"response_times":[695,665,375,383,589,423,295,222,231,207],"keys_pressed":["rightarrow","leftarrow","leftarrow","leftarrow","rightarrow","rightarrow","rightarrow","rightarrow","rightarrow","rightarrow"],"horizon":10,"forced_choices":["rightarrow","leftarrow","leftarrow","leftarrow"],"right_color":"lightblue","left_color":"orange","left_mu":60,"right_mu":80,"left_numbers":[67,54,58,56,66,51,60,72,62,58],"right_numbers":[72,77,90,74,77,74,82,71,83,83],"points_earned":710,"phase":"task","trial_type":"horizons-task","trial_index":30,"time_elapsed":678729,"internal_node_id":"0.0-26.0","task_version":"0.2"},{"response_times":[686,646,447,311,182,271,231,199,206,213],"keys_pressed":["leftarrow","rightarrow","rightarrow","rightarrow","rightarrow","rightarrow","rightarrow","rightarrow","rightarrow","rightarrow"],"horizon":10,"forced_choices":["leftarrow","rightarrow","rightarrow","rightarrow"],"right_color":"orange","left_color":"lightblue","left_mu":60,"right_mu":90,"left_numbers":[50,48,54,53,49,69,74,55,67,59],"right_numbers":[91,91,84,85,88,101,80,99,77,84],"points_earned":839,"phase":"task","trial_type":"horizons-task","trial_index":31,"time_elapsed":683625,"internal_node_id":"0.0-27.0","task_version":"0.2"},{"response_times":[592,541,1019,326,287],"keys_pressed":["leftarrow","rightarrow","leftarrow","leftarrow","leftarrow"],"horizon":5,"forced_choices":["leftarrow","rightarrow","leftarrow","leftarrow"],"right_color":"lightblue","left_color":"orange","left_mu":40,"right_mu":20,"left_numbers":[33,28,33,43,37],"right_numbers":[19,20,23,9,10],"points_earned":166,"phase":"task","trial_type":"horizons-task","trial_index":32,"time_elapsed":687892,"internal_node_id":"0.0-28.0","task_version":"0.2"},{"response_times":[780,480,953,608,719,592,447,199,198,174],"keys_pressed":["rightarrow","rightarrow","leftarrow","leftarrow","leftarrow","leftarrow","leftarrow","leftarrow","leftarrow","leftarrow"],"horizon":10,"forced_choices":["rightarrow","rightarrow","leftarrow","leftarrow"],"right_color":"orange","left_color":"lightblue","left_mu":60,"right_mu":68,"left_numbers":[57,66,71,68,63,59,47,55,59,41],"right_numbers":[69,65,63,65,62,62,68,66,77,68],"points_earned":597,"phase":"task","trial_type":"horizons-task","trial_index":33,"time_elapsed":694546,"internal_node_id":"0.0-29.0","task_version":"0.2"},{"response_times":[690,358,690,935,608,471,424,510,487,319],"keys_pressed":["rightarrow","rightarrow","leftarrow","rightarrow","rightarrow","rightarrow","leftarrow","rightarrow","rightarrow","rightarrow"],"horizon":10,"forced_choices":["rightarrow","rightarrow","leftarrow","rightarrow"],"right_color":"orange","left_color":"lightblue","left_mu":40,"right_mu":48,"left_numbers":[55,35,52,45,44,42,47,39,34,31],"right_numbers":[58,60,47,54,55,29,40,68,46,53],"points_earned":522,"phase":"task","trial_type":"horizons-task","trial_index":34,"time_elapsed":701543,"internal_node_id":"0.0-30.0","task_version":"0.2"},{"response_times":[827,705,991,961,735],"keys_pressed":["rightarrow","leftarrow","rightarrow","leftarrow","leftarrow"],"horizon":5,"forced_choices":["rightarrow","leftarrow","rightarrow","leftarrow"],"right_color":"orange","left_color":"lightblue","left_mu":40,"right_mu":36,"left_numbers":[39,45,33,38,34],"right_numbers":[41,32,36,53,31],"points_earned":194,"phase":"task","trial_type":"horizons-task","trial_index":35,"time_elapsed":707267,"internal_node_id":"0.0-31.0","task_version":"0.2"},{"response_times":[565,510,1468,1534,969,1025,416,278,199,175],"keys_pressed":["leftarrow","rightarrow","leftarrow","rightarrow","rightarrow","leftarrow","leftarrow","leftarrow","leftarrow","leftarrow"],"horizon":10,"forced_choices":["leftarrow","rightarrow","leftarrow","rightarrow"],"right_color":"orange","left_color":"lightblue","left_mu":60,"right_mu":30,"left_numbers":[65,56,67,53,55,65,60,56,53,65],"right_numbers":[25,24,23,29,24,24,22,39,35,40],"points_earned":508,"phase":"task","trial_type":"horizons-task","trial_index":36,"time_elapsed":715910,"internal_node_id":"0.0-32.0","task_version":"0.2"},{"response_times":[922,665,487,685,681],"keys_pressed":["rightarrow","leftarrow","leftarrow","rightarrow","leftarrow"],"horizon":5,"forced_choices":["rightarrow","leftarrow","leftarrow","rightarrow"],"right_color":"lightblue","left_color":"orange","left_mu":40,"right_mu":20,"left_numbers":[41,38,42,42,33],"right_numbers":[14,23,4,23,14],"points_earned":150,"phase":"task","trial_type":"horizons-task","trial_index":37,"time_elapsed":720853,"internal_node_id":"0.0-33.0","task_version":"0.2"},{"response_times":[572,391,1067,581,576],"keys_pressed":["rightarrow","rightarrow","leftarrow","rightarrow","rightarrow"],"horizon":5,"forced_choices":["rightarrow","rightarrow","leftarrow","rightarrow"],"right_color":"orange","left_color":"lightblue","left_mu":40,"right_mu":70,"left_numbers":[30,30,37,23,49],"right_numbers":[70,81,72,60,61],"points_earned":309,"phase":"task","trial_type":"horizons-task","trial_index":38,"time_elapsed":725543,"internal_node_id":"0.0-34.0","task_version":"0.2"},{"response_times":[623,526,728,583,695,728,480,311,191,215],"keys_pressed":["leftarrow","rightarrow","leftarrow","leftarrow","rightarrow","leftarrow","leftarrow","leftarrow","leftarrow","leftarrow"],"horizon":10,"forced_choices":["leftarrow","rightarrow","leftarrow","leftarrow"],"right_color":"lightblue","left_color":"orange","left_mu":60,"right_mu":64,"left_numbers":[53,67,72,61,48,71,71,53,61,53],"right_numbers":[74,61,57,48,52,52,60,67,78,57],"points_earned":608,"phase":"task","trial_type":"horizons-task","trial_index":39,"time_elapsed":732125,"internal_node_id":"0.0-35.0","task_version":"0.2"},{"response_times":[765,687,576,1079,576],"keys_pressed":["leftarrow","rightarrow","leftarrow","rightarrow","rightarrow"],"horizon":5,"forced_choices":["leftarrow","rightarrow","leftarrow","rightarrow"],"right_color":"lightblue","left_color":"orange","left_mu":40,"right_mu":60,"left_numbers":[52,43,20,38,41],"right_numbers":[62,41,62,77,66],"points_earned":256,"phase":"task","trial_type":"horizons-task","trial_index":40,"time_elapsed":737312,"internal_node_id":"0.0-36.0","task_version":"0.2"},{"response_times":[614,561,750,480,746,713,951,553,375,318],"keys_pressed":["rightarrow","leftarrow","rightarrow","rightarrow","leftarrow","leftarrow","rightarrow","leftarrow","leftarrow","leftarrow"],"horizon":10,"forced_choices":["rightarrow","leftarrow","rightarrow","rightarrow"],"right_color":"orange","left_color":"lightblue","left_mu":40,"right_mu":44,"left_numbers":[36,24,34,39,50,48,44,43,39,40],"right_numbers":[42,48,42,48,45,43,44,40,40,34],"points_earned":420,"phase":"task","trial_type":"horizons-task","trial_index":41,"time_elapsed":744877,"internal_node_id":"0.0-37.0","task_version":"0.2"},{"response_times":[573,485,706,392,222,206,207,182,176,198],"keys_pressed":["leftarrow","rightarrow","leftarrow","leftarrow","leftarrow","leftarrow","leftarrow","leftarrow","leftarrow","leftarrow"],"horizon":10,"forced_choices":["leftarrow","rightarrow","leftarrow","leftarrow"],"right_color":"lightblue","left_color":"orange","left_mu":40,"right_mu":20,"left_numbers":[32,38,36,49,46,43,41,24,54,39],"right_numbers":[24,4,19,18,13,17,12,13,25,21],"points_earned":368,"phase":"task","trial_type":"horizons-task","trial_index":42,"time_elapsed":749730,"internal_node_id":"0.0-38.0","task_version":"0.2"},{"response_times":[635,673,962,654,278],"keys_pressed":["rightarrow","leftarrow","leftarrow","rightarrow","rightarrow"],"horizon":5,"forced_choices":["rightarrow","leftarrow","leftarrow","rightarrow"],"right_color":"lightblue","left_color":"orange","left_mu":40,"right_mu":52,"left_numbers":[27,37,39,27,29],"right_numbers":[62,54,48,49,45],"points_earned":232,"phase":"task","trial_type":"horizons-task","trial_index":43,"time_elapsed":754436,"internal_node_id":"0.0-39.0","task_version":"0.2"},{"response_times":[687,464,575,689,775,301,240,199,215,175],"keys_pressed":["rightarrow","leftarrow","rightarrow","leftarrow","rightarrow","rightarrow","rightarrow","rightarrow","rightarrow","rightarrow"],"horizon":10,"forced_choices":["rightarrow","leftarrow","rightarrow","leftarrow"],"right_color":"orange","left_color":"lightblue","left_mu":40,"right_mu":44,"left_numbers":[45,31,45,36,46,51,36,37,50,31],"right_numbers":[54,37,39,61,48,51,34,40,45,39],"points_earned":417,"phase":"task","trial_type":"horizons-task","trial_index":44,"time_elapsed":760259,"internal_node_id":"0.0-40.0","task_version":"0.2"},{"response_times":[750,463,770,838,570,358,190,199,166,359],"keys_pressed":["rightarrow","rightarrow","leftarrow","rightarrow","leftarrow","leftarrow","leftarrow","leftarrow","leftarrow","leftarrow"],"horizon":10,"forced_choices":["rightarrow","rightarrow","leftarrow","rightarrow"],"right_color":"lightblue","left_color":"orange","left_mu":40,"right_mu":32,"left_numbers":[34,45,49,39,49,28,51,36,37,38],"right_numbers":[30,38,18,45,30,32,32,25,31,34],"points_earned":401,"phase":"task","trial_type":"horizons-task","trial_index":45,"time_elapsed":766425,"internal_node_id":"0.0-41.0","task_version":"0.2"},{"response_times":[799,639,513,1586,793],"keys_pressed":["rightarrow","rightarrow","leftarrow","rightarrow","leftarrow"],"horizon":5,"forced_choices":["rightarrow","rightarrow","leftarrow","rightarrow"],"right_color":"lightblue","left_color":"orange","left_mu":40,"right_mu":32,"left_numbers":[32,41,37,29,50],"right_numbers":[29,41,30,25,47],"points_earned":182,"phase":"task","trial_type":"horizons-task","trial_index":46,"time_elapsed":772259,"internal_node_id":"0.0-42.0","task_version":"0.2"},{"response_times":[781,566,422,384,222],"keys_pressed":["leftarrow","rightarrow","rightarrow","rightarrow","rightarrow"],"horizon":5,"forced_choices":["leftarrow","rightarrow","rightarrow","rightarrow"],"right_color":"orange","left_color":"lightblue","left_mu":60,"right_mu":90,"left_numbers":[50,64,56,70,45],"right_numbers":[94,88,107,81,93],"points_earned":419,"phase":"task","trial_type":"horizons-task","trial_index":47,"time_elapsed":776136,"internal_node_id":"0.0-43.0","task_version":"0.2"},{"response_times":[628,407,679,800,790],"keys_pressed":["leftarrow","leftarrow","rightarrow","leftarrow","rightarrow"],"horizon":5,"forced_choices":["leftarrow","leftarrow","rightarrow","leftarrow"],"right_color":"lightblue","left_color":"orange","left_mu":40,"right_mu":52,"left_numbers":[24,54,35,45,39],"right_numbers":[55,61,50,42,56],"points_earned":229,"phase":"task","trial_type":"horizons-task","trial_index":48,"time_elapsed":780946,"internal_node_id":"0.0-44.0","task_version":"0.2"},{"response_times":[517,519,518,594,278,256,230,198,198,182],"keys_pressed":["leftarrow","leftarrow","rightarrow","leftarrow","leftarrow","leftarrow","leftarrow","leftarrow","leftarrow","leftarrow"],"horizon":10,"forced_choices":["leftarrow","leftarrow","rightarrow","leftarrow"],"right_color":"orange","left_color":"lightblue","left_mu":60,"right_mu":30,"left_numbers":[61,57,56,58,39,67,65,64,69,60],"right_numbers":[21,22,30,31,26,26,37,29,29,36],"points_earned":570,"phase":"task","trial_type":"horizons-task","trial_index":49,"time_elapsed":785939,"internal_node_id":"0.0-45.0","task_version":"0.2"},{"response_times":[1300,455,736,865,575,584,278,207,215,174],"keys_pressed":["rightarrow","rightarrow","rightarrow","leftarrow","leftarrow","leftarrow","leftarrow","leftarrow","leftarrow","leftarrow"],"horizon":10,"forced_choices":["rightarrow","rightarrow","rightarrow","leftarrow"],"right_color":"lightblue","left_color":"orange","left_mu":40,"right_mu":10,"left_numbers":[54,50,42,36,37,41,52,36,36,42],"right_numbers":[10,13,22,11,12,8,18,10,0,3],"points_earned":325,"phase":"task","trial_type":"horizons-task","trial_index":50,"time_elapsed":792832,"internal_node_id":"0.0-46.0","task_version":"0.2"},{"view_history":"[{\"page_index\":0,\"viewing_time\":8177},{\"page_index\":1,\"viewing_time\":4531}]","rt":12708,"trial_type":"instructions","trial_index":51,"time_elapsed":805542,"internal_node_id":"0.0-47.0","task_version":"0.2"},{"response_times":[1827,1040,560,808,653,560,294,198,183,165],"keys_pressed":["rightarrow","leftarrow","leftarrow","leftarrow","rightarrow","leftarrow","leftarrow","leftarrow","leftarrow","leftarrow"],"horizon":10,"forced_choices":["rightarrow","leftarrow","leftarrow","leftarrow"],"right_color":"lightblue","left_color":"orange","left_mu":40,"right_mu":28,"left_numbers":[39,40,38,46,37,32,29,37,45,37],"right_numbers":[20,35,22,31,22,23,18,24,18,33],"points_earned":346,"phase":"task","trial_type":"horizons-task","trial_index":52,"time_elapsed":813348,"internal_node_id":"0.0-48.0","task_version":"0.2"},{"response_times":[632,624,432,692,681,279,190,175,191,157],"keys_pressed":["rightarrow","leftarrow","leftarrow","rightarrow","leftarrow","leftarrow","leftarrow","leftarrow","leftarrow","leftarrow"],"horizon":10,"forced_choices":["rightarrow","leftarrow","leftarrow","rightarrow"],"right_color":"lightblue","left_color":"orange","left_mu":40,"right_mu":20,"left_numbers":[40,56,21,42,43,54,37,41,34,34],"right_numbers":[14,23,19,7,5,21,6,22,22,29],"points_earned":341,"phase":"task","trial_type":"horizons-task","trial_index":53,"time_elapsed":818905,"internal_node_id":"0.0-49.0","task_version":"0.2"},{"response_times":[649,415,495,731,692],"keys_pressed":["rightarrow","rightarrow","rightarrow","leftarrow","rightarrow"],"horizon":5,"forced_choices":["rightarrow","rightarrow","rightarrow","leftarrow"],"right_color":"lightblue","left_color":"orange","left_mu":40,"right_mu":60,"left_numbers":[41,48,27,56,44],"right_numbers":[63,53,61,72,57],"points_earned":290,"phase":"task","trial_type":"horizons-task","trial_index":54,"time_elapsed":823391,"internal_node_id":"0.0-50.0","task_version":"0.2"},{"response_times":[533,646,526,688,621],"keys_pressed":["leftarrow","rightarrow","rightarrow","leftarrow","rightarrow"],"horizon":5,"forced_choices":["leftarrow","rightarrow","rightarrow","leftarrow"],"right_color":"lightblue","left_color":"orange","left_mu":60,"right_mu":56,"left_numbers":[51,71,64,51,80],"right_numbers":[46,65,60,48,57],"points_earned":284,"phase":"task","trial_type":"horizons-task","trial_index":55,"time_elapsed":827917,"internal_node_id":"0.0-51.0","task_version":"0.2"},{"response_times":[712,544,887,631,573],"keys_pressed":["rightarrow","leftarrow","leftarrow","leftarrow","rightarrow"],"horizon":5,"forced_choices":["rightarrow","leftarrow","leftarrow","leftarrow"],"right_color":"lightblue","left_color":"orange","left_mu":60,"right_mu":80,"left_numbers":[52,46,57,62,77],"right_numbers":[82,87,72,82,90],"points_earned":337,"phase":"task","trial_type":"horizons-task","trial_index":56,"time_elapsed":832770,"internal_node_id":"0.0-52.0","task_version":"0.2"},{"response_times":[668,582,423,680,616,473,381,222,182,174],"keys_pressed":["leftarrow","rightarrow","rightarrow","rightarrow","leftarrow","leftarrow","leftarrow","leftarrow","leftarrow","leftarrow"],"horizon":10,"forced_choices":["leftarrow","rightarrow","rightarrow","rightarrow"],"right_color":"orange","left_color":"lightblue","left_mu":40,"right_mu":36,"left_numbers":[41,39,49,45,46,59,35,46,51,42],"right_numbers":[34,34,42,42,32,23,31,54,42,37],"points_earned":438,"phase":"task","trial_type":"horizons-task","trial_index":57,"time_elapsed":838678,"internal_node_id":"0.0-53.0","task_version":"0.2"},{"response_times":[659,558,760,505,473,237,166,192,181,176],"keys_pressed":["leftarrow","rightarrow","rightarrow","leftarrow","leftarrow","leftarrow","leftarrow","leftarrow","leftarrow","leftarrow"],"horizon":10,"forced_choices":["leftarrow","rightarrow","rightarrow","leftarrow"],"right_color":"lightblue","left_color":"orange","left_mu":60,"right_mu":56,"left_numbers":[62,63,59,66,54,64,61,62,65,59],"right_numbers":[70,56,52,68,39,41,66,54,54,35],"points_earned":601,"phase":"task","trial_type":"horizons-task","trial_index":58,"time_elapsed":844097,"internal_node_id":"0.0-54.0","task_version":"0.2"},{"response_times":[635,398,760,439,722,816,375,207,190,175],"keys_pressed":["leftarrow","rightarrow","rightarrow","rightarrow","leftarrow","rightarrow","rightarrow","rightarrow","rightarrow","rightarrow"],"horizon":10,"forced_choices":["leftarrow","rightarrow","rightarrow","rightarrow"],"right_color":"orange","left_color":"lightblue","left_mu":60,"right_mu":68,"left_numbers":[63,54,60,51,42,58,56,74,66,56],"right_numbers":[56,59,71,63,62,75,70,70,90,82],"points_earned":685,"phase":"task","trial_type":"horizons-task","trial_index":59,"time_elapsed":850319,"internal_node_id":"0.0-55.0","task_version":"0.2"},{"response_times":[643,382,658,585,494],"keys_pressed":["rightarrow","rightarrow","leftarrow","leftarrow","leftarrow"],"horizon":5,"forced_choices":["rightarrow","rightarrow","leftarrow","leftarrow"],"right_color":"lightblue","left_color":"orange","left_mu":60,"right_mu":48,"left_numbers":[44,57,66,70,61],"right_numbers":[52,61,40,60,46],"points_earned":310,"phase":"task","trial_type":"horizons-task","trial_index":60,"time_elapsed":854586,"internal_node_id":"0.0-56.0","task_version":"0.2"},{"response_times":[629,408,486,731,2461,527,626,286,190,176],"keys_pressed":["leftarrow","leftarrow","rightarrow","leftarrow","leftarrow","rightarrow","leftarrow","leftarrow","leftarrow","leftarrow"],"horizon":10,"forced_choices":["leftarrow","leftarrow","rightarrow","leftarrow"],"right_color":"orange","left_color":"lightblue","left_mu":60,"right_mu":40,"left_numbers":[53,38,58,54,48,38,61,55,66,71],"right_numbers":[38,40,46,35,35,43,38,31,49,38],"points_earned":535,"phase":"task","trial_type":"horizons-task","trial_index":61,"time_elapsed":862609,"internal_node_id":"0.0-57.0","task_version":"0.2"},{"response_times":[615,862,538,575,736,207,174,166,175,183],"keys_pressed":["rightarrow","rightarrow","leftarrow","leftarrow","leftarrow","leftarrow","leftarrow","leftarrow","leftarrow","leftarrow"],"horizon":10,"forced_choices":["rightarrow","rightarrow","leftarrow","leftarrow"],"right_color":"lightblue","left_color":"orange","left_mu":60,"right_mu":48,"left_numbers":[68,50,56,59,73,64,54,59,59,59],"right_numbers":[34,53,53,47,47,52,53,54,50,44],"points_earned":570,"phase":"task","trial_type":"horizons-task","trial_index":62,"time_elapsed":868346,"internal_node_id":"0.0-58.0","task_version":"0.2"},{"response_times":[531,662,857,469,255,215,190,191,175,206],"keys_pressed":["leftarrow","rightarrow","leftarrow","rightarrow","rightarrow","rightarrow","rightarrow","rightarrow","rightarrow","rightarrow"],"horizon":10,"forced_choices":["leftarrow","rightarrow","leftarrow","rightarrow"],"right_color":"lightblue","left_color":"orange","left_mu":40,"right_mu":60,"left_numbers":[37,28,37,30,50,34,45,37,44,45],"right_numbers":[60,63,52,74,69,59,61,68,57,46],"points_earned":571,"phase":"task","trial_type":"horizons-task","trial_index":63,"time_elapsed":873603,"internal_node_id":"0.0-59.0","task_version":"0.2"},{"response_times":[726,494,609,567,246,214,193,189,191,174],"keys_pressed":["rightarrow","rightarrow","leftarrow","rightarrow","rightarrow","rightarrow","rightarrow","rightarrow","rightarrow","rightarrow"],"horizon":10,"forced_choices":["rightarrow","rightarrow","leftarrow","rightarrow"],"right_color":"orange","left_color":"lightblue","left_mu":40,"right_mu":70,"left_numbers":[46,33,31,41,42,51,27,56,41,30],"right_numbers":[74,68,76,75,52,72,68,68,71,70],"points_earned":649,"phase":"task","trial_type":"horizons-task","trial_index":64,"time_elapsed":878711,"internal_node_id":"0.0-60.0","task_version":"0.2"},{"response_times":[582,375,526,664,753,431,207,198,174,182],"keys_pressed":["leftarrow","leftarrow","rightarrow","rightarrow","leftarrow","leftarrow","leftarrow","leftarrow","leftarrow","leftarrow"],"horizon":10,"forced_choices":["leftarrow","leftarrow","rightarrow","rightarrow"],"right_color":"lightblue","left_color":"orange","left_mu":60,"right_mu":64,"left_numbers":[63,67,71,51,68,69,51,61,55,72],"right_numbers":[69,64,60,61,60,62,60,64,60,64],"points_earned":627,"phase":"task","trial_type":"horizons-task","trial_index":65,"time_elapsed":884307,"internal_node_id":"0.0-61.0","task_version":"0.2"},{"response_times":[568,561,751,520,261],"keys_pressed":["rightarrow","leftarrow","rightarrow","leftarrow","leftarrow"],"horizon":5,"forced_choices":["rightarrow","leftarrow","rightarrow","leftarrow"],"right_color":"orange","left_color":"lightblue","left_mu":60,"right_mu":52,"left_numbers":[64,62,61,45,58],"right_numbers":[60,45,42,58,63],"points_earned":267,"phase":"task","trial_type":"horizons-task","trial_index":66,"time_elapsed":888472,"internal_node_id":"0.0-62.0","task_version":"0.2"},{"response_times":[501,591,462,800,511],"keys_pressed":["leftarrow","leftarrow","rightarrow","rightarrow","rightarrow"],"horizon":5,"forced_choices":["leftarrow","leftarrow","rightarrow","rightarrow"],"right_color":"lightblue","left_color":"orange","left_mu":60,"right_mu":64,"left_numbers":[58,63,53,49,54],"right_numbers":[48,85,63,81,68],"points_earned":333,"phase":"task","trial_type":"horizons-task","trial_index":67,"time_elapsed":892841,"internal_node_id":"0.0-63.0","task_version":"0.2"},{"response_times":[843,446,593,575,557,206,182,213,198,183],"keys_pressed":["rightarrow","rightarrow","leftarrow","leftarrow","rightarrow","rightarrow","rightarrow","rightarrow","rightarrow","rightarrow"],"horizon":10,"forced_choices":["rightarrow","rightarrow","leftarrow","leftarrow"],"right_color":"orange","left_color":"lightblue","left_mu":40,"right_mu":70,"left_numbers":[33,41,44,41,29,40,56,27,40,48],"right_numbers":[68,66,57,71,62,65,83,71,74,73],"points_earned":647,"phase":"task","trial_type":"horizons-task","trial_index":68,"time_elapsed":898342,"internal_node_id":"0.0-64.0","task_version":"0.2"},{"response_times":[886,821,879,311,222],"keys_pressed":["rightarrow","leftarrow","rightarrow","rightarrow","rightarrow"],"horizon":5,"forced_choices":["rightarrow","leftarrow","rightarrow","rightarrow"],"right_color":"orange","left_color":"lightblue","left_mu":40,"right_mu":44,"left_numbers":[36,44,33,42,46],"right_numbers":[45,50,41,56,42],"points_earned":228,"phase":"task","trial_type":"horizons-task","trial_index":69,"time_elapsed":902965,"internal_node_id":"0.0-65.0","task_version":"0.2"},{"response_times":[651,392,527,614,287],"keys_pressed":["rightarrow","rightarrow","leftarrow","rightarrow","rightarrow"],"horizon":5,"forced_choices":["rightarrow","rightarrow","leftarrow","rightarrow"],"right_color":"orange","left_color":"lightblue","left_mu":40,"right_mu":48,"left_numbers":[44,49,49,39,23],"right_numbers":[66,56,49,43,58],"points_earned":272,"phase":"task","trial_type":"horizons-task","trial_index":70,"time_elapsed":906941,"internal_node_id":"0.0-66.0","task_version":"0.2"},{"response_times":[677,1087,878,446,230,224,173,190,182,159],"keys_pressed":["rightarrow","leftarrow","leftarrow","rightarrow","rightarrow","rightarrow","rightarrow","rightarrow","rightarrow","rightarrow"],"horizon":10,"forced_choices":["rightarrow","leftarrow","leftarrow","rightarrow"],"right_color":"orange","left_color":"lightblue","left_mu":60,"right_mu":90,"left_numbers":[61,41,53,58,62,55,52,66,56,70],"right_numbers":[87,99,90,96,88,90,102,84,88,91],"points_earned":820,"phase":"task","trial_type":"horizons-task","trial_index":71,"time_elapsed":912690,"internal_node_id":"0.0-67.0","task_version":"0.2"},{"response_times":[792,558,874,526,310,239,198,175,150,214],"keys_pressed":["leftarrow","rightarrow","leftarrow","rightarrow","rightarrow","rightarrow","rightarrow","rightarrow","rightarrow","rightarrow"],"horizon":10,"forced_choices":["leftarrow","rightarrow","leftarrow","rightarrow"],"right_color":"orange","left_color":"lightblue","left_mu":40,"right_mu":48,"left_numbers":[39,32,11,33,43,49,30,36,33,30],"right_numbers":[52,57,52,56,30,47,39,50,52,40],"points_earned":421,"phase":"task","trial_type":"horizons-task","trial_index":72,"time_elapsed":918235,"internal_node_id":"0.0-68.0","task_version":"0.2"},{"response_times":[573,503,407,461,624,255,183,190,198,183],"keys_pressed":["leftarrow","leftarrow","leftarrow","rightarrow","leftarrow","leftarrow","leftarrow","leftarrow","leftarrow","leftarrow"],"horizon":10,"forced_choices":["leftarrow","leftarrow","leftarrow","rightarrow"],"right_color":"lightblue","left_color":"orange","left_mu":60,"right_mu":56,"left_numbers":[61,51,62,49,64,53,57,48,67,50],"right_numbers":[56,60,53,50,58,56,58,62,61,48],"points_earned":563,"phase":"task","trial_type":"horizons-task","trial_index":73,"time_elapsed":923316,"internal_node_id":"0.0-69.0","task_version":"0.2"},{"response_times":[541,559,469,1536,560],"keys_pressed":["leftarrow","leftarrow","rightarrow","rightarrow","leftarrow"],"horizon":5,"forced_choices":["leftarrow","leftarrow","rightarrow","rightarrow"],"right_color":"lightblue","left_color":"orange","left_mu":40,"right_mu":10,"left_numbers":[46,43,48,31,36],"right_numbers":[9,18,0,15,0],"points_earned":140,"phase":"task","trial_type":"horizons-task","trial_index":74,"time_elapsed":928484,"internal_node_id":"0.0-70.0","task_version":"0.2"},{"response_times":[641,782,495,954,798],"keys_pressed":["leftarrow","rightarrow","rightarrow","leftarrow","rightarrow"],"horizon":5,"forced_choices":["leftarrow","rightarrow","rightarrow","leftarrow"],"right_color":"lightblue","left_color":"orange","left_mu":60,"right_mu":80,"left_numbers":[83,63,57,61,37],"right_numbers":[99,83,83,94,84],"points_earned":394,"phase":"task","trial_type":"horizons-task","trial_index":75,"time_elapsed":933662,"internal_node_id":"0.0-71.0","task_version":"0.2"},{"response_times":[680,825,408,533,246,198,206,198,166,174],"keys_pressed":["rightarrow","leftarrow","leftarrow","rightarrow","rightarrow","rightarrow","rightarrow","rightarrow","rightarrow","rightarrow"],"horizon":10,"forced_choices":["rightarrow","leftarrow","leftarrow","rightarrow"],"right_color":"lightblue","left_color":"orange","left_mu":40,"right_mu":52,"left_numbers":[32,33,43,48,45,54,22,29,38,40],"right_numbers":[58,44,59,58,46,54,59,49,49,60],"points_earned":509,"phase":"task","trial_type":"horizons-task","trial_index":76,"time_elapsed":938803,"internal_node_id":"0.0-72.0","task_version":"0.2"},{"response_times":[959,876,497,774,1354],"keys_pressed":["leftarrow","rightarrow","leftarrow","rightarrow","leftarrow"],"horizon":5,"forced_choices":["leftarrow","rightarrow","leftarrow","rightarrow"],"right_color":"orange","left_color":"lightblue","left_mu":60,"right_mu":30,"left_numbers":[66,58,58,75,54],"right_numbers":[9,31,40,32,42],"points_earned":241,"phase":"task","trial_type":"horizons-task","trial_index":77,"time_elapsed":944768,"internal_node_id":"0.0-73.0","task_version":"0.2"},{"response_times":[698,383,746,884,518],"keys_pressed":["rightarrow","rightarrow","leftarrow","leftarrow","rightarrow"],"horizon":5,"forced_choices":["rightarrow","rightarrow","leftarrow","leftarrow"],"right_color":"orange","left_color":"lightblue","left_mu":40,"right_mu":70,"left_numbers":[62,53,43,48,35],"right_numbers":[71,78,74,71,69],"points_earned":309,"phase":"task","trial_type":"horizons-task","trial_index":78,"time_elapsed":949499,"internal_node_id":"0.0-74.0","task_version":"0.2"},{"response_times":[627,743,1005,886,504,279,182,190,174,182],"keys_pressed":["rightarrow","leftarrow","rightarrow","rightarrow","leftarrow","leftarrow","leftarrow","leftarrow","leftarrow","leftarrow"],"horizon":10,"forced_choices":["rightarrow","leftarrow","rightarrow","rightarrow"],"right_color":"orange","left_color":"lightblue","left_mu":60,"right_mu":52,"left_numbers":[59,62,51,59,54,68,72,65,66,64],"right_numbers":[55,51,46,49,62,61,64,55,48,41],"points_earned":601,"phase":"task","trial_type":"horizons-task","trial_index":79,"time_elapsed":955777,"internal_node_id":"0.0-75.0","task_version":"0.2"},{"response_times":[676,456,461,766,642],"keys_pressed":["leftarrow","leftarrow","leftarrow","rightarrow","leftarrow"],"horizon":5,"forced_choices":["leftarrow","leftarrow","leftarrow","rightarrow"],"right_color":"orange","left_color":"lightblue","left_mu":60,"right_mu":72,"left_numbers":[54,54,72,56,56],"right_numbers":[49,69,75,70,78],"points_earned":306,"phase":"task","trial_type":"horizons-task","trial_index":80,"time_elapsed":960283,"internal_node_id":"0.0-76.0","task_version":"0.2"},{"response_times":[864,825,613,719,616],"keys_pressed":["rightarrow","leftarrow","leftarrow","rightarrow","leftarrow"],"horizon":5,"forced_choices":["rightarrow","leftarrow","leftarrow","rightarrow"],"right_color":"lightblue","left_color":"orange","left_mu":40,"right_mu":28,"left_numbers":[45,37,45,39,34],"right_numbers":[30,36,24,37,34],"points_earned":183,"phase":"task","trial_type":"horizons-task","trial_index":81,"time_elapsed":965422,"internal_node_id":"0.0-77.0","task_version":"0.2"},{"response_times":[580,350,542,681,415],"keys_pressed":["leftarrow","leftarrow","rightarrow","leftarrow","leftarrow"],"horizon":5,"forced_choices":["leftarrow","leftarrow","rightarrow","leftarrow"],"right_color":"orange","left_color":"lightblue","left_mu":60,"right_mu":30,"left_numbers":[59,59,61,55,66],"right_numbers":[24,30,37,24,37],"points_earned":276,"phase":"task","trial_type":"horizons-task","trial_index":82,"time_elapsed":969493,"internal_node_id":"0.0-78.0","task_version":"0.2"},{"response_times":[594,671,900,561,1167,463,238,190,183,191],"keys_pressed":["rightarrow","leftarrow","rightarrow","leftarrow","rightarrow","rightarrow","rightarrow","rightarrow","rightarrow","rightarrow"],"horizon":10,"forced_choices":["rightarrow","leftarrow","rightarrow","leftarrow"],"right_color":"orange","left_color":"lightblue","left_mu":60,"right_mu":52,"left_numbers":[70,55,58,56,50,34,72,55,59,62],"right_numbers":[68,52,58,55,54,52,55,58,35,54],"points_earned":545,"phase":"task","trial_type":"horizons-task","trial_index":83,"time_elapsed":976154,"internal_node_id":"0.0-79.0","task_version":"0.2"},{"response_times":[636,844,792,525,270,190,200,190,197,214],"keys_pressed":["leftarrow","rightarrow","leftarrow","rightarrow","rightarrow","rightarrow","rightarrow","rightarrow","rightarrow","rightarrow"],"horizon":10,"forced_choices":["leftarrow","rightarrow","leftarrow","rightarrow"],"right_color":"orange","left_color":"lightblue","left_mu":60,"right_mu":72,"left_numbers":[59,67,69,57,67,62,54,63,52,56],"right_numbers":[70,69,60,68,68,64,91,82,73,70],"points_earned":713,"phase":"task","trial_type":"horizons-task","trial_index":84,"time_elapsed":981715,"internal_node_id":"0.0-80.0","task_version":"0.2"},{"response_times":[718,463,590,535,495],"keys_pressed":["leftarrow","leftarrow","rightarrow","rightarrow","rightarrow"],"horizon":5,"forced_choices":["leftarrow","leftarrow","rightarrow","rightarrow"],"right_color":"lightblue","left_color":"orange","left_mu":40,"right_mu":32,"left_numbers":[24,38,37,41,48],"right_numbers":[25,21,33,34,39],"points_earned":168,"phase":"task","trial_type":"horizons-task","trial_index":85,"time_elapsed":986019,"internal_node_id":"0.0-81.0","task_version":"0.2"},{"response_times":[676,471,406,623,464,254,181,198,205,190],"keys_pressed":["rightarrow","leftarrow","leftarrow","rightarrow","leftarrow","leftarrow","leftarrow","leftarrow","leftarrow","leftarrow"],"horizon":10,"forced_choices":["rightarrow","leftarrow","leftarrow","rightarrow"],"right_color":"lightblue","left_color":"orange","left_mu":40,"right_mu":28,"left_numbers":[41,48,33,37,39,37,35,28,36,33],"right_numbers":[21,13,25,28,25,43,16,29,24,22],"points_earned":338,"phase":"task","trial_type":"horizons-task","trial_index":86,"time_elapsed":991195,"internal_node_id":"0.0-82.0","task_version":"0.2"},{"response_times":[633,750,598,617,702],"keys_pressed":["rightarrow","leftarrow","rightarrow","leftarrow","rightarrow"],"horizon":5,"forced_choices":["rightarrow","leftarrow","rightarrow","leftarrow"],"right_color":"orange","left_color":"lightblue","left_mu":40,"right_mu":44,"left_numbers":[36,44,24,35,43],"right_numbers":[47,43,36,53,49],"points_earned":211,"phase":"task","trial_type":"horizons-task","trial_index":87,"time_elapsed":995998,"internal_node_id":"0.0-83.0","task_version":"0.2"},{"response_times":[725,527,439,565,928,600,310,215,182,183],"keys_pressed":["leftarrow","leftarrow","leftarrow","rightarrow","rightarrow","rightarrow","rightarrow","rightarrow","rightarrow","rightarrow"],"horizon":10,"forced_choices":["leftarrow","leftarrow","leftarrow","rightarrow"],"right_color":"orange","left_color":"lightblue","left_mu":60,"right_mu":72,"left_numbers":[53,68,79,60,47,65,57,52,59,66],"right_numbers":[63,64,66,67,82,65,68,76,74,68],"points_earned":700,"phase":"task","trial_type":"horizons-task","trial_index":88,"time_elapsed":1002177,"internal_node_id":"0.0-84.0","task_version":"0.2"},{"response_times":[569,366,633,918,413],"keys_pressed":["rightarrow","rightarrow","leftarrow","leftarrow","rightarrow"],"horizon":5,"forced_choices":["rightarrow","rightarrow","leftarrow","leftarrow"],"right_color":"orange","left_color":"lightblue","left_mu":60,"right_mu":68,"left_numbers":[47,72,54,69,62],"right_numbers":[71,73,67,81,65],"points_earned":332,"phase":"task","trial_type":"horizons-task","trial_index":89,"time_elapsed":1006580,"internal_node_id":"0.0-85.0","task_version":"0.2"},{"response_times":[469,374,433,443,952],"keys_pressed":["leftarrow","leftarrow","leftarrow","rightarrow","rightarrow"],"horizon":5,"forced_choices":["leftarrow","leftarrow","leftarrow","rightarrow"],"right_color":"lightblue","left_color":"orange","left_mu":60,"right_mu":56,"left_numbers":[61,59,68,56,49],"right_numbers":[57,59,58,67,51],"points_earned":306,"phase":"task","trial_type":"horizons-task","trial_index":90,"time_elapsed":1010757,"internal_node_id":"0.0-86.0","task_version":"0.2"},{"response_times":[878,799,509,529,1970,246,206,174,214,198],"keys_pressed":["rightarrow","leftarrow","rightarrow","leftarrow","leftarrow","leftarrow","leftarrow","leftarrow","leftarrow","leftarrow"],"horizon":10,"forced_choices":["rightarrow","leftarrow","rightarrow","leftarrow"],"right_color":"orange","left_color":"lightblue","left_mu":40,"right_mu":36,"left_numbers":[35,37,50,49,52,37,40,45,34,29],"right_numbers":[49,35,37,40,33,34,21,29,41,42],"points_earned":409,"phase":"task","trial_type":"horizons-task","trial_index":91,"time_elapsed":1017988,"internal_node_id":"0.0-87.0","task_version":"0.2"},{"rt":14258,"responses":{"age":"41","gender-categorical":"Male","gender-free-response":"","ethnicity":"Not Hispanic or Latino","race":["White"],"language":"Yes","fluency":"Very well"},"survey":"demographics","trial_type":"survey-demo","trial_index":92,"time_elapsed":1032257,"internal_node_id":"0.0-88.0","task_version":"0.2"},{"rt":32374,"responses":{"difficulty":"5","fun":"5","clarity":"5","strategy":"No","feedback":"Thanks for the study, its really help me a lot."},"survey":"debrief","trial_type":"survey-debrief","trial_index":93,"time_elapsed":1064633,"internal_node_id":"0.0-89.0","task_version":"0.2","interactions":"[{\"event\":\"focus\",\"trial\":0,\"time\":0},{\"event\":\"blur\",\"trial\":1,\"time\":99111},{\"event\":\"focus\",\"trial\":1,\"time\":112275},{\"event\":\"blur\",\"trial\":1,\"time\":116522},{\"event\":\"focus\",\"trial\":1,\"time\":123334}]"}]