[{"view_history":"[{\"page_index\":0,\"viewing_time\":2152.5949999922886}]","rt":2153.889999986859,"trial_type":"instructions","trial_index":0,"time_elapsed":2185,"internal_node_id":"0.0-0.0","task_version":"0.2"},{"item_order":[2,11,5,6,9,12,7,0,10,1,3,8,4],"responses":{"Q03":"1","Q12":"1","Q06":"0","Q07":"0","Q10":"0","Q13":"4","Q08":"2","Q01":"2","Q11":"3","Q02":"3","Q04":"3","Q09":"2","Q05":"3"},"radio_events":[7583.924999984447,8584.459999983665,12057.199999981094,14111.095000000205,16558.129999990342,20153.009999979986,23383.204999990994,25616.81999999564,29772.914999979548,32491.89999999362,34518.619999988005,36010.55999999517,38773.569999990286],"key_events":[],"mouse_events":[0.1449999981559813,6252.3199999995995,7583.924999984447,8584.459999983665,12057.199999981094,14111.095000000205,16558.129999990342,20153.009999979986,23383.204999990994,25616.81999999564,29772.914999979548,32491.89999999362,34518.619999988005,36010.55999999517,38773.569999990286,39143.424999987474],"rt":39145.54999998654,"survey":"ius12","trial_type":"survey-template","trial_index":1,"time_elapsed":41346,"internal_node_id":"0.0-1.0","task_version":"0.2"},{"item_order":[16,9,13,15,10,0,7,2,12,4,1,3,8,5,11,14,6],"responses":{"Q17":"0","Q10":"3","Q14":"2","Q16":"1","Q11":"1","Q01":"3","Q08":"3","Q03":"3","Q13":"2","Q05":"1","Q02":"1","Q04":"1","Q09":"1","Q06":"2","Q12":"1","Q15":"0","Q07":"0"},"radio_events":[2682.9650000145193,7436.170000000857,9224.755000002915,10525.610000011511,11712.970000022324,13974.450000008801,17669.08500000136,19374.595000001136,20322.11000000825,24181.775000004563,26242.610000015702,34037.63500001514,35050.23500000243,35965.1700000104,36871.790000004694,38579.68500000425,40746.79500001366,42142.645000014454,44629.805000004126,46146.15500002401],"key_events":[],"mouse_events":[2682.9650000145193,7436.170000000857,9224.755000002915,10525.610000011511,11712.970000022324,13974.450000008801,16738.005000021076,17669.08500000136,19374.595000001136,20322.11000000825,24181.775000004563,26242.610000015702,34037.63500001514,35050.23500000243,35965.1700000104,36871.790000004694,38579.68500000425,40746.79500001366,42142.645000014454,43570.850000018254,44629.805000004126,45217.18000000692,46146.15500002401,46843.91500000493],"rt":46847.15000001597,"survey":"pswq","trial_type":"survey-template","trial_index":2,"time_elapsed":88206,"internal_node_id":"0.0-2.0","task_version":"0.2"},{"item_order":[9,10,0,11,5,12,8,4,14,15,3,2,7,13,1,6],"responses":{"Q10":"2","Q11":"1","Q01":"3","Q12":"4","Q06":"3","Q13":"3","Q09":"2","Q05":"1","Q15":"4","Q16":"5","Q04":"4","Q03":"4","Q08":"4","Q14":"2","Q02":"3","Q07":"4"},"radio_events":[12126.734999998007,16883.79000002169,36566.85000000289,41215.33500001533,47729.5050000248,49807.65000000247,53391.4550000045,58309.700000012526,60544.38500001561,62606.10000000452,65937.66500000493,70216.45000000717,73227.77500000666,77204.75000000442,80303.6350000184,82909.89500001888],"key_events":[],"mouse_events":[12126.734999998007,16002.485000004526,16883.79000002169,36566.85000000289,40003.55500000296,41215.33500001533,47729.5050000248,49807.65000000247,53391.4550000045,58309.700000012526,60544.38500001561,62606.10000000452,65937.66500000493,70216.45000000717,73227.77500000666,77204.75000000442,80303.6350000184,82909.89500001888,83553.37000000873],"rt":83556.02000001818,"survey":"nfc","trial_type":"survey-template","trial_index":3,"time_elapsed":171771,"internal_node_id":"0.0-3.0","task_version":"0.2"},{"view_history":"[{\"page_index\":0,\"viewing_time\":3139.6349999995437},{\"page_index\":1,\"viewing_time\":4011.945000005653},{\"page_index\":2,\"viewing_time\":4933.840000012424},{\"page_index\":3,\"viewing_time\":5301.8949999823235},{\"page_index\":4,\"viewing_time\":5573.295000009239},{\"page_index\":5,\"viewing_time\":3076.8600000010338},{\"page_index\":6,\"viewing_time\":4994.895000010729},{\"page_index\":7,\"viewing_time\":6637.78999997885},{\"page_index\":8,\"viewing_time\":7414.565000013681},{\"page_index\":9,\"viewing_time\":4069.759999983944}]","rt":49155.43000001344,"trial_type":"instructions","trial_index":4,"time_elapsed":220929,"internal_node_id":"0.0-4.0-0.0","task_version":"0.2"},{"response_times":[733.2949999836273,619.974999979604,430.41500000981614,478.705000015907,1019.6799999976065],"keys_pressed":["rightarrow","leftarrow","rightarrow","rightarrow","leftarrow"],"horizon":5,"forced_choices":["rightarrow","leftarrow","rightarrow","rightarrow"],"right_color":"lightblue","left_color":"orange","left_mu":40,"right_mu":20,"left_numbers":[37,47,45,43,26],"right_numbers":[15,17,22,26,7],"points_earned":136,"phase":"practice","trial_type":"horizons-task","trial_index":5,"time_elapsed":225724,"internal_node_id":"0.0-4.0-1.0","task_version":"0.2"},{"response_times":[1421.345000009751,591.4749999938067,596.1649999953806,524.2399999988265,1257.4800000002142,748.3599999977741,649.7049999888986,528.9049999846611,511.3450000062585,494.8750000039581],"keys_pressed":["leftarrow","leftarrow","rightarrow","rightarrow","rightarrow","rightarrow","rightarrow","rightarrow","rightarrow","rightarrow"],"horizon":10,"forced_choices":["leftarrow","leftarrow","rightarrow","rightarrow"],"right_color":"orange","left_color":"lightblue","left_mu":60,"right_mu":70,"left_numbers":[60,45,75,54,57,62,65,51,61,64],"right_numbers":[77,83,66,59,80,83,69,61,76,62],"points_earned":661,"phase":"practice","trial_type":"horizons-task","trial_index":6,"time_elapsed":234552,"internal_node_id":"0.0-4.0-2.0","task_version":"0.2"},{"view_history":"[{\"page_index\":0,\"viewing_time\":1450.4050000105053},{\"page_index\":1,\"viewing_time\":1686.569999990752},{\"page_index\":2,\"viewing_time\":2616.2049999984447},{\"page_index\":3,\"viewing_time\":1900.6900000094902}]","rt":7654.115000012098,"trial_type":"instructions","trial_index":7,"time_elapsed":242207,"internal_node_id":"0.0-4.0-3.0","task_version":"0.2"},{"responses":["true","false","true"],"num_errors":0,"rt":7041.09499999322,"trial_type":"horizons-comprehension","trial_index":8,"time_elapsed":249250,"internal_node_id":"0.0-4.0-4.0","task_version":"0.2"},{"trial_type":"call-function","trial_index":9,"time_elapsed":249256,"internal_node_id":"0.0-5.0","task_version":"0.2"},{"view_history":"[{\"page_index\":0,\"viewing_time\":1174.0149999968708},{\"page_index\":1,\"viewing_time\":2305.0099999818485}]","rt":3479.2799999995623,"trial_type":"instructions","trial_index":10,"time_elapsed":252736,"internal_node_id":"0.0-6.0","task_version":"0.2"},{"response_times":[902.9450000089128,1186.9299999962095,477.21500002080575,537.1150000137277,2328.929999988759],"keys_pressed":["rightarrow","rightarrow","leftarrow","leftarrow","rightarrow"],"horizon":5,"forced_choices":["rightarrow","rightarrow","leftarrow","leftarrow"],"right_color":"lightblue","left_color":"orange","left_mu":40,"right_mu":48,"left_numbers":[52,48,28,34,41],"right_numbers":[31,42,64,53,45],"points_earned":180,"phase":"task","trial_type":"horizons-task","trial_index":11,"time_elapsed":259682,"internal_node_id":"0.0-7.0","task_version":"0.2"},{"response_times":[1073.5099999874365,351.5299999853596,531.0349999926984,427.4850000219885,1692.1600000059698,1175.569999992149,949.5349999924656,554.7350000124425,511.8100000254344,546.8850000179373],"keys_pressed":["rightarrow","leftarrow","leftarrow","rightarrow","leftarrow","leftarrow","leftarrow","leftarrow","leftarrow","leftarrow"],"horizon":10,"forced_choices":["rightarrow","leftarrow","leftarrow","rightarrow"],"right_color":"lightblue","left_color":"orange","left_mu":40,"right_mu":32,"left_numbers":[47,41,49,39,54,36,44,36,42,54],"right_numbers":[40,38,30,36,29,26,37,33,43,45],"points_earned":432,"phase":"task","trial_type":"horizons-task","trial_index":12,"time_elapsed":269001,"internal_node_id":"0.0-8.0","task_version":"0.2"},{"response_times":[610.7599999813829,460.8249999873806,430.5099999764934,573.0150000017602,2122.8699999919627],"keys_pressed":["rightarrow","rightarrow","leftarrow","rightarrow","rightarrow"],"horizon":5,"forced_choices":["rightarrow","rightarrow","leftarrow","rightarrow"],"right_color":"orange","left_color":"lightblue","left_mu":60,"right_mu":30,"left_numbers":[70,63,57,75,63],"right_numbers":[33,27,24,25,16],"points_earned":158,"phase":"task","trial_type":"horizons-task","trial_index":13,"time_elapsed":274703,"internal_node_id":"0.0-9.0","task_version":"0.2"},{"response_times":[772.1149999997579,400.805000012042,460.57000002474524,416.9349999865517,1261.095000023488,2115.110000013374,943.9300000085495,580.790000007255,465.8650000055786,389.13500000489876],"keys_pressed":["leftarrow","leftarrow","rightarrow","leftarrow","rightarrow","rightarrow","rightarrow","rightarrow","rightarrow","rightarrow"],"horizon":10,"forced_choices":["leftarrow","leftarrow","rightarrow","leftarrow"],"right_color":"orange","left_color":"lightblue","left_mu":40,"right_mu":60,"left_numbers":[46,44,40,38,51,34,30,42,41,38],"right_numbers":[52,71,74,55,52,45,62,55,62,63],"points_earned":541,"phase":"task","trial_type":"horizons-task","trial_index":14,"time_elapsed":284033,"internal_node_id":"0.0-10.0","task_version":"0.2"},{"response_times":[694.9299999978393,401.030000008177,379.02500000200234,414.8750000167638,1552.029999991646,1195.7999999867752,415.3600000136066,556.1050000251271,352.2850000008475,220.49500001594424],"keys_pressed":["leftarrow","rightarrow","leftarrow","rightarrow","leftarrow","leftarrow","leftarrow","leftarrow","leftarrow","leftarrow"],"horizon":10,"forced_choices":["leftarrow","rightarrow","leftarrow","rightarrow"],"right_color":"orange","left_color":"lightblue","left_mu":60,"right_mu":30,"left_numbers":[42,56,56,61,59,59,61,45,53,52],"right_numbers":[26,28,45,25,29,29,19,35,40,28],"points_earned":480,"phase":"task","trial_type":"horizons-task","trial_index":15,"time_elapsed":291723,"internal_node_id":"0.0-11.0","task_version":"0.2"},{"response_times":[686.0699999961071,416.3750000006985,501.75499997567385,487.80999999144115,1063.2400000176858,505.9200000250712,427.77000000933185,409.5300000044517,1026.3799999956973,470.0250000169035],"keys_pressed":["leftarrow","rightarrow","rightarrow","rightarrow","rightarrow","rightarrow","rightarrow","rightarrow","rightarrow","rightarrow"],"horizon":10,"forced_choices":["leftarrow","rightarrow","rightarrow","rightarrow"],"right_color":"orange","left_color":"lightblue","left_mu":60,"right_mu":40,"left_numbers":[54,60,52,55,62,70,71,61,69,60],"right_numbers":[31,33,44,33,40,28,39,41,40,43],"points_earned":395,"phase":"task","trial_type":"horizons-task","trial_index":16,"time_elapsed":299223,"internal_node_id":"0.0-12.0","task_version":"0.2"},{"response_times":[508.2249999977648,497.49000000883825,453.014999977313,1149.0800000028685,629.7400000039488],"keys_pressed":["rightarrow","rightarrow","rightarrow","leftarrow","rightarrow"],"horizon":5,"forced_choices":["rightarrow","rightarrow","rightarrow","leftarrow"],"right_color":"lightblue","left_color":"orange","left_mu":60,"right_mu":90,"left_numbers":[56,60,53,57,63],"right_numbers":[86,76,84,88,97],"points_earned":400,"phase":"task","trial_type":"horizons-task","trial_index":17,"time_elapsed":303966,"internal_node_id":"0.0-13.0","task_version":"0.2"},{"response_times":[637.4099999957252,464.5499999751337,399.0300000004936,1363.4650000021793,847.0349999843165],"keys_pressed":["leftarrow","rightarrow","rightarrow","leftarrow","rightarrow"],"horizon":5,"forced_choices":["leftarrow","rightarrow","rightarrow","leftarrow"],"right_color":"orange","left_color":"lightblue","left_mu":40,"right_mu":60,"left_numbers":[55,48,44,51,42],"right_numbers":[61,61,44,54,83],"points_earned":294,"phase":"task","trial_type":"horizons-task","trial_index":18,"time_elapsed":309183,"internal_node_id":"0.0-14.0","task_version":"0.2"},{"response_times":[669.1500000015367,395.7949999894481,405.81999998539686,525.1199999765959,1060.5300000170246],"keys_pressed":["rightarrow","leftarrow","rightarrow","leftarrow","leftarrow"],"horizon":5,"forced_choices":["rightarrow","leftarrow","rightarrow","leftarrow"],"right_color":"lightblue","left_color":"orange","left_mu":60,"right_mu":48,"left_numbers":[77,62,64,59,66],"right_numbers":[46,27,42,60,45],"points_earned":275,"phase":"task","trial_type":"horizons-task","trial_index":19,"time_elapsed":313745,"internal_node_id":"0.0-15.0","task_version":"0.2"},{"response_times":[475.9699999995064,372.88499998976476,452.66500001889654,404.4999999750871,939.1799999866635],"keys_pressed":["leftarrow","rightarrow","rightarrow","rightarrow","rightarrow"],"horizon":5,"forced_choices":["leftarrow","rightarrow","rightarrow","rightarrow"],"right_color":"lightblue","left_color":"orange","left_mu":40,"right_mu":48,"left_numbers":[28,45,46,38,38],"right_numbers":[48,42,38,60,40],"points_earned":208,"phase":"task","trial_type":"horizons-task","trial_index":20,"time_elapsed":317894,"internal_node_id":"0.0-16.0","task_version":"0.2"},{"response_times":[543.5299999953713,441.1050000053365,485.0049999949988,384.330000000773,1413.5850000020582,817.5300000002608,687.7500000118744,402.4550000031013,416.5999999968335,382.7750000054948],"keys_pressed":["leftarrow","leftarrow","rightarrow","leftarrow","leftarrow","leftarrow","leftarrow","leftarrow","leftarrow","leftarrow"],"horizon":10,"forced_choices":["leftarrow","leftarrow","rightarrow","leftarrow"],"right_color":"orange","left_color":"lightblue","left_mu":60,"right_mu":56,"left_numbers":[42,55,61,57,66,57,46,46,58,63],"right_numbers":[71,43,63,60,54,71,51,52,57,50],"points_earned":553,"phase":"task","trial_type":"horizons-task","trial_index":21,"time_elapsed":325375,"internal_node_id":"0.0-17.0","task_version":"0.2"},{"response_times":[506.45999997504987,435.13999998685904,510.52499999059364,685.6949999928474,1550.1649999932852,2057.6249999867287,526.6999999876134,527.4199999985285,254.86499999533407,226.3399999937974],"keys_pressed":["rightarrow","rightarrow","leftarrow","leftarrow","rightarrow","rightarrow","rightarrow","rightarrow","rightarrow","rightarrow"],"horizon":10,"forced_choices":["rightarrow","rightarrow","leftarrow","leftarrow"],"right_color":"lightblue","left_color":"orange","left_mu":40,"right_mu":48,"left_numbers":[26,47,31,46,34,49,38,48,32,46],"right_numbers":[45,41,39,49,45,42,59,56,43,44],"points_earned":452,"phase":"task","trial_type":"horizons-task","trial_index":22,"time_elapsed":334162,"internal_node_id":"0.0-18.0","task_version":"0.2"},{"response_times":[1057.6100000180304,609.3399999954272,685.4100000055041,805.6150000193156,1158.579999988433],"keys_pressed":["leftarrow","rightarrow","rightarrow","leftarrow","leftarrow"],"horizon":5,"forced_choices":["leftarrow","rightarrow","rightarrow","leftarrow"],"right_color":"orange","left_color":"lightblue","left_mu":60,"right_mu":52,"left_numbers":[58,39,48,56,54],"right_numbers":[43,53,46,60,43],"points_earned":267,"phase":"task","trial_type":"horizons-task","trial_index":23,"time_elapsed":339982,"internal_node_id":"0.0-19.0","task_version":"0.2"},{"response_times":[649.6749999932945,867.3100000014529,543.870000023162,887.5049999915063,1003.4149999846704],"keys_pressed":["leftarrow","leftarrow","rightarrow","leftarrow","leftarrow"],"horizon":5,"forced_choices":["leftarrow","leftarrow","rightarrow","leftarrow"],"right_color":"orange","left_color":"lightblue","left_mu":40,"right_mu":60,"left_numbers":[31,59,40,43,34],"right_numbers":[55,60,57,69,73],"points_earned":224,"phase":"task","trial_type":"horizons-task","trial_index":24,"time_elapsed":345439,"internal_node_id":"0.0-20.0","task_version":"0.2"},{"response_times":[482.34499999671243,482.3799999721814,445.47000000602566,405.47999998671,1003.065000026254],"keys_pressed":["leftarrow","leftarrow","rightarrow","leftarrow","leftarrow"],"horizon":5,"forced_choices":["leftarrow","leftarrow","rightarrow","leftarrow"],"right_color":"orange","left_color":"lightblue","left_mu":60,"right_mu":56,"left_numbers":[55,48,64,49,49],"right_numbers":[68,57,50,32,53],"points_earned":251,"phase":"task","trial_type":"horizons-task","trial_index":25,"time_elapsed":349762,"internal_node_id":"0.0-21.0","task_version":"0.2"},{"response_times":[478.60999999102205,402.66000002156943,338.8299999933224,389.56499999039806,791.7850000085309],"keys_pressed":["leftarrow","rightarrow","leftarrow","rightarrow","rightarrow"],"horizon":5,"forced_choices":["leftarrow","rightarrow","leftarrow","rightarrow"],"right_color":"lightblue","left_color":"orange","left_mu":60,"right_mu":90,"left_numbers":[63,54,45,59,64],"right_numbers":[81,91,92,99,92],"points_earned":390,"phase":"task","trial_type":"horizons-task","trial_index":26,"time_elapsed":353671,"internal_node_id":"0.0-22.0","task_version":"0.2"},{"response_times":[584.6250000176951,912.9900000116322,471.0400000039954,489.3199999933131,639.4950000103563],"keys_pressed":["leftarrow","leftarrow","leftarrow","rightarrow","leftarrow"],"horizon":5,"forced_choices":["leftarrow","leftarrow","leftarrow","rightarrow"],"right_color":"lightblue","left_color":"orange","left_mu":40,"right_mu":44,"left_numbers":[38,39,34,48,37],"right_numbers":[53,45,53,38,42],"points_earned":186,"phase":"task","trial_type":"horizons-task","trial_index":27,"time_elapsed":358274,"internal_node_id":"0.0-23.0","task_version":"0.2"},{"response_times":[746.8149999913294,506.4249999995809,454.94999998481944,366.97999999159947,1383.1500000087544,754.529999976512,263.21000000461936,303.76999999862164,398.7550000019837,234.79000001680106],"keys_pressed":["rightarrow","rightarrow","leftarrow","rightarrow","rightarrow","rightarrow","rightarrow","rightarrow","rightarrow","rightarrow"],"horizon":10,"forced_choices":["rightarrow","rightarrow","leftarrow","rightarrow"],"right_color":"lightblue","left_color":"orange","left_mu":40,"right_mu":20,"left_numbers":[30,41,40,40,33,38,53,29,31,16],"right_numbers":[29,24,21,27,16,14,25,34,26,13],"points_earned":248,"phase":"task","trial_type":"horizons-task","trial_index":28,"time_elapsed":365193,"internal_node_id":"0.0-24.0","task_version":"0.2"},{"response_times":[1052.3150000080932,716.3900000159629,491.0150000068825,698.8600000040606,994.4200000027195],"keys_pressed":["leftarrow","rightarrow","rightarrow","leftarrow","leftarrow"],"horizon":5,"forced_choices":["leftarrow","rightarrow","rightarrow","leftarrow"],"right_color":"orange","left_color":"lightblue","left_mu":60,"right_mu":40,"left_numbers":[69,61,49,61,56],"right_numbers":[20,50,41,34,45],"points_earned":277,"phase":"task","trial_type":"horizons-task","trial_index":29,"time_elapsed":370650,"internal_node_id":"0.0-25.0","task_version":"0.2"},{"response_times":[416.25999999814667,369.65500001679175,447.310000017751,566.434999986086,632.964999997057],"keys_pressed":["rightarrow","leftarrow","leftarrow","leftarrow","leftarrow"],"horizon":5,"forced_choices":["rightarrow","leftarrow","leftarrow","leftarrow"],"right_color":"orange","left_color":"lightblue","left_mu":60,"right_mu":68,"left_numbers":[58,59,51,62,64],"right_numbers":[56,68,84,75,63],"points_earned":292,"phase":"task","trial_type":"horizons-task","trial_index":30,"time_elapsed":374589,"internal_node_id":"0.0-26.0","task_version":"0.2"},{"response_times":[528.0599999823608,375.1650000049267,436.3500000035856,432.89999998523854,840.1449999946635,672.6999999955297,377.7700000209734,486.60999999265186,232.0449999824632,178.41500000213273],"keys_pressed":["rightarrow","leftarrow","leftarrow","leftarrow","leftarrow","leftarrow","leftarrow","leftarrow","leftarrow","leftarrow"],"horizon":10,"forced_choices":["rightarrow","leftarrow","leftarrow","leftarrow"],"right_color":"orange","left_color":"lightblue","left_mu":40,"right_mu":52,"left_numbers":[20,37,34,51,50,27,39,49,40,33],"right_numbers":[61,53,50,57,50,53,64,51,58,47],"points_earned":421,"phase":"task","trial_type":"horizons-task","trial_index":31,"time_elapsed":380653,"internal_node_id":"0.0-27.0","task_version":"0.2"},{"response_times":[571.4300000108778,437.8549999964889,456.2300000106916,454.7850000089966,963.6800000153016],"keys_pressed":["rightarrow","rightarrow","leftarrow","rightarrow","rightarrow"],"horizon":5,"forced_choices":["rightarrow","rightarrow","leftarrow","rightarrow"],"right_color":"orange","left_color":"lightblue","left_mu":40,"right_mu":36,"left_numbers":[37,46,32,35,54],"right_numbers":[39,53,33,30,46],"points_earned":200,"phase":"task","trial_type":"horizons-task","trial_index":32,"time_elapsed":385040,"internal_node_id":"0.0-28.0","task_version":"0.2"},{"response_times":[484.485000022687,351.7250000149943,415.6000000075437,415.16500001307577,523.3549999829847],"keys_pressed":["rightarrow","leftarrow","leftarrow","rightarrow","leftarrow"],"horizon":5,"forced_choices":["rightarrow","leftarrow","leftarrow","rightarrow"],"right_color":"lightblue","left_color":"orange","left_mu":40,"right_mu":10,"left_numbers":[37,40,39,49,28],"right_numbers":[15,15,11,13,9],"points_earned":135,"phase":"task","trial_type":"horizons-task","trial_index":33,"time_elapsed":388736,"internal_node_id":"0.0-29.0","task_version":"0.2"},{"response_times":[550.93999998644,384.779999993043,548.6300000047777,386.4150000154041,858.9499999943655,660.7199999853037,798.255000001518,826.9900000013877,2966.515000007348,487.27000001235865],"keys_pressed":["rightarrow","leftarrow","leftarrow","leftarrow","leftarrow","leftarrow","leftarrow","rightarrow","rightarrow","rightarrow"],"horizon":10,"forced_choices":["rightarrow","leftarrow","leftarrow","leftarrow"],"right_color":"lightblue","left_color":"orange","left_mu":40,"right_mu":70,"left_numbers":[28,38,35,41,26,41,38,44,37,46],"right_numbers":[56,65,66,58,88,56,57,57,67,63],"points_earned":462,"phase":"task","trial_type":"horizons-task","trial_index":34,"time_elapsed":398712,"internal_node_id":"0.0-30.0","task_version":"0.2"},{"response_times":[814.379999996163,459.2199999897275,438.8749999925494,689.6300000080373,1513.3649999916088,2347.3749999830034,3494.2399999999907,615.8850000065286,568.2449999731034,423.464999999851],"keys_pressed":["leftarrow","rightarrow","leftarrow","rightarrow","rightarrow","rightarrow","rightarrow","rightarrow","rightarrow","rightarrow"],"horizon":10,"forced_choices":["leftarrow","rightarrow","leftarrow","rightarrow"],"right_color":"orange","left_color":"lightblue","left_mu":60,"right_mu":64,"left_numbers":[54,65,57,46,69,78,56,62,53,70],"right_numbers":[57,57,72,70,72,70,46,52,38,68],"points_earned":584,"phase":"task","trial_type":"horizons-task","trial_index":35,"time_elapsed":411583,"internal_node_id":"0.0-31.0","task_version":"0.2"},{"response_times":[930.0849999999627,726.1100000177976,1560.475000005681,1641.2899999995716,2454.9000000115484,674.9300000083167,1551.644999999553,615.1850000023842,473.16500000306405,476.64999999688007],"keys_pressed":["leftarrow","rightarrow","rightarrow","rightarrow","rightarrow","rightarrow","leftarrow","rightarrow","rightarrow","rightarrow"],"horizon":10,"forced_choices":["leftarrow","rightarrow","rightarrow","rightarrow"],"right_color":"lightblue","left_color":"orange","left_mu":40,"right_mu":48,"left_numbers":[41,50,45,28,31,49,27,39,57,41],"right_numbers":[31,49,44,52,57,42,52,49,51,60],"points_earned":472,"phase":"task","trial_type":"horizons-task","trial_index":36,"time_elapsed":424190,"internal_node_id":"0.0-32.0","task_version":"0.2"},{"response_times":[641.5900000138208,536.5699999965727,1377.249999990454,2381.2850000103936,1243.659999978263],"keys_pressed":["leftarrow","leftarrow","rightarrow","leftarrow","rightarrow"],"horizon":5,"forced_choices":["leftarrow","leftarrow","rightarrow","leftarrow"],"right_color":"lightblue","left_color":"orange","left_mu":60,"right_mu":80,"left_numbers":[60,54,63,55,64],"right_numbers":[83,78,70,93,87],"points_earned":326,"phase":"task","trial_type":"horizons-task","trial_index":37,"time_elapsed":431876,"internal_node_id":"0.0-33.0","task_version":"0.2"},{"response_times":[938.7250000145286,442.50500001362525,868.2200000039302,371.6650000133086,1200.989999982994],"keys_pressed":["rightarrow","leftarrow","rightarrow","leftarrow","leftarrow"],"horizon":5,"forced_choices":["rightarrow","leftarrow","rightarrow","leftarrow"],"right_color":"lightblue","left_color":"orange","left_mu":40,"right_mu":20,"left_numbers":[34,41,36,50,42],"right_numbers":[28,26,5,37,2],"points_earned":166,"phase":"task","trial_type":"horizons-task","trial_index":38,"time_elapsed":437201,"internal_node_id":"0.0-34.0","task_version":"0.2"},{"response_times":[578.7800000107381,377.2900000039954,477.2649999940768,1540.3699999733362,351.23999998904765,1647.7400000148918,986.2300000095274,779.58000000217,488.21500001940876,895.3349999792408],"keys_pressed":["rightarrow","leftarrow","rightarrow","rightarrow","leftarrow","rightarrow","rightarrow","rightarrow","rightarrow","rightarrow"],"horizon":10,"forced_choices":["rightarrow","leftarrow","rightarrow","rightarrow"],"right_color":"lightblue","left_color":"orange","left_mu":60,"right_mu":72,"left_numbers":[70,64,55,59,45,63,50,70,50,72],"right_numbers":[84,69,67,79,63,81,84,89,71,73],"points_earned":737,"phase":"task","trial_type":"horizons-task","trial_index":39,"time_elapsed":446827,"internal_node_id":"0.0-35.0","task_version":"0.2"},{"response_times":[749.0650000108872,504.98500000685453,890.9000000276137,873.0199999990873,1407.7799999795388],"keys_pressed":["rightarrow","rightarrow","leftarrow","leftarrow","leftarrow"],"horizon":5,"forced_choices":["rightarrow","rightarrow","leftarrow","leftarrow"],"right_color":"orange","left_color":"lightblue","left_mu":60,"right_mu":56,"left_numbers":[58,45,50,76,64],"right_numbers":[38,52,57,55,53],"points_earned":280,"phase":"task","trial_type":"horizons-task","trial_index":40,"time_elapsed":452758,"internal_node_id":"0.0-36.0","task_version":"0.2"},{"response_times":[541.6449999902397,316.19000001228414,530.6300000229385,434.3550000048708,1338.9250000182074,1893.7450000084937,570.754999993369,671.7500000086147,847.7850000199396,455.389999988256],"keys_pressed":["leftarrow","rightarrow","rightarrow","leftarrow","rightarrow","rightarrow","rightarrow","rightarrow","rightarrow","rightarrow"],"horizon":10,"forced_choices":["leftarrow","rightarrow","rightarrow","leftarrow"],"right_color":"orange","left_color":"lightblue","left_mu":60,"right_mu":52,"left_numbers":[48,47,48,50,75,57,49,69,59,59],"right_numbers":[44,59,50,35,59,52,53,65,46,50],"points_earned":532,"phase":"task","trial_type":"horizons-task","trial_index":41,"time_elapsed":461864,"internal_node_id":"0.0-37.0","task_version":"0.2"},{"response_times":[598.8750000251457,357.8599999891594,549.5300000184216,1243.4749999956694,1667.0999999914784],"keys_pressed":["rightarrow","leftarrow","leftarrow","rightarrow","leftarrow"],"horizon":5,"forced_choices":["rightarrow","leftarrow","leftarrow","rightarrow"],"right_color":"lightblue","left_color":"orange","left_mu":40,"right_mu":32,"left_numbers":[51,37,50,26,36],"right_numbers":[28,29,27,41,40],"points_earned":192,"phase":"task","trial_type":"horizons-task","trial_index":42,"time_elapsed":467785,"internal_node_id":"0.0-38.0","task_version":"0.2"},{"response_times":[601.6050000034738,342.0449999975972,341.13499999511987,479.66499999165535,966.3500000024214,1924.7850000101607,492.3000000126194,786.0100000107195,515.2500000258442,406.9149999995716],"keys_pressed":["leftarrow","rightarrow","leftarrow","rightarrow","rightarrow","rightarrow","rightarrow","rightarrow","rightarrow","rightarrow"],"horizon":10,"forced_choices":["leftarrow","rightarrow","leftarrow","rightarrow"],"right_color":"lightblue","left_color":"orange","left_mu":60,"right_mu":90,"left_numbers":[63,51,68,63,45,63,67,68,52,62],"right_numbers":[97,83,101,92,77,82,85,102,87,80],"points_earned":819,"phase":"task","trial_type":"horizons-task","trial_index":43,"time_elapsed":476144,"internal_node_id":"0.0-39.0","task_version":"0.2"},{"response_times":[546.4999999967404,438.6250000097789,397.144999995362,551.4799999946263,838.5399999970105],"keys_pressed":["leftarrow","rightarrow","leftarrow","rightarrow","leftarrow"],"horizon":5,"forced_choices":["leftarrow","rightarrow","leftarrow","rightarrow"],"right_color":"orange","left_color":"lightblue","left_mu":60,"right_mu":30,"left_numbers":[46,46,68,51,63],"right_numbers":[18,36,20,34,27],"points_earned":247,"phase":"task","trial_type":"horizons-task","trial_index":44,"time_elapsed":480419,"internal_node_id":"0.0-40.0","task_version":"0.2"},{"response_times":[408.29000002122484,318.1249999906868,1197.6299999805633,1029.9599999852944,472.2900000051595],"keys_pressed":["leftarrow","rightarrow","rightarrow","rightarrow","leftarrow"],"horizon":5,"forced_choices":["leftarrow","rightarrow","rightarrow","rightarrow"],"right_color":"lightblue","left_color":"orange","left_mu":40,"right_mu":10,"left_numbers":[34,42,37,39,46],"right_numbers":[0,6,15,4,0],"points_earned":105,"phase":"task","trial_type":"horizons-task","trial_index":45,"time_elapsed":485348,"internal_node_id":"0.0-41.0","task_version":"0.2"},{"response_times":[668.1999999855179,380.9449999826029,536.179999995511,942.3899999819696,605.8049999992363],"keys_pressed":["leftarrow","rightarrow","leftarrow","leftarrow","leftarrow"],"horizon":5,"forced_choices":["leftarrow","rightarrow","leftarrow","leftarrow"],"right_color":"lightblue","left_color":"orange","left_mu":60,"right_mu":48,"left_numbers":[59,58,70,54,63],"right_numbers":[60,45,41,46,53],"points_earned":291,"phase":"task","trial_type":"horizons-task","trial_index":46,"time_elapsed":489984,"internal_node_id":"0.0-42.0","task_version":"0.2"},{"response_times":[606.2450000026729,378.065000026254,649.5400000130758,398.52499999688007,883.3049999957439],"keys_pressed":["rightarrow","leftarrow","rightarrow","leftarrow","rightarrow"],"horizon":5,"forced_choices":["rightarrow","leftarrow","rightarrow","leftarrow"],"right_color":"orange","left_color":"lightblue","left_mu":60,"right_mu":68,"left_numbers":[59,49,55,70,64],"right_numbers":[78,49,65,82,52],"points_earned":314,"phase":"task","trial_type":"horizons-task","trial_index":47,"time_elapsed":494404,"internal_node_id":"0.0-43.0","task_version":"0.2"},{"response_times":[749.4000000006054,537.3100000142585,485.225000011269,542.6950000110082,1093.3250000234693,948.0449999973644,979.2199999792501,366.42000000574626,424.99999998835847,238.53000000235625],"keys_pressed":["rightarrow","rightarrow","rightarrow","leftarrow","rightarrow","rightarrow","rightarrow","rightarrow","rightarrow","rightarrow"],"horizon":10,"forced_choices":["rightarrow","rightarrow","rightarrow","leftarrow"],"right_color":"lightblue","left_color":"orange","left_mu":60,"right_mu":90,"left_numbers":[55,65,58,65,53,62,62,48,51,55],"right_numbers":[76,86,91,88,83,98,101,79,95,93],"points_earned":867,"phase":"task","trial_type":"horizons-task","trial_index":48,"time_elapsed":502271,"internal_node_id":"0.0-44.0","task_version":"0.2"},{"response_times":[732.2699999785982,646.3449999864679,560.364999982994,619.9150000174996,1632.9900000127964],"keys_pressed":["leftarrow","leftarrow","rightarrow","rightarrow","leftarrow"],"horizon":5,"forced_choices":["leftarrow","leftarrow","rightarrow","rightarrow"],"right_color":"orange","left_color":"lightblue","left_mu":40,"right_mu":28,"left_numbers":[44,51,48,37,38],"right_numbers":[34,19,24,32,37],"points_earned":189,"phase":"task","trial_type":"horizons-task","trial_index":49,"time_elapsed":507966,"internal_node_id":"0.0-45.0","task_version":"0.2"},{"response_times":[612.6800000201911,430.6299999880139,559.979999990901,548.3900000108406,597.9149999911897,1279.1850000212435,553.8450000167359,1384.5750000036787,388.80499999504536,991.8349999934435],"keys_pressed":["leftarrow","leftarrow","rightarrow","rightarrow","rightarrow","leftarrow","leftarrow","leftarrow","leftarrow","leftarrow"],"horizon":10,"forced_choices":["leftarrow","leftarrow","rightarrow","rightarrow"],"right_color":"orange","left_color":"lightblue","left_mu":40,"right_mu":28,"left_numbers":[43,55,48,47,30,44,41,23,45,29],"right_numbers":[17,15,39,21,26,27,21,13,32,16],"points_earned":366,"phase":"task","trial_type":"horizons-task","trial_index":50,"time_elapsed":516817,"internal_node_id":"0.0-46.0","task_version":"0.2"},{"view_history":"[{\"page_index\":0,\"viewing_time\":23433.500000013737},{\"page_index\":1,\"viewing_time\":2122.4899999797344}]","rt":25556.29500001669,"trial_type":"instructions","trial_index":51,"time_elapsed":542375,"internal_node_id":"0.0-47.0","task_version":"0.2"},{"response_times":[1422.404999990249,399.2750000033993,812.4150000221562,870.7749999884982,836.3349999999627,1297.515000012936,936.054999998305,692.3050000041258,1339.6199999842793,484.3550000223331],"keys_pressed":["rightarrow","rightarrow","leftarrow","rightarrow","leftarrow","leftarrow","rightarrow","leftarrow","leftarrow","leftarrow"],"horizon":10,"forced_choices":["rightarrow","rightarrow","leftarrow","rightarrow"],"right_color":"orange","left_color":"lightblue","left_mu":40,"right_mu":36,"left_numbers":[46,31,47,32,48,37,31,36,43,29],"right_numbers":[33,33,34,42,38,44,34,28,28,36],"points_earned":382,"phase":"task","trial_type":"horizons-task","trial_index":52,"time_elapsed":552978,"internal_node_id":"0.0-48.0","task_version":"0.2"},{"response_times":[575.7250000024214,420.92000000411645,446.28000000375323,654.7900000005029,1792.2149999940302],"keys_pressed":["rightarrow","rightarrow","rightarrow","leftarrow","leftarrow"],"horizon":5,"forced_choices":["rightarrow","rightarrow","rightarrow","leftarrow"],"right_color":"orange","left_color":"lightblue","left_mu":60,"right_mu":52,"left_numbers":[62,61,64,63,52],"right_numbers":[43,42,62,51,54],"points_earned":262,"phase":"task","trial_type":"horizons-task","trial_index":53,"time_elapsed":558375,"internal_node_id":"0.0-49.0","task_version":"0.2"},{"response_times":[510.1450000074692,391.364999988582,405.1049999834504,764.7500000020955,893.6749999993481],"keys_pressed":["leftarrow","rightarrow","leftarrow","leftarrow","leftarrow"],"horizon":5,"forced_choices":["leftarrow","rightarrow","leftarrow","leftarrow"],"right_color":"lightblue","left_color":"orange","left_mu":40,"right_mu":32,"left_numbers":[47,33,41,50,33],"right_numbers":[2,23,34,29,41],"points_earned":194,"phase":"task","trial_type":"horizons-task","trial_index":54,"time_elapsed":562841,"internal_node_id":"0.0-50.0","task_version":"0.2"},{"response_times":[673.9050000032876,915.7399999967311,823.6899999901652,913.7249999912456,620.7599999906961,2373.424999997951,580.7650000206195,865.1200000022072,587.7249999903142,388.15999997314066],"keys_pressed":["rightarrow","leftarrow","rightarrow","rightarrow","rightarrow","leftarrow","rightarrow","rightarrow","rightarrow","rightarrow"],"horizon":10,"forced_choices":["rightarrow","leftarrow","rightarrow","rightarrow"],"right_color":"orange","left_color":"lightblue","left_mu":60,"right_mu":64,"left_numbers":[52,64,67,55,68,57,62,76,52,59],"right_numbers":[67,41,81,64,61,54,56,63,67,52],"points_earned":632,"phase":"task","trial_type":"horizons-task","trial_index":55,"time_elapsed":573088,"internal_node_id":"0.0-51.0","task_version":"0.2"},{"response_times":[730.2499999932479,949.6649999928195,688.6499999964144,980.2199999976438,1811.939999985043,829.3000000121538,1028.1449999893084,414.77499998291023,239.45000002277084,324.495000008028],"keys_pressed":["leftarrow","leftarrow","leftarrow","rightarrow","leftarrow","leftarrow","leftarrow","leftarrow","leftarrow","leftarrow"],"horizon":10,"forced_choices":["leftarrow","leftarrow","leftarrow","rightarrow"],"right_color":"lightblue","left_color":"orange","left_mu":40,"right_mu":44,"left_numbers":[46,32,43,57,45,33,43,48,46,35],"right_numbers":[49,38,45,38,50,39,37,59,35,37],"points_earned":409,"phase":"task","trial_type":"horizons-task","trial_index":56,"time_elapsed":582591,"internal_node_id":"0.0-52.0","task_version":"0.2"},{"response_times":[820.2650000166614,1009.5049999945331,453.8349999929778,959.0699999826029,472.6199999859091,659.2249999812339,759.7200000018347,528.3500000077765,473.3600000035949,192.60499998927116],"keys_pressed":["leftarrow","leftarrow","rightarrow","rightarrow","rightarrow","rightarrow","rightarrow","rightarrow","rightarrow","rightarrow"],"horizon":10,"forced_choices":["leftarrow","leftarrow","rightarrow","rightarrow"],"right_color":"lightblue","left_color":"orange","left_mu":60,"right_mu":80,"left_numbers":[65,54,54,59,60,72,57,38,61,65],"right_numbers":[81,77,82,81,90,79,76,78,85,79],"points_earned":769,"phase":"task","trial_type":"horizons-task","trial_index":57,"time_elapsed":590423,"internal_node_id":"0.0-53.0","task_version":"0.2"},{"response_times":[663.6500000022352,591.149999992922,530.4700000269804,480.95999998622574,743.9350000058766,943.6399999831337,658.7949999957345,829.1049999825191,441.22500001685694,204.4750000059139],"keys_pressed":["rightarrow","rightarrow","leftarrow","rightarrow","leftarrow","leftarrow","leftarrow","rightarrow","leftarrow","leftarrow"],"horizon":10,"forced_choices":["rightarrow","rightarrow","leftarrow","rightarrow"],"right_color":"orange","left_color":"lightblue","left_mu":60,"right_mu":30,"left_numbers":[54,73,50,63,49,66,48,67,61,52],"right_numbers":[35,38,40,39,36,30,19,33,39,17],"points_earned":471,"phase":"task","trial_type":"horizons-task","trial_index":58,"time_elapsed":598014,"internal_node_id":"0.0-54.0","task_version":"0.2"},{"response_times":[744.3800000182819,598.599999997532,489.23000000650063,500.4750000080094,1498.6700000008568],"keys_pressed":["leftarrow","leftarrow","leftarrow","rightarrow","leftarrow"],"horizon":5,"forced_choices":["leftarrow","leftarrow","leftarrow","rightarrow"],"right_color":"orange","left_color":"lightblue","left_mu":40,"right_mu":28,"left_numbers":[35,46,36,46,25],"right_numbers":[34,18,27,31,28],"points_earned":173,"phase":"task","trial_type":"horizons-task","trial_index":59,"time_elapsed":603349,"internal_node_id":"0.0-55.0","task_version":"0.2"},{"response_times":[729.6249999781139,373.47500000032596,255.96500001847744,522.3300000070594,2467.644999996992],"keys_pressed":["leftarrow","rightarrow","leftarrow","rightarrow","rightarrow"],"horizon":5,"forced_choices":["leftarrow","rightarrow","leftarrow","rightarrow"],"right_color":"lightblue","left_color":"orange","left_mu":40,"right_mu":44,"left_numbers":[32,46,43,32,34],"right_numbers":[37,51,48,39,32],"points_earned":197,"phase":"task","trial_type":"horizons-task","trial_index":60,"time_elapsed":609224,"internal_node_id":"0.0-56.0","task_version":"0.2"},{"response_times":[533.5950000153389,340.3600000019651,474.69999999157153,798.7000000139233,1019.4900000060443,1354.6749999804888,1128.9450000040233,2072.0649999857415,549.8400000215042,500.82000001566485],"keys_pressed":["rightarrow","rightarrow","leftarrow","leftarrow","rightarrow","leftarrow","leftarrow","leftarrow","rightarrow","leftarrow"],"horizon":10,"forced_choices":["rightarrow","rightarrow","leftarrow","leftarrow"],"right_color":"orange","left_color":"lightblue","left_mu":60,"right_mu":56,"left_numbers":[59,57,55,54,73,74,63,50,57,73],"right_numbers":[60,80,53,60,54,51,53,68,45,68],"points_earned":608,"phase":"task","trial_type":"horizons-task","trial_index":61,"time_elapsed":619503,"internal_node_id":"0.0-57.0","task_version":"0.2"},{"response_times":[607.1200000005774,486.14999998244457,672.4549999926239,583.9249999844469,895.3000000037719],"keys_pressed":["leftarrow","leftarrow","rightarrow","rightarrow","rightarrow"],"horizon":5,"forced_choices":["leftarrow","leftarrow","rightarrow","rightarrow"],"right_color":"lightblue","left_color":"orange","left_mu":40,"right_mu":70,"left_numbers":[41,30,39,36,33],"right_numbers":[83,81,67,67,84],"points_earned":289,"phase":"task","trial_type":"horizons-task","trial_index":62,"time_elapsed":624254,"internal_node_id":"0.0-58.0","task_version":"0.2"},{"response_times":[443.13999998848885,443.02999999490567,635.2900000056252,496.0950000095181,525.0050000031479,989.3100000044797,726.7649999994319,501.8399999826215,425.1149999909103,321.9849999877624],"keys_pressed":["leftarrow","rightarrow","rightarrow","rightarrow","rightarrow","leftarrow","leftarrow","leftarrow","leftarrow","leftarrow"],"horizon":10,"forced_choices":["leftarrow","rightarrow","rightarrow","rightarrow"],"right_color":"lightblue","left_color":"orange","left_mu":40,"right_mu":10,"left_numbers":[41,44,28,27,47,32,46,24,34,33],"right_numbers":[23,3,22,3,17,4,11,23,11,12],"points_earned":255,"phase":"task","trial_type":"horizons-task","trial_index":63,"time_elapsed":631268,"internal_node_id":"0.0-59.0","task_version":"0.2"},{"response_times":[551.7600000021048,700.9549999784213,956.5899999870453,570.7800000091083,604.2249999882188],"keys_pressed":["rightarrow","rightarrow","leftarrow","leftarrow","rightarrow"],"horizon":5,"forced_choices":["rightarrow","rightarrow","leftarrow","leftarrow"],"right_color":"lightblue","left_color":"orange","left_mu":60,"right_mu":72,"left_numbers":[50,53,64,44,77],"right_numbers":[75,75,61,78,70],"points_earned":328,"phase":"task","trial_type":"horizons-task","trial_index":64,"time_elapsed":636154,"internal_node_id":"0.0-60.0","task_version":"0.2"},{"response_times":[542.8299999912269,353.68499998003244,470.0050000101328,689.6199999901,1167.8899999824353,1357.4749999970663,414.9299999990035,233.68000000482425,245.33000000519678,199.56499998806976],"keys_pressed":["rightarrow","leftarrow","rightarrow","leftarrow","leftarrow","rightarrow","leftarrow","leftarrow","leftarrow","leftarrow"],"horizon":10,"forced_choices":["rightarrow","leftarrow","rightarrow","leftarrow"],"right_color":"lightblue","left_color":"orange","left_mu":40,"right_mu":20,"left_numbers":[29,36,28,50,42,35,40,41,35,37],"right_numbers":[7,12,20,22,11,5,21,29,25,17],"points_earned":313,"phase":"task","trial_type":"horizons-task","trial_index":65,"time_elapsed":643335,"internal_node_id":"0.0-61.0","task_version":"0.2"},{"response_times":[521.5750000206754,388.68999999249354,580.389999988256,841.4350000093691,549.4650000182446,671.4849999989383,711.1750000040047,246.6699999931734,195.52999999723397,207.88999999058433],"keys_pressed":["rightarrow","leftarrow","leftarrow","rightarrow","leftarrow","leftarrow","leftarrow","leftarrow","leftarrow","leftarrow"],"horizon":10,"forced_choices":["rightarrow","leftarrow","leftarrow","rightarrow"],"right_color":"lightblue","left_color":"orange","left_mu":40,"right_mu":10,"left_numbers":[49,42,44,39,57,40,30,40,41,41],"right_numbers":[21,10,9,4,25,26,12,8,18,5],"points_earned":360,"phase":"task","trial_type":"horizons-task","trial_index":66,"time_elapsed":649756,"internal_node_id":"0.0-62.0","task_version":"0.2"},{"response_times":[502.78999999864027,611.6000000038184,475.784999987809,414.66499998932704,805.8449999953154,773.0199999932665,532.4250000121538,532.4799999943934,516.105000016978,388.1000000110362],"keys_pressed":["leftarrow","leftarrow","rightarrow","leftarrow","rightarrow","rightarrow","rightarrow","rightarrow","rightarrow","rightarrow"],"horizon":10,"forced_choices":["leftarrow","leftarrow","rightarrow","leftarrow"],"right_color":"lightblue","left_color":"orange","left_mu":60,"right_mu":80,"left_numbers":[59,60,67,66,54,54,76,57,53,56],"right_numbers":[78,88,81,79,72,73,72,97,72,71],"points_earned":723,"phase":"task","trial_type":"horizons-task","trial_index":67,"time_elapsed":656815,"internal_node_id":"0.0-63.0","task_version":"0.2"},{"response_times":[508.8300000061281,461.4350000047125,425.69999999250285,585.4699999908917,1507.8599999833386,475.86999999475665,560.6600000173785,455.52000001771376,340.85000000777654,220.195000001695],"keys_pressed":["leftarrow","leftarrow","rightarrow","rightarrow","rightarrow","rightarrow","rightarrow","rightarrow","rightarrow","rightarrow"],"horizon":10,"forced_choices":["leftarrow","leftarrow","rightarrow","rightarrow"],"right_color":"lightblue","left_color":"orange","left_mu":40,"right_mu":70,"left_numbers":[41,33,45,33,43,39,49,39,37,46],"right_numbers":[51,77,88,64,73,77,68,72,58,67],"points_earned":641,"phase":"task","trial_type":"horizons-task","trial_index":68,"time_elapsed":663862,"internal_node_id":"0.0-64.0","task_version":"0.2"},{"response_times":[1069.4899999944028,481.1000000045169,476.31500000716187,497.7200000139419,1087.9150000109803,750.4900000058115,419.064999994589,305.9099999954924,263.81999999284744,205.96500000101514],"keys_pressed":["leftarrow","rightarrow","rightarrow","leftarrow","rightarrow","rightarrow","rightarrow","rightarrow","rightarrow","rightarrow"],"horizon":10,"forced_choices":["leftarrow","rightarrow","rightarrow","leftarrow"],"right_color":"orange","left_color":"lightblue","left_mu":40,"right_mu":60,"left_numbers":[43,28,33,42,39,45,29,48,40,45],"right_numbers":[68,72,64,53,64,62,61,54,53,70],"points_earned":585,"phase":"task","trial_type":"horizons-task","trial_index":69,"time_elapsed":670929,"internal_node_id":"0.0-65.0","task_version":"0.2"},{"response_times":[542.2299999918323,449.3800000054762,436.23500000103377,884.250000002794,672.2450000233948],"keys_pressed":["leftarrow","leftarrow","rightarrow","rightarrow","rightarrow"],"horizon":5,"forced_choices":["leftarrow","leftarrow","rightarrow","rightarrow"],"right_color":"lightblue","left_color":"orange","left_mu":60,"right_mu":80,"left_numbers":[56,68,44,59,71],"right_numbers":[61,76,76,80,75],"points_earned":355,"phase":"task","trial_type":"horizons-task","trial_index":70,"time_elapsed":675416,"internal_node_id":"0.0-66.0","task_version":"0.2"},{"response_times":[579.0449999913108,338.09500001370907,848.3950000081677,540.0000000081491,2363.295000017388,1940.5600000172853,466.01999999256805,609.4699999957811,323.0399999883957,304.8500000149943],"keys_pressed":["rightarrow","leftarrow","leftarrow","rightarrow","leftarrow","rightarrow","leftarrow","leftarrow","leftarrow","leftarrow"],"horizon":10,"forced_choices":["rightarrow","leftarrow","leftarrow","rightarrow"],"right_color":"orange","left_color":"lightblue","left_mu":40,"right_mu":36,"left_numbers":[46,29,43,27,35,30,43,55,40,30],"right_numbers":[17,39,34,47,21,32,36,32,36,31],"points_earned":371,"phase":"task","trial_type":"horizons-task","trial_index":71,"time_elapsed":685251,"internal_node_id":"0.0-67.0","task_version":"0.2"},{"response_times":[452.2700000088662,295.8900000085123,660.1700000173878,478.16500000772066,1353.7350000115111,1204.8199999844655,393.78499999293126,510.47499998821877,690.0999999779742,334.7150000045076],"keys_pressed":["rightarrow","leftarrow","leftarrow","rightarrow","rightarrow","rightarrow","leftarrow","rightarrow","rightarrow","rightarrow"],"horizon":10,"forced_choices":["rightarrow","leftarrow","leftarrow","rightarrow"],"right_color":"orange","left_color":"lightblue","left_mu":40,"right_mu":52,"left_numbers":[43,46,43,50,27,41,45,33,41,48],"right_numbers":[66,61,54,43,50,50,56,65,56,55],"points_earned":519,"phase":"task","trial_type":"horizons-task","trial_index":72,"time_elapsed":693132,"internal_node_id":"0.0-68.0","task_version":"0.2"},{"response_times":[428.7600000097882,415.92500000842847,345.3750000044238,757.0049999922048,973.790000018198],"keys_pressed":["rightarrow","leftarrow","rightarrow","rightarrow","rightarrow"],"horizon":5,"forced_choices":["rightarrow","leftarrow","rightarrow","rightarrow"],"right_color":"orange","left_color":"lightblue","left_mu":60,"right_mu":64,"left_numbers":[58,67,67,51,63],"right_numbers":[76,65,79,57,51],"points_earned":330,"phase":"task","trial_type":"horizons-task","trial_index":73,"time_elapsed":697558,"internal_node_id":"0.0-69.0","task_version":"0.2"},{"response_times":[542.8649999957997,354.51500001363456,444.43000000319444,688.8400000170805,1729.8050000099465,1251.2950000236742,513.1199999887031,410.77499999664724,567.525000020396,253.26500000664964],"keys_pressed":["rightarrow","leftarrow","rightarrow","leftarrow","rightarrow","leftarrow","rightarrow","rightarrow","rightarrow","rightarrow"],"horizon":10,"forced_choices":["rightarrow","leftarrow","rightarrow","leftarrow"],"right_color":"orange","left_color":"lightblue","left_mu":60,"right_mu":68,"left_numbers":[54,64,55,55,51,62,59,48,53,66],"right_numbers":[54,77,66,70,72,77,59,72,58,78],"points_earned":640,"phase":"task","trial_type":"horizons-task","trial_index":74,"time_elapsed":705818,"internal_node_id":"0.0-70.0","task_version":"0.2"},{"response_times":[685.9800000092946,340.16500000143424,326.46999999997206,557.3849999927916,3188.354999991134],"keys_pressed":["leftarrow","rightarrow","leftarrow","rightarrow","rightarrow"],"horizon":5,"forced_choices":["leftarrow","rightarrow","leftarrow","rightarrow"],"right_color":"orange","left_color":"lightblue","left_mu":60,"right_mu":64,"left_numbers":[52,56,72,51,55],"right_numbers":[55,59,64,63,67],"points_earned":313,"phase":"task","trial_type":"horizons-task","trial_index":75,"time_elapsed":712423,"internal_node_id":"0.0-71.0","task_version":"0.2"},{"response_times":[620.085000002291,392.3699999868404,638.4249999828171,672.9549999872688,2292.3549999832176],"keys_pressed":["rightarrow","leftarrow","leftarrow","leftarrow","rightarrow"],"horizon":5,"forced_choices":["rightarrow","leftarrow","leftarrow","leftarrow"],"right_color":"lightblue","left_color":"orange","left_mu":40,"right_mu":70,"left_numbers":[49,40,44,59,28],"right_numbers":[57,74,63,74,70],"points_earned":270,"phase":"task","trial_type":"horizons-task","trial_index":76,"time_elapsed":718545,"internal_node_id":"0.0-72.0","task_version":"0.2"},{"response_times":[529.7049999935552,600.0950000016019,428.50999999791384,498.3900000224821,473.18000000086613,1434.5399999874644,594.7199999936856,570.2499999897555,485.69500001030974,407.26499998709187],"keys_pressed":["leftarrow","leftarrow","leftarrow","rightarrow","leftarrow","rightarrow","leftarrow","leftarrow","leftarrow","leftarrow"],"horizon":10,"forced_choices":["leftarrow","leftarrow","leftarrow","rightarrow"],"right_color":"orange","left_color":"lightblue","left_mu":40,"right_mu":28,"left_numbers":[44,54,44,46,28,36,29,32,39,44],"right_numbers":[29,23,26,21,33,28,24,27,29,33],"points_earned":363,"phase":"task","trial_type":"horizons-task","trial_index":77,"time_elapsed":726071,"internal_node_id":"0.0-73.0","task_version":"0.2"},{"response_times":[616.264999989653,401.8899999791756,448.3499999914784,499.5200000121258,1733.9800000190735,546.8200000177603,779.6049999888055,422.99500000081025,316.30000000586733,306.8550000025425],"keys_pressed":["rightarrow","rightarrow","rightarrow","leftarrow","leftarrow","leftarrow","rightarrow","leftarrow","leftarrow","leftarrow"],"horizon":10,"forced_choices":["rightarrow","rightarrow","rightarrow","leftarrow"],"right_color":"orange","left_color":"lightblue","left_mu":60,"right_mu":52,"left_numbers":[60,53,59,58,69,53,64,65,46,53],"right_numbers":[50,54,39,48,66,49,44,58,41,48],"points_earned":531,"phase":"task","trial_type":"horizons-task","trial_index":78,"time_elapsed":733650,"internal_node_id":"0.0-74.0","task_version":"0.2"},{"response_times":[463.8050000066869,388.33500002510846,276.40999999130145,538.5949999908917,1385.149999987334,867.4449999816716,371.740000002319,533.2500000076834,416.2250000226777,263.55999999213964],"keys_pressed":["leftarrow","rightarrow","leftarrow","leftarrow","leftarrow","rightarrow","leftarrow","leftarrow","leftarrow","leftarrow"],"horizon":10,"forced_choices":["leftarrow","rightarrow","leftarrow","leftarrow"],"right_color":"lightblue","left_color":"orange","left_mu":40,"right_mu":32,"left_numbers":[36,38,50,29,48,41,49,42,27,36],"right_numbers":[35,30,37,30,35,39,38,27,28,28],"points_earned":386,"phase":"task","trial_type":"horizons-task","trial_index":79,"time_elapsed":740658,"internal_node_id":"0.0-75.0","task_version":"0.2"},{"response_times":[427.80500001390465,417.8300000203308,566.7599999869708,553.0399999988731,887.0300000126008,715.5150000180583,672.6400000043213,559.914999990724,393.290000007255,711.3950000202749],"keys_pressed":["rightarrow","leftarrow","leftarrow","leftarrow","leftarrow","rightarrow","rightarrow","rightarrow","rightarrow","rightarrow"],"horizon":10,"forced_choices":["rightarrow","leftarrow","leftarrow","leftarrow"],"right_color":"orange","left_color":"lightblue","left_mu":60,"right_mu":68,"left_numbers":[60,61,57,62,60,60,65,51,54,64],"right_numbers":[65,62,60,54,89,69,68,54,66,74],"points_earned":636,"phase":"task","trial_type":"horizons-task","trial_index":80,"time_elapsed":748070,"internal_node_id":"0.0-76.0","task_version":"0.2"},{"response_times":[600.5549999827053,350.76000000117347,1129.610000003595,450.5100000242237,977.3500000010245,577.900000003865,572.2649999952409,342.72499999497086,198.15000001108274,192.98500000149943],"keys_pressed":["leftarrow","rightarrow","rightarrow","leftarrow","leftarrow","leftarrow","leftarrow","leftarrow","leftarrow","leftarrow"],"horizon":10,"forced_choices":["leftarrow","rightarrow","rightarrow","leftarrow"],"right_color":"orange","left_color":"lightblue","left_mu":60,"right_mu":40,"left_numbers":[69,63,64,42,66,54,55,60,65,52],"right_numbers":[41,24,33,38,35,36,47,58,42,45],"points_earned":520,"phase":"task","trial_type":"horizons-task","trial_index":81,"time_elapsed":754970,"internal_node_id":"0.0-77.0","task_version":"0.2"},{"response_times":[428.99000001489185,410.39000000455417,317.47000000905246,1370.0699999753851,1565.3350000211503,540.4100000159815,517.7200000034645,574.0550000045914,245.8700000133831,236.00000000442378],"keys_pressed":["leftarrow","rightarrow","leftarrow","leftarrow","rightarrow","leftarrow","leftarrow","rightarrow","leftarrow","leftarrow"],"horizon":10,"forced_choices":["leftarrow","rightarrow","leftarrow","leftarrow"],"right_color":"lightblue","left_color":"orange","left_mu":60,"right_mu":48,"left_numbers":[65,36,48,65,62,64,53,53,56,68],"right_numbers":[40,50,32,44,33,50,34,50,52,45],"points_earned":552,"phase":"task","trial_type":"horizons-task","trial_index":82,"time_elapsed":762683,"internal_node_id":"0.0-78.0","task_version":"0.2"},{"response_times":[598.7800000002608,328.09500000439584,551.9250000070315,969.6850000182167,2110.6350000191014],"keys_pressed":["leftarrow","rightarrow","rightarrow","rightarrow","rightarrow"],"horizon":5,"forced_choices":["leftarrow","rightarrow","rightarrow","rightarrow"],"right_color":"orange","left_color":"lightblue","left_mu":60,"right_mu":40,"left_numbers":[47,51,57,59,39],"right_numbers":[25,35,48,53,37],"points_earned":220,"phase":"task","trial_type":"horizons-task","trial_index":83,"time_elapsed":768748,"internal_node_id":"0.0-79.0","task_version":"0.2"},{"response_times":[509.3150000029709,403.83500000461936,384.07500000903383,297.88999998709187,317.0049999898765,1279.5449999975972,469.9499999987893,446.12000000779517,451.2349999858998,582.9149999772198],"keys_pressed":["leftarrow","rightarrow","leftarrow","rightarrow","leftarrow","rightarrow","rightarrow","rightarrow","rightarrow","rightarrow"],"horizon":10,"forced_choices":["leftarrow","rightarrow","leftarrow","rightarrow"],"right_color":"lightblue","left_color":"orange","left_mu":40,"right_mu":44,"left_numbers":[42,28,21,38,32,38,35,18,30,50],"right_numbers":[37,50,48,53,39,48,47,29,38,43],"points_earned":403,"phase":"task","trial_type":"horizons-task","trial_index":84,"time_elapsed":775393,"internal_node_id":"0.0-80.0","task_version":"0.2"},{"response_times":[547.6400000043213,372.19500000355765,325.9399999806192,1003.2849999843165,953.3750000118744],"keys_pressed":["rightarrow","leftarrow","rightarrow","rightarrow","rightarrow"],"horizon":5,"forced_choices":["rightarrow","leftarrow","rightarrow","rightarrow"],"right_color":"lightblue","left_color":"orange","left_mu":60,"right_mu":72,"left_numbers":[67,70,58,55,74],"right_numbers":[74,79,69,94,78],"points_earned":385,"phase":"task","trial_type":"horizons-task","trial_index":85,"time_elapsed":780100,"internal_node_id":"0.0-81.0","task_version":"0.2"},{"response_times":[434.75499999476597,301.9250000070315,502.7600000030361,435.05000000004657,1075.3050000057556],"keys_pressed":["rightarrow","leftarrow","leftarrow","leftarrow","rightarrow"],"horizon":5,"forced_choices":["rightarrow","leftarrow","leftarrow","leftarrow"],"right_color":"orange","left_color":"lightblue","left_mu":40,"right_mu":52,"left_numbers":[42,45,41,43,27],"right_numbers":[43,45,43,42,58],"points_earned":230,"phase":"task","trial_type":"horizons-task","trial_index":86,"time_elapsed":784354,"internal_node_id":"0.0-82.0","task_version":"0.2"},{"response_times":[437.84500000765547,441.4049999904819,574.640000006184,441.4600000018254,806.7299999820534,476.9149999774527,520.1999999990221,345.965000014985,178.0950000102166,265.59500000439584],"keys_pressed":["rightarrow","rightarrow","leftarrow","leftarrow","rightarrow","rightarrow","rightarrow","rightarrow","rightarrow","rightarrow"],"horizon":10,"forced_choices":["rightarrow","rightarrow","leftarrow","leftarrow"],"right_color":"lightblue","left_color":"orange","left_mu":60,"right_mu":72,"left_numbers":[59,52,50,61,43,61,72,57,52,63],"right_numbers":[66,88,72,62,76,69,65,70,45,70],"points_earned":660,"phase":"task","trial_type":"horizons-task","trial_index":87,"time_elapsed":790347,"internal_node_id":"0.0-83.0","task_version":"0.2"},{"response_times":[1675.4000000073574,355.7699999946635,389.3450000032317,475.4399999801535,812.2349999903236],"keys_pressed":["rightarrow","leftarrow","leftarrow","rightarrow","rightarrow"],"horizon":5,"forced_choices":["rightarrow","leftarrow","leftarrow","rightarrow"],"right_color":"orange","left_color":"lightblue","left_mu":40,"right_mu":36,"left_numbers":[36,31,36,41,46],"right_numbers":[28,35,31,39,28],"points_earned":162,"phase":"task","trial_type":"horizons-task","trial_index":88,"time_elapsed":795558,"internal_node_id":"0.0-84.0","task_version":"0.2"},{"response_times":[419.610000011744,323.21000000229105,621.9299999938812,465.0199999741744,475.7300000055693],"keys_pressed":["rightarrow","leftarrow","leftarrow","rightarrow","rightarrow"],"horizon":5,"forced_choices":["rightarrow","leftarrow","leftarrow","rightarrow"],"right_color":"orange","left_color":"lightblue","left_mu":40,"right_mu":52,"left_numbers":[37,25,48,25,40],"right_numbers":[71,47,56,58,66],"points_earned":268,"phase":"task","trial_type":"horizons-task","trial_index":89,"time_elapsed":799366,"internal_node_id":"0.0-85.0","task_version":"0.2"},{"response_times":[486.34999999194406,416.29500000271946,858.9449999853969,1003.1350000062957,431.5150000038557],"keys_pressed":["rightarrow","rightarrow","leftarrow","rightarrow","leftarrow"],"horizon":5,"forced_choices":["rightarrow","rightarrow","leftarrow","rightarrow"],"right_color":"lightblue","left_color":"orange","left_mu":40,"right_mu":20,"left_numbers":[43,47,55,52,32],"right_numbers":[13,23,30,9,0],"points_earned":132,"phase":"task","trial_type":"horizons-task","trial_index":90,"time_elapsed":804065,"internal_node_id":"0.0-86.0","task_version":"0.2"},{"response_times":[548.2849999971222,409.22000000136904,460.384999983944,487.86999998264946,1163.1400000187568,710.1949999923818,608.5949999978766,612.2949999989942,476.98000000673346,342.94500001124106],"keys_pressed":["rightarrow","leftarrow","rightarrow","leftarrow","leftarrow","rightarrow","rightarrow","leftarrow","leftarrow","leftarrow"],"horizon":10,"forced_choices":["rightarrow","leftarrow","rightarrow","leftarrow"],"right_color":"lightblue","left_color":"orange","left_mu":60,"right_mu":48,"left_numbers":[65,51,58,66,56,61,70,54,70,62],"right_numbers":[50,47,58,52,45,56,37,54,57,57],"points_earned":560,"phase":"task","trial_type":"horizons-task","trial_index":91,"time_elapsed":811393,"internal_node_id":"0.0-87.0","task_version":"0.2"},{"rt":9054.719999985537,"responses":{"age":"27","gender-categorical":"Female","gender-free-response":"","ethnicity":"Not Hispanic or Latino","race":["White"],"language":"Yes","fluency":"Very well"},"survey":"demographics","trial_type":"survey-demo","trial_index":92,"time_elapsed":820452,"internal_node_id":"0.0-88.0","task_version":"0.2"},{"rt":18002.295000012964,"responses":{"difficulty":"3","fun":"2","clarity":"4","strategy":"average in my head","feedback":""},"survey":"debrief","trial_type":"survey-debrief","trial_index":93,"time_elapsed":838457,"internal_node_id":"0.0-89.0","task_version":"0.2","interactions":"[{\"event\":\"blur\",\"trial\":3,\"time\":109155},{\"event\":\"focus\",\"trial\":3,\"time\":121383},{\"event\":\"blur\",\"trial\":51,\"time\":524429},{\"event\":\"focus\",\"trial\":51,\"time\":539722}]"}]