[{"view_history":"[{\"page_index\":0,\"viewing_time\":4617.005000007339}]","rt":4617.819999984931,"trial_type":"instructions","trial_index":0,"time_elapsed":4629,"internal_node_id":"0.0-0.0","task_version":"0.2"},{"item_order":[2,5,14,10,1,11,0,8,12,6,7,4,3,9,15,13],"responses":{"Q03":"4","Q06":"4","Q15":"4","Q11":"5","Q02":"2","Q12":"3","Q01":"3","Q09":"3","Q13":"3","Q07":"4","Q08":"4","Q05":"2","Q04":"5","Q10":"4","Q16":"5","Q14":"2"},"radio_events":[9737.794999964535,13698.154999990948,16852.439999987837,17849.8799999943,21547.529999981634,23805.79499999294,25114.449999993667,31611.894999979995,35822.474999993574,39055.90499995742,43123.89499996789,45305.91499997536,48589.04499997152,52591.929999995045,61171.58499994548,64658.28999999212,66581.9199999678,75617.89499997394,80950.45499998378,85185.96999999136,86502.35999998404,88316.42999994801],"key_events":[],"mouse_events":[0.0849999487400055,9737.794999964535,12901.364999997895,13698.154999990948,16252.429999993183,16852.439999987837,17849.8799999943,21547.529999981634,23805.79499999294,25114.449999993667,30635.624999995343,31611.894999979995,35822.474999993574,39055.90499995742,43123.89499996789,45305.91499997536,48589.04499997152,51717.929999984335,52591.929999995045,61171.58499994548,64658.28999999212,65942.72999995155,66581.9199999678,75063.80999996327,75617.89499997394,80950.45499998378,85185.96999999136,86502.35999998404,88316.42999994801,89822.28999998188],"rt":89826.14499999909,"survey":"nfc","trial_type":"survey-template","trial_index":1,"time_elapsed":94465,"internal_node_id":"0.0-1.0","task_version":"0.2"},{"item_order":[0,6,4,10,3,1,2,5,11,7,8,12,9],"responses":{"Q01":"2","Q07":"2","Q05":"2","Q11":"3","Q04":"4","Q02":"3","Q03":"2","Q06":"1","Q12":"2","Q08":"3","Q09":"1","Q13":"4","Q10":"2"},"radio_events":[6055.404999991879,9886.055000009947,15619.58500003675,16714.130000036675,18941.86500000069,20312.230000039563,23568.16500000423,24624.015000008512,28109.44999998901,30299.780000001192,33512.2449999908,36461.81000000797,37429.73500001244,39687.98500002595,42640.130000014324],"key_events":[],"mouse_events":[4650.920000043698,6055.404999991879,9886.055000009947,15619.58500003675,16714.130000036675,18941.86500000069,20312.230000039563,22643.83000001544,23568.16500000423,24624.015000008512,28109.44999998901,30299.780000001192,33512.2449999908,36461.81000000797,37429.73500001244,39687.98500002595,42640.130000014324,46281.29000001354],"rt":46286.575000034645,"survey":"ius12","trial_type":"survey-template","trial_index":2,"time_elapsed":140757,"internal_node_id":"0.0-2.0","task_version":"0.2"},{"item_order":[11,6,1,3,12,0,4,13,15,10,8,14,16,2,9,5,7],"responses":{"Q12":"3","Q07":"3","Q02":"3","Q04":"3","Q13":"3","Q01":"3","Q05":"3","Q14":"3","Q16":"3","Q11":"1","Q09":"2","Q15":"3","Q17":"0","Q03":"3","Q10":"3","Q06":"3","Q08":"3"},"radio_events":[5461.049999983516,7221.169999975245,8472.594999999274,9878.704999980982,12306.69499997748,17520.810000016354,21481.58500000136,24178.544999973383,27935.004999977536,36501.195000018924,40868.30999999074,43182.239999994636,47573.090000019874,54424.56499999389,56442.86499998998,58698.61000002129,61347.20499999821],"key_events":[],"mouse_events":[5461.049999983516,7221.169999975245,8472.594999999274,9878.704999980982,12306.69499997748,17520.810000016354,21481.58500000136,24178.544999973383,27935.004999977536,36501.195000018924,40868.30999999074,42652.74500002852,43182.239999994636,47573.090000019874,54424.56499999389,56442.86499998998,58698.61000002129,61347.20499999821,62634.90499998443],"rt":62637.51500000944,"survey":"pswq","trial_type":"survey-template","trial_index":3,"time_elapsed":203400,"internal_node_id":"0.0-3.0","task_version":"0.2"},{"view_history":"[{\"page_index\":0,\"viewing_time\":3240.3100000228733},{\"page_index\":1,\"viewing_time\":6660.960000008345},{\"page_index\":2,\"viewing_time\":10217.20999997342},{\"page_index\":3,\"viewing_time\":4436.479999974836},{\"page_index\":4,\"viewing_time\":3740.135000029113},{\"page_index\":5,\"viewing_time\":1876.2700000079349},{\"page_index\":6,\"viewing_time\":4525.695000018459},{\"page_index\":7,\"viewing_time\":5593.865000002552},{\"page_index\":8,\"viewing_time\":4717.9550000000745},{\"page_index\":9,\"viewing_time\":8251.52499997057}]","rt":53261.42500003334,"trial_type":"instructions","trial_index":4,"time_elapsed":256664,"internal_node_id":"0.0-4.0-0.0","task_version":"0.2"},{"response_times":[2602.0649999845773,928.2750000129454,5223.934999958146,1961.5200000116602,606.5149999922141],"keys_pressed":["rightarrow","leftarrow","rightarrow","rightarrow","leftarrow"],"horizon":5,"forced_choices":["rightarrow","leftarrow","rightarrow","rightarrow"],"right_color":"lightblue","left_color":"orange","left_mu":40,"right_mu":20,"left_numbers":[45,43,41,41,45],"right_numbers":[33,9,15,22,26],"points_earned":158,"phase":"practice","trial_type":"horizons-task","trial_index":5,"time_elapsed":269505,"internal_node_id":"0.0-4.0-1.0","task_version":"0.2"},{"response_times":[4686.1449999851175,2104.0999999968335,2887.680000043474,544.129999994766,3344.0900000277907,5669.009999954142,1477.8499999665655,800.0400000018999,993.3900000178255,894.5749999838881],"keys_pressed":["leftarrow","leftarrow","rightarrow","rightarrow","rightarrow","rightarrow","rightarrow","leftarrow","rightarrow","rightarrow"],"horizon":10,"forced_choices":["leftarrow","leftarrow","rightarrow","rightarrow"],"right_color":"orange","left_color":"lightblue","left_mu":60,"right_mu":70,"left_numbers":[44,37,57,61,60,55,58,60,40,53],"right_numbers":[76,79,61,69,66,66,68,78,70,63],"points_earned":604,"phase":"practice","trial_type":"horizons-task","trial_index":6,"time_elapsed":294413,"internal_node_id":"0.0-4.0-2.0","task_version":"0.2"},{"view_history":"[{\"page_index\":0,\"viewing_time\":2024.2250000010245},{\"page_index\":1,\"viewing_time\":3210.465000011027},{\"page_index\":2,\"viewing_time\":2175.5300000077114},{\"page_index\":3,\"viewing_time\":2339.3100000103004}]","rt":9750.47500000801,"trial_type":"instructions","trial_index":7,"time_elapsed":304164,"internal_node_id":"0.0-4.0-3.0","task_version":"0.2"},{"responses":["true","false","true"],"num_errors":0,"rt":9953.22500000475,"trial_type":"horizons-comprehension","trial_index":8,"time_elapsed":314121,"internal_node_id":"0.0-4.0-4.0","task_version":"0.2"},{"trial_type":"call-function","trial_index":9,"time_elapsed":314124,"internal_node_id":"0.0-5.0","task_version":"0.2"},{"view_history":"[{\"page_index\":0,\"viewing_time\":1609.5700000296347},{\"page_index\":1,\"viewing_time\":4231.154999986757}]","rt":5841.019999992568,"trial_type":"instructions","trial_index":10,"time_elapsed":319966,"internal_node_id":"0.0-6.0","task_version":"0.2"},{"response_times":[1861.3000000477768,1789.5900000003166,1892.664999992121,2547.354999987874,3312.095000001136],"keys_pressed":["leftarrow","leftarrow","rightarrow","leftarrow","rightarrow"],"horizon":5,"forced_choices":["leftarrow","leftarrow","rightarrow","leftarrow"],"right_color":"lightblue","left_color":"orange","left_mu":60,"right_mu":52,"left_numbers":[58,53,65,51,70],"right_numbers":[64,47,58,52,56],"points_earned":276,"phase":"task","trial_type":"horizons-task","trial_index":11,"time_elapsed":332879,"internal_node_id":"0.0-7.0","task_version":"0.2"},{"response_times":[679.5299999648705,525.629999989178,551.9649999914691,2184.094999975059,1750.339999969583,2561.7199999978766,1705.2200000034645,1937.1399999945424,1349.4449999998324,1279.9949999898672],"keys_pressed":["rightarrow","rightarrow","rightarrow","leftarrow","leftarrow","leftarrow","leftarrow","rightarrow","leftarrow","leftarrow"],"horizon":10,"forced_choices":["rightarrow","rightarrow","rightarrow","leftarrow"],"right_color":"orange","left_color":"lightblue","left_mu":40,"right_mu":28,"left_numbers":[33,19,33,44,43,44,29,29,48,30],"right_numbers":[14,29,34,24,41,26,25,41,25,26],"points_earned":356,"phase":"task","trial_type":"horizons-task","trial_index":12,"time_elapsed":348907,"internal_node_id":"0.0-8.0","task_version":"0.2"},{"response_times":[729.2750000488013,663.8900000252761,679.8699999926612,632.1299999835901,744.0049999859184],"keys_pressed":["rightarrow","leftarrow","leftarrow","rightarrow","rightarrow"],"horizon":5,"forced_choices":["rightarrow","leftarrow","leftarrow","rightarrow"],"right_color":"lightblue","left_color":"orange","left_mu":60,"right_mu":90,"left_numbers":[75,49,56,58,52],"right_numbers":[90,81,87,90,93],"points_earned":378,"phase":"task","trial_type":"horizons-task","trial_index":13,"time_elapsed":353863,"internal_node_id":"0.0-9.0","task_version":"0.2"},{"response_times":[621.0899999714456,1153.4499999834225,542.7100000088103,1023.6150000127964,935.9300000360236,560.4150000144728,479.6249999781139,1080.0499999895692,567.8949999855831,2336.0199999879114],"keys_pressed":["rightarrow","leftarrow","leftarrow","rightarrow","rightarrow","rightarrow","rightarrow","rightarrow","rightarrow","rightarrow"],"horizon":10,"forced_choices":["rightarrow","leftarrow","leftarrow","rightarrow"],"right_color":"lightblue","left_color":"orange","left_mu":60,"right_mu":90,"left_numbers":[65,63,55,56,49,57,47,69,54,55],"right_numbers":[90,93,91,72,92,104,89,96,101,92],"points_earned":854,"phase":"task","trial_type":"horizons-task","trial_index":14,"time_elapsed":364671,"internal_node_id":"0.0-10.0","task_version":"0.2"},{"response_times":[645.5000000423752,609.409999975469,774.1899999673478,1144.1500000073574,2073.0249999905936],"keys_pressed":["leftarrow","leftarrow","rightarrow","leftarrow","leftarrow"],"horizon":5,"forced_choices":["leftarrow","leftarrow","rightarrow","leftarrow"],"right_color":"lightblue","left_color":"orange","left_mu":40,"right_mu":36,"left_numbers":[46,47,35,25,33],"right_numbers":[33,44,32,39,28],"points_earned":183,"phase":"task","trial_type":"horizons-task","trial_index":15,"time_elapsed":371426,"internal_node_id":"0.0-11.0","task_version":"0.2"},{"response_times":[491.5400000172667,327.640000032261,495.9999999846332,415.8000000170432,3257.6850000186823,454.4150000438094,503.8300000014715,872.1999999834225,3183.8649999699555,1864.2000000108965],"keys_pressed":["leftarrow","rightarrow","rightarrow","leftarrow","rightarrow","rightarrow","rightarrow","leftarrow","rightarrow","leftarrow"],"horizon":10,"forced_choices":["leftarrow","rightarrow","rightarrow","leftarrow"],"right_color":"orange","left_color":"lightblue","left_mu":60,"right_mu":68,"left_numbers":[57,74,71,68,44,62,53,69,54,54],"right_numbers":[67,66,71,68,79,74,69,65,62,76],"points_earned":669,"phase":"task","trial_type":"horizons-task","trial_index":16,"time_elapsed":384799,"internal_node_id":"0.0-12.0","task_version":"0.2"},{"response_times":[951.0449999943376,712.4750000075437,550.6399999721907,415.8000000170432,1432.1399999898858],"keys_pressed":["leftarrow","rightarrow","leftarrow","rightarrow","rightarrow"],"horizon":5,"forced_choices":["leftarrow","rightarrow","leftarrow","rightarrow"],"right_color":"orange","left_color":"lightblue","left_mu":60,"right_mu":72,"left_numbers":[52,51,44,74,52],"right_numbers":[79,73,70,72,71],"points_earned":312,"phase":"task","trial_type":"horizons-task","trial_index":17,"time_elapsed":390368,"internal_node_id":"0.0-13.0","task_version":"0.2"},{"response_times":[517.9849999840371,383.95999994827434,288.06500002974644,415.84999999031425,336.0549999633804,1616.0349999554455,1047.7299999911338,1064.104999997653,1161.469999991823,1214.0699999872595],"keys_pressed":["rightarrow","leftarrow","rightarrow","leftarrow","rightarrow","leftarrow","rightarrow","leftarrow","rightarrow","rightarrow"],"horizon":10,"forced_choices":["rightarrow","leftarrow","rightarrow","leftarrow"],"right_color":"lightblue","left_color":"orange","left_mu":40,"right_mu":52,"left_numbers":[45,27,28,60,35,35,43,36,35,32],"right_numbers":[50,51,45,48,43,54,52,47,47,45],"points_earned":440,"phase":"task","trial_type":"horizons-task","trial_index":18,"time_elapsed":399919,"internal_node_id":"0.0-14.0","task_version":"0.2"},{"response_times":[551.4700000057928,263.74500000383705,648.0549999978393,408.18500000750646,271.7450000345707,1792.264999996405,671.6250000172295,920.2700000023469,527.7900000219233,921.1950000026263],"keys_pressed":["leftarrow","rightarrow","rightarrow","leftarrow","leftarrow","rightarrow","leftarrow","leftarrow","leftarrow","rightarrow"],"horizon":10,"forced_choices":["leftarrow","rightarrow","rightarrow","leftarrow"],"right_color":"lightblue","left_color":"orange","left_mu":40,"right_mu":36,"left_numbers":[26,44,40,46,50,54,43,50,36,40],"right_numbers":[34,37,25,42,45,33,39,35,38,34],"points_earned":380,"phase":"task","trial_type":"horizons-task","trial_index":19,"time_elapsed":408401,"internal_node_id":"0.0-15.0","task_version":"0.2"},{"response_times":[725.2600000356324,464.1999999876134,560.0499999709427,471.6550000011921,1584.1149999760091,311.81499996455386,416.1300000268966,391.9400000013411,488.0249999696389,407.81000000424683],"keys_pressed":["rightarrow","leftarrow","leftarrow","leftarrow","rightarrow","rightarrow","rightarrow","rightarrow","rightarrow","rightarrow"],"horizon":10,"forced_choices":["rightarrow","leftarrow","leftarrow","leftarrow"],"right_color":"orange","left_color":"lightblue","left_mu":60,"right_mu":68,"left_numbers":[57,57,60,49,51,52,59,51,79,66],"right_numbers":[66,67,69,63,64,61,78,57,60,63],"points_earned":615,"phase":"task","trial_type":"horizons-task","trial_index":20,"time_elapsed":415729,"internal_node_id":"0.0-16.0","task_version":"0.2"},{"response_times":[381.7249999847263,823.789999994915,641.4900000090711,760.1049999939278,1367.8649999783374],"keys_pressed":["leftarrow","rightarrow","leftarrow","rightarrow","rightarrow"],"horizon":5,"forced_choices":["leftarrow","rightarrow","leftarrow","rightarrow"],"right_color":"orange","left_color":"lightblue","left_mu":40,"right_mu":60,"left_numbers":[26,39,51,42,56],"right_numbers":[63,60,60,51,59],"points_earned":247,"phase":"task","trial_type":"horizons-task","trial_index":21,"time_elapsed":421210,"internal_node_id":"0.0-17.0","task_version":"0.2"},{"response_times":[477.5700000463985,613.9599999878556,424.16999995475635,543.8950000097975,4985.4749999940395,2017.2949999687262,438.544999982696,991.9550000340678,780.739999958314,507.14500003959984],"keys_pressed":["leftarrow","leftarrow","rightarrow","rightarrow","rightarrow","rightarrow","rightarrow","rightarrow","rightarrow","rightarrow"],"horizon":10,"forced_choices":["leftarrow","leftarrow","rightarrow","rightarrow"],"right_color":"lightblue","left_color":"orange","left_mu":40,"right_mu":44,"left_numbers":[39,38,41,31,43,27,44,14,45,36],"right_numbers":[33,55,49,41,42,45,27,49,27,37],"points_earned":394,"phase":"task","trial_type":"horizons-task","trial_index":22,"time_elapsed":434498,"internal_node_id":"0.0-18.0","task_version":"0.2"},{"response_times":[421.8999999575317,391.85499999439344,423.27500000828877,832.6850000303239,4324.459999974351],"keys_pressed":["rightarrow","leftarrow","rightarrow","leftarrow","rightarrow"],"horizon":5,"forced_choices":["rightarrow","leftarrow","rightarrow","leftarrow"],"right_color":"lightblue","left_color":"orange","left_mu":40,"right_mu":48,"left_numbers":[36,47,63,48,26],"right_numbers":[46,53,55,45,48],"points_earned":244,"phase":"task","trial_type":"horizons-task","trial_index":23,"time_elapsed":442399,"internal_node_id":"0.0-19.0","task_version":"0.2"},{"response_times":[428.75500000081956,790.755000023637,568.2000000379048,751.8200000049546,1088.164999964647],"keys_pressed":["rightarrow","leftarrow","leftarrow","leftarrow","rightarrow"],"horizon":5,"forced_choices":["rightarrow","leftarrow","leftarrow","leftarrow"],"right_color":"orange","left_color":"lightblue","left_mu":60,"right_mu":68,"left_numbers":[47,67,62,42,37],"right_numbers":[71,67,66,62,68],"points_earned":310,"phase":"task","trial_type":"horizons-task","trial_index":24,"time_elapsed":447531,"internal_node_id":"0.0-20.0","task_version":"0.2"},{"response_times":[503.9000000106171,465.3099999995902,422.63500002445653,495.775000017602,2929.7200000146404],"keys_pressed":["rightarrow","rightarrow","leftarrow","leftarrow","rightarrow"],"horizon":5,"forced_choices":["rightarrow","rightarrow","leftarrow","leftarrow"],"right_color":"lightblue","left_color":"orange","left_mu":40,"right_mu":70,"left_numbers":[40,30,38,63,46],"right_numbers":[68,54,67,56,71],"points_earned":294,"phase":"task","trial_type":"horizons-task","trial_index":25,"time_elapsed":453853,"internal_node_id":"0.0-21.0","task_version":"0.2"},{"response_times":[494.0999999525957,296.05499998433515,447.7049999986775,415.90500000165775,2185.9500000136904],"keys_pressed":["leftarrow","rightarrow","leftarrow","rightarrow","leftarrow"],"horizon":5,"forced_choices":["leftarrow","rightarrow","leftarrow","rightarrow"],"right_color":"orange","left_color":"lightblue","left_mu":40,"right_mu":28,"left_numbers":[41,36,46,52,28],"right_numbers":[28,22,26,40,35],"points_earned":177,"phase":"task","trial_type":"horizons-task","trial_index":26,"time_elapsed":459196,"internal_node_id":"0.0-22.0","task_version":"0.2"},{"response_times":[775.6999999983236,327.8400000417605,448.01500003086403,455.9400000143796,1849.7900000074878,918.0749999941327,376.1199999717064,359.94499997468665,431.7799999844283,960.2549999835901],"keys_pressed":["leftarrow","rightarrow","leftarrow","leftarrow","leftarrow","leftarrow","leftarrow","leftarrow","leftarrow","leftarrow"],"horizon":10,"forced_choices":["leftarrow","rightarrow","leftarrow","leftarrow"],"right_color":"orange","left_color":"lightblue","left_mu":40,"right_mu":20,"left_numbers":[42,39,36,35,45,41,32,43,27,48],"right_numbers":[26,33,26,36,9,11,16,13,18,37],"points_earned":382,"phase":"task","trial_type":"horizons-task","trial_index":27,"time_elapsed":467605,"internal_node_id":"0.0-23.0","task_version":"0.2"},{"response_times":[510.32000000122935,703.7949999794364,399.89499998046085,1016.0400000168011,960.0649999920279],"keys_pressed":["leftarrow","leftarrow","leftarrow","rightarrow","rightarrow"],"horizon":5,"forced_choices":["leftarrow","leftarrow","leftarrow","rightarrow"],"right_color":"lightblue","left_color":"orange","left_mu":60,"right_mu":90,"left_numbers":[62,58,68,56,48],"right_numbers":[91,82,80,92,81],"points_earned":361,"phase":"task","trial_type":"horizons-task","trial_index":28,"time_elapsed":472702,"internal_node_id":"0.0-24.0","task_version":"0.2"},{"response_times":[585.2799999993294,454.55999998375773,519.7100000223145,784.1299999854527,2584.9099999759346,654.8600000096485,600.1800000085495,1055.8650000020862,927.9700000188313,511.9800000102259],"keys_pressed":["rightarrow","leftarrow","leftarrow","rightarrow","leftarrow","leftarrow","leftarrow","leftarrow","leftarrow","leftarrow"],"horizon":10,"forced_choices":["rightarrow","leftarrow","leftarrow","rightarrow"],"right_color":"orange","left_color":"lightblue","left_mu":40,"right_mu":32,"left_numbers":[45,45,39,41,38,36,45,36,36,40],"right_numbers":[28,30,41,28,38,20,23,26,45,29],"points_earned":371,"phase":"task","trial_type":"horizons-task","trial_index":29,"time_elapsed":482892,"internal_node_id":"0.0-25.0","task_version":"0.2"},{"response_times":[448.789999994915,478.59000001335517,423.7800000119023,2048.064999980852,2127.9949999880046],"keys_pressed":["rightarrow","rightarrow","leftarrow","rightarrow","leftarrow"],"horizon":5,"forced_choices":["rightarrow","rightarrow","leftarrow","rightarrow"],"right_color":"orange","left_color":"lightblue","left_mu":60,"right_mu":56,"left_numbers":[79,66,64,65,46],"right_numbers":[63,65,54,64,56],"points_earned":302,"phase":"task","trial_type":"horizons-task","trial_index":30,"time_elapsed":489927,"internal_node_id":"0.0-26.0","task_version":"0.2"},{"response_times":[1045.415000000503,424.059999990277,391.8550000526011,408.034999971278,2089.5100000198,430.3899999940768,295.9350000019185,352.09999996004626,975.8299999521114,656.1199999996461],"keys_pressed":["rightarrow","leftarrow","rightarrow","rightarrow","rightarrow","rightarrow","rightarrow","rightarrow","rightarrow","rightarrow"],"horizon":10,"forced_choices":["rightarrow","leftarrow","rightarrow","rightarrow"],"right_color":"lightblue","left_color":"orange","left_mu":60,"right_mu":80,"left_numbers":[53,48,63,51,52,59,70,66,55,68],"right_numbers":[99,81,84,66,78,86,87,67,82,83],"points_earned":780,"phase":"task","trial_type":"horizons-task","trial_index":31,"time_elapsed":498505,"internal_node_id":"0.0-27.0","task_version":"0.2"},{"response_times":[429.9449999816716,431.80999998003244,456.1200000462122,367.78999998932704,2341.389999957755],"keys_pressed":["rightarrow","leftarrow","leftarrow","rightarrow","leftarrow"],"horizon":5,"forced_choices":["rightarrow","leftarrow","leftarrow","rightarrow"],"right_color":"orange","left_color":"lightblue","left_mu":40,"right_mu":32,"left_numbers":[31,47,38,43,37],"right_numbers":[36,33,45,21,39],"points_earned":179,"phase":"task","trial_type":"horizons-task","trial_index":32,"time_elapsed":504037,"internal_node_id":"0.0-28.0","task_version":"0.2"},{"response_times":[570.975000038743,310.50499994307756,424.0499999723397,423.9200000301935,2248.2550000422634,591.9649999705143,359.67500001424924,183.77000000327826,168.10499998973683,816.0350000252947],"keys_pressed":["rightarrow","leftarrow","leftarrow","leftarrow","rightarrow","rightarrow","rightarrow","rightarrow","rightarrow","rightarrow"],"horizon":10,"forced_choices":["rightarrow","leftarrow","leftarrow","leftarrow"],"right_color":"orange","left_color":"lightblue","left_mu":40,"right_mu":32,"left_numbers":[30,37,47,24,55,40,34,44,46,26],"right_numbers":[39,32,32,37,41,37,14,27,35,34],"points_earned":335,"phase":"task","trial_type":"horizons-task","trial_index":33,"time_elapsed":511641,"internal_node_id":"0.0-29.0","task_version":"0.2"},{"response_times":[558.614999987185,455.94999997410923,383.80000001052395,577.7949999901466,2073.210000002291],"keys_pressed":["leftarrow","rightarrow","leftarrow","leftarrow","leftarrow"],"horizon":5,"forced_choices":["leftarrow","rightarrow","leftarrow","leftarrow"],"right_color":"lightblue","left_color":"orange","left_mu":40,"right_mu":10,"left_numbers":[38,51,46,27,31],"right_numbers":[8,23,13,12,7],"points_earned":165,"phase":"task","trial_type":"horizons-task","trial_index":34,"time_elapsed":517197,"internal_node_id":"0.0-30.0","task_version":"0.2"},{"response_times":[444.56000003265217,438.6149999918416,423.7149999826215,424.23499998403713,2608.1150000100024,559.8449999815784,215.81000002333894,184.47499995818362,503.66999994730577,319.91500000003725],"keys_pressed":["leftarrow","leftarrow","rightarrow","leftarrow","leftarrow","leftarrow","leftarrow","leftarrow","leftarrow","leftarrow"],"horizon":10,"forced_choices":["leftarrow","leftarrow","rightarrow","leftarrow"],"right_color":"lightblue","left_color":"orange","left_mu":40,"right_mu":36,"left_numbers":[47,34,43,39,50,40,48,37,40,53],"right_numbers":[36,41,25,20,29,38,37,50,30,42],"points_earned":413,"phase":"task","trial_type":"horizons-task","trial_index":35,"time_elapsed":524827,"internal_node_id":"0.0-31.0","task_version":"0.2"},{"response_times":[445.76500001130626,601.3349999557249,672.5949999527074,1501.8549999804236,1665.1549999951385],"keys_pressed":["leftarrow","leftarrow","rightarrow","rightarrow","leftarrow"],"horizon":5,"forced_choices":["leftarrow","leftarrow","rightarrow","rightarrow"],"right_color":"lightblue","left_color":"orange","left_mu":60,"right_mu":52,"left_numbers":[50,72,79,54,54],"right_numbers":[62,61,40,54,61],"points_earned":270,"phase":"task","trial_type":"horizons-task","trial_index":36,"time_elapsed":531218,"internal_node_id":"0.0-32.0","task_version":"0.2"},{"response_times":[544.2949999705888,398.31499999854714,447.89000001037493,416.0149999661371,1769.750000035856],"keys_pressed":["rightarrow","leftarrow","leftarrow","leftarrow","leftarrow"],"horizon":5,"forced_choices":["rightarrow","leftarrow","leftarrow","leftarrow"],"right_color":"orange","left_color":"lightblue","left_mu":40,"right_mu":32,"left_numbers":[30,42,49,37,45],"right_numbers":[39,23,31,25,33],"points_earned":212,"phase":"task","trial_type":"horizons-task","trial_index":37,"time_elapsed":536298,"internal_node_id":"0.0-33.0","task_version":"0.2"},{"response_times":[433.04000003263354,382.08499999018386,480.1350000197999,1145.1449999585748,1871.9000000273809],"keys_pressed":["leftarrow","rightarrow","rightarrow","rightarrow","rightarrow"],"horizon":5,"forced_choices":["leftarrow","rightarrow","rightarrow","rightarrow"],"right_color":"lightblue","left_color":"orange","left_mu":40,"right_mu":44,"left_numbers":[39,49,40,32,41],"right_numbers":[40,48,42,44,49],"points_earned":222,"phase":"task","trial_type":"horizons-task","trial_index":38,"time_elapsed":542116,"internal_node_id":"0.0-34.0","task_version":"0.2"},{"response_times":[401.40999999130145,348.05500000948086,288.12500002095476,359.91500003729016,1392.0749999815598],"keys_pressed":["rightarrow","leftarrow","rightarrow","leftarrow","rightarrow"],"horizon":5,"forced_choices":["rightarrow","leftarrow","rightarrow","leftarrow"],"right_color":"lightblue","left_color":"orange","left_mu":40,"right_mu":52,"left_numbers":[59,31,24,43,40],"right_numbers":[75,49,58,45,52],"points_earned":259,"phase":"task","trial_type":"horizons-task","trial_index":39,"time_elapsed":546412,"internal_node_id":"0.0-35.0","task_version":"0.2"},{"response_times":[447.36999995075166,261.52499997988343,384.15499997790903,576.0250000166707,1855.8399999747053],"keys_pressed":["rightarrow","leftarrow","rightarrow","rightarrow","rightarrow"],"horizon":5,"forced_choices":["rightarrow","leftarrow","rightarrow","rightarrow"],"right_color":"lightblue","left_color":"orange","left_mu":40,"right_mu":48,"left_numbers":[38,49,40,41,41],"right_numbers":[55,50,49,45,69],"points_earned":267,"phase":"task","trial_type":"horizons-task","trial_index":40,"time_elapsed":551442,"internal_node_id":"0.0-36.0","task_version":"0.2"},{"response_times":[983.8549999985844,231.9250000291504,23.769999970681965,1335.9950000303797,488.0350000457838],"keys_pressed":["rightarrow","leftarrow","rightarrow","leftarrow","rightarrow"],"horizon":5,"forced_choices":["rightarrow","leftarrow","rightarrow","leftarrow"],"right_color":"orange","left_color":"lightblue","left_mu":60,"right_mu":64,"left_numbers":[55,65,45,66,48],"right_numbers":[61,55,78,71,74],"points_earned":344,"phase":"task","trial_type":"horizons-task","trial_index":41,"time_elapsed":556012,"internal_node_id":"0.0-37.0","task_version":"0.2"},{"response_times":[694.1249999799766,225.04499997012317,294.20499998377636,200.1400000299327,1352.2699999739416],"keys_pressed":["leftarrow","rightarrow","leftarrow","rightarrow","leftarrow"],"horizon":5,"forced_choices":["leftarrow","rightarrow","leftarrow","rightarrow"],"right_color":"orange","left_color":"lightblue","left_mu":60,"right_mu":48,"left_numbers":[59,60,41,51,59],"right_numbers":[36,40,59,46,50],"points_earned":245,"phase":"task","trial_type":"horizons-task","trial_index":42,"time_elapsed":560285,"internal_node_id":"0.0-38.0","task_version":"0.2"},{"response_times":[494.2600000067614,366.4299999945797,335.80499998060986,1344.364999968093,1207.9000000376254],"keys_pressed":["leftarrow","rightarrow","leftarrow","leftarrow","leftarrow"],"horizon":5,"forced_choices":["leftarrow","rightarrow","leftarrow","leftarrow"],"right_color":"orange","left_color":"lightblue","left_mu":40,"right_mu":20,"left_numbers":[48,42,38,43,40],"right_numbers":[17,1,27,9,21],"points_earned":170,"phase":"task","trial_type":"horizons-task","trial_index":43,"time_elapsed":565540,"internal_node_id":"0.0-39.0","task_version":"0.2"},{"response_times":[549.8800000059418,432.2099999990314,857.5050000217743,733.4499999997206,715.230000030715],"keys_pressed":["rightarrow","leftarrow","leftarrow","rightarrow","leftarrow"],"horizon":5,"forced_choices":["rightarrow","leftarrow","leftarrow","rightarrow"],"right_color":"lightblue","left_color":"orange","left_mu":40,"right_mu":10,"left_numbers":[36,49,44,22,39],"right_numbers":[3,9,20,11,4],"points_earned":146,"phase":"task","trial_type":"horizons-task","trial_index":44,"time_elapsed":570333,"internal_node_id":"0.0-40.0","task_version":"0.2"},{"response_times":[1212.6849999767728,480.0249999971129,562.065000005532,477.88999998010695,3168.100000009872,711.8550000013784,611.9199999957345,908.3899999968708,1113.2849999703467,638.1900000269525],"keys_pressed":["rightarrow","rightarrow","rightarrow","leftarrow","rightarrow","rightarrow","rightarrow","rightarrow","rightarrow","rightarrow"],"horizon":10,"forced_choices":["rightarrow","rightarrow","rightarrow","leftarrow"],"right_color":"lightblue","left_color":"orange","left_mu":40,"right_mu":52,"left_numbers":[41,41,55,43,40,39,33,35,44,33],"right_numbers":[59,42,46,53,53,56,54,37,55,53],"points_earned":498,"phase":"task","trial_type":"horizons-task","trial_index":45,"time_elapsed":581723,"internal_node_id":"0.0-41.0","task_version":"0.2"},{"response_times":[9122.325000003912,877.730000007432,889.5550000015646,1070.2549999696203,775.9999999543652],"keys_pressed":["rightarrow","rightarrow","rightarrow","leftarrow","rightarrow"],"horizon":5,"forced_choices":["rightarrow","rightarrow","rightarrow","leftarrow"],"right_color":"lightblue","left_color":"orange","left_mu":40,"right_mu":52,"left_numbers":[39,56,33,39,45],"right_numbers":[66,48,54,58,57],"points_earned":264,"phase":"task","trial_type":"horizons-task","trial_index":46,"time_elapsed":595963,"internal_node_id":"0.0-42.0","task_version":"0.2"},{"response_times":[833.2800000207499,478.9849999942817,584.0600000228733,1668.245000008028,451.679999998305,1257.385000004433,374.50999999418855,183.93499997910112,135.95500000519678,580.0750000053085],"keys_pressed":["rightarrow","rightarrow","leftarrow","leftarrow","rightarrow","rightarrow","rightarrow","rightarrow","rightarrow","rightarrow"],"horizon":10,"forced_choices":["rightarrow","rightarrow","leftarrow","leftarrow"],"right_color":"lightblue","left_color":"orange","left_mu":60,"right_mu":80,"left_numbers":[42,72,47,71,60,44,44,65,67,52],"right_numbers":[85,76,83,83,76,85,87,96,77,74],"points_earned":774,"phase":"task","trial_type":"horizons-task","trial_index":47,"time_elapsed":604015,"internal_node_id":"0.0-43.0","task_version":"0.2"},{"response_times":[428.69000002974644,695.8599999779835,552.2200000123121,1023.6649999860674,543.8499999581836,336.1049999948591,159.79499998502433,136.0650000278838,128.09999997261912,423.81000000750646],"keys_pressed":["leftarrow","leftarrow","leftarrow","rightarrow","rightarrow","rightarrow","rightarrow","rightarrow","rightarrow","rightarrow"],"horizon":10,"forced_choices":["leftarrow","leftarrow","leftarrow","rightarrow"],"right_color":"lightblue","left_color":"orange","left_mu":60,"right_mu":90,"left_numbers":[63,57,53,78,62,54,78,51,44,56],"right_numbers":[80,101,74,81,82,85,81,93,90,90],"points_earned":775,"phase":"task","trial_type":"horizons-task","trial_index":48,"time_elapsed":609949,"internal_node_id":"0.0-44.0","task_version":"0.2"},{"response_times":[470.7250000210479,400.21500003058463,633.2099999999627,390.6150000402704,255.9449999826029,335.9849999542348,287.94000000925735,207.94500003103167,207.98000000650063,743.8599999877624],"keys_pressed":["leftarrow","rightarrow","leftarrow","leftarrow","leftarrow","leftarrow","leftarrow","leftarrow","leftarrow","leftarrow"],"horizon":10,"forced_choices":["leftarrow","rightarrow","leftarrow","leftarrow"],"right_color":"lightblue","left_color":"orange","left_mu":40,"right_mu":10,"left_numbers":[39,35,47,42,50,32,19,28,36,41],"right_numbers":[17,22,13,0,0,0,7,23,14,16],"points_earned":356,"phase":"task","trial_type":"horizons-task","trial_index":49,"time_elapsed":615390,"internal_node_id":"0.0-45.0","task_version":"0.2"},{"response_times":[517.3350000404753,407.5699999812059,520.0150000164285,608.0150000052527,471.929999999702],"keys_pressed":["leftarrow","rightarrow","rightarrow","leftarrow","rightarrow"],"horizon":5,"forced_choices":["leftarrow","rightarrow","rightarrow","leftarrow"],"right_color":"orange","left_color":"lightblue","left_mu":60,"right_mu":68,"left_numbers":[49,45,49,49,52],"right_numbers":[66,74,76,71,61],"points_earned":309,"phase":"task","trial_type":"horizons-task","trial_index":50,"time_elapsed":619422,"internal_node_id":"0.0-46.0","task_version":"0.2"},{"view_history":"[{\"page_index\":0,\"viewing_time\":30.094999994616956},{\"page_index\":1,\"viewing_time\":4277.724999992643}]","rt":4308.2699999795295,"trial_type":"instructions","trial_index":51,"time_elapsed":623731,"internal_node_id":"0.0-47.0","task_version":"0.2"},{"response_times":[982.640000001993,4927.1999999764375,791.1800000001676,455.8800000231713,1832.18999998644,607.8149999957532,361.4999999990687,358.5149999707937,640.0100000319071,335.834999976214],"keys_pressed":["leftarrow","rightarrow","leftarrow","rightarrow","leftarrow","leftarrow","leftarrow","leftarrow","leftarrow","leftarrow"],"horizon":10,"forced_choices":["leftarrow","rightarrow","leftarrow","rightarrow"],"right_color":"orange","left_color":"lightblue","left_mu":60,"right_mu":48,"left_numbers":[59,69,57,67,67,64,59,51,66,57],"right_numbers":[34,46,38,46,44,32,55,47,45,44],"points_earned":572,"phase":"task","trial_type":"horizons-task","trial_index":52,"time_elapsed":636534,"internal_node_id":"0.0-48.0","task_version":"0.2"},{"response_times":[518.6900000553578,599.675000004936,375.9899999713525,491.73999996855855,1892.2349999775179,407.9149999888614,287.9700000048615,247.8800000390038,224.0050000254996,231.9250000291504],"keys_pressed":["leftarrow","rightarrow","leftarrow","rightarrow","rightarrow","rightarrow","rightarrow","rightarrow","rightarrow","rightarrow"],"horizon":10,"forced_choices":["leftarrow","rightarrow","leftarrow","rightarrow"],"right_color":"orange","left_color":"lightblue","left_mu":60,"right_mu":72,"left_numbers":[52,48,56,59,75,68,77,59,60,57],"right_numbers":[83,70,75,74,73,77,68,80,68,76],"points_earned":694,"phase":"task","trial_type":"horizons-task","trial_index":53,"time_elapsed":643319,"internal_node_id":"0.0-49.0","task_version":"0.2"},{"response_times":[583.0699999933131,599.4749999954365,1051.560000050813,539.2250000149943,2128.039999981411,319.7400000062771,167.9850000073202,128.06000001728535,359.82999997213483,248.28499997965991],"keys_pressed":["rightarrow","leftarrow","leftarrow","rightarrow","leftarrow","leftarrow","leftarrow","leftarrow","leftarrow","leftarrow"],"horizon":10,"forced_choices":["rightarrow","leftarrow","leftarrow","rightarrow"],"right_color":"orange","left_color":"lightblue","left_mu":40,"right_mu":20,"left_numbers":[52,33,35,51,41,30,32,35,42,44],"right_numbers":[29,10,28,35,20,10,15,21,29,3],"points_earned":356,"phase":"task","trial_type":"horizons-task","trial_index":54,"time_elapsed":650950,"internal_node_id":"0.0-50.0","task_version":"0.2"},{"response_times":[535.2850000490434,511.89500000327826,841.0850000218488,2144.365000014659,806.5449999994598],"keys_pressed":["leftarrow","leftarrow","rightarrow","rightarrow","rightarrow"],"horizon":5,"forced_choices":["leftarrow","leftarrow","rightarrow","rightarrow"],"right_color":"lightblue","left_color":"orange","left_mu":40,"right_mu":44,"left_numbers":[38,44,37,49,44],"right_numbers":[34,43,48,38,41],"points_earned":209,"phase":"task","trial_type":"horizons-task","trial_index":55,"time_elapsed":657295,"internal_node_id":"0.0-51.0","task_version":"0.2"},{"response_times":[774.6650000335649,511.6799999959767,408.0750000430271,391.9999999925494,1321.1849999497645,566.7200000025332,304.0449999971315,559.8699999973178,447.8499999968335,840.1149999699555],"keys_pressed":["leftarrow","rightarrow","leftarrow","rightarrow","leftarrow","leftarrow","leftarrow","leftarrow","leftarrow","leftarrow"],"horizon":10,"forced_choices":["leftarrow","rightarrow","leftarrow","rightarrow"],"right_color":"orange","left_color":"lightblue","left_mu":40,"right_mu":28,"left_numbers":[45,33,47,36,57,36,47,59,53,38],"right_numbers":[44,25,28,26,38,35,23,35,42,15],"points_earned":433,"phase":"task","trial_type":"horizons-task","trial_index":56,"time_elapsed":664927,"internal_node_id":"0.0-52.0","task_version":"0.2"},{"response_times":[496.53499998385087,342.40000002318993,447.8099999832921,512.9650000017136,1407.2099999757484],"keys_pressed":["leftarrow","rightarrow","rightarrow","rightarrow","rightarrow"],"horizon":5,"forced_choices":["leftarrow","rightarrow","rightarrow","rightarrow"],"right_color":"orange","left_color":"lightblue","left_mu":60,"right_mu":48,"left_numbers":[39,59,51,55,47],"right_numbers":[59,47,34,62,48],"points_earned":230,"phase":"task","trial_type":"horizons-task","trial_index":57,"time_elapsed":669639,"internal_node_id":"0.0-53.0","task_version":"0.2"},{"response_times":[606.5599999856204,535.9450000105426,407.86000003572553,680.2399999578483,3431.9850000320002],"keys_pressed":["rightarrow","rightarrow","rightarrow","leftarrow","rightarrow"],"horizon":5,"forced_choices":["rightarrow","rightarrow","rightarrow","leftarrow"],"right_color":"orange","left_color":"lightblue","left_mu":40,"right_mu":28,"left_numbers":[36,47,46,25,34],"right_numbers":[13,23,49,13,35],"points_earned":145,"phase":"task","trial_type":"horizons-task","trial_index":58,"time_elapsed":676807,"internal_node_id":"0.0-54.0","task_version":"0.2"},{"response_times":[462.42500003427267,431.98500003200024,1192.2149999882095,687.6699999556877,399.92000005440786],"keys_pressed":["rightarrow","rightarrow","leftarrow","leftarrow","rightarrow"],"horizon":5,"forced_choices":["rightarrow","rightarrow","leftarrow","leftarrow"],"right_color":"lightblue","left_color":"orange","left_mu":60,"right_mu":80,"left_numbers":[65,60,51,56,62],"right_numbers":[77,88,80,78,76],"points_earned":348,"phase":"task","trial_type":"horizons-task","trial_index":59,"time_elapsed":681484,"internal_node_id":"0.0-55.0","task_version":"0.2"},{"response_times":[570.575000019744,423.60000003827736,512.029999983497,432.32500000158325,1943.784999952186,1944.0099999774247,367.9499999852851,455.8100000140257,1976.1500000022352,1263.875000004191],"keys_pressed":["rightarrow","leftarrow","rightarrow","rightarrow","rightarrow","rightarrow","rightarrow","leftarrow","rightarrow","rightarrow"],"horizon":10,"forced_choices":["rightarrow","leftarrow","rightarrow","rightarrow"],"right_color":"lightblue","left_color":"orange","left_mu":40,"right_mu":48,"left_numbers":[44,44,25,53,39,35,52,54,46,41],"right_numbers":[47,50,65,49,52,52,27,57,50,50],"points_earned":490,"phase":"task","trial_type":"horizons-task","trial_index":60,"time_elapsed":692881,"internal_node_id":"0.0-56.0","task_version":"0.2"},{"response_times":[429.82000001939014,391.875000030268,519.9750000028871,449.4800000102259,3437.7649999805726,581.7599999718368,272.034999972675,327.95499998610467,312.1800000080839,319.6999999927357],"keys_pressed":["rightarrow","leftarrow","rightarrow","leftarrow","leftarrow","leftarrow","leftarrow","leftarrow","leftarrow","leftarrow"],"horizon":10,"forced_choices":["rightarrow","leftarrow","rightarrow","leftarrow"],"right_color":"lightblue","left_color":"orange","left_mu":40,"right_mu":48,"left_numbers":[35,57,31,33,38,58,35,38,42,51],"right_numbers":[45,42,40,42,55,45,44,37,37,46],"points_earned":437,"phase":"task","trial_type":"horizons-task","trial_index":61,"time_elapsed":701430,"internal_node_id":"0.0-57.0","task_version":"0.2"},{"response_times":[414.92999996989965,342.6949999993667,464.1299999784678,767.9750000243075,463.9900000183843,817.0499999541789,182.79500002972782,335.94499999890104,283.47999998368323,172.53500001970679],"keys_pressed":["leftarrow","rightarrow","rightarrow","rightarrow","rightarrow","rightarrow","rightarrow","rightarrow","rightarrow","rightarrow"],"horizon":10,"forced_choices":["leftarrow","rightarrow","rightarrow","rightarrow"],"right_color":"orange","left_color":"lightblue","left_mu":60,"right_mu":64,"left_numbers":[68,56,49,64,57,62,49,68,68,63],"right_numbers":[61,63,56,58,70,68,71,51,65,64],"points_earned":634,"phase":"task","trial_type":"horizons-task","trial_index":62,"time_elapsed":707180,"internal_node_id":"0.0-58.0","task_version":"0.2"},{"response_times":[727.5300000328571,713.5250000283122,838.5600000037812,511.89000002341345,1650.054999976419,509.78999998187646,504.5950000057928,319.4900000235066,207.96999998856336,175.95000000437722],"keys_pressed":["leftarrow","leftarrow","rightarrow","rightarrow","leftarrow","leftarrow","leftarrow","leftarrow","leftarrow","leftarrow"],"horizon":10,"forced_choices":["leftarrow","leftarrow","rightarrow","rightarrow"],"right_color":"lightblue","left_color":"orange","left_mu":60,"right_mu":52,"left_numbers":[58,58,55,67,57,63,74,55,55,70],"right_numbers":[44,45,50,57,49,48,69,59,58,58],"points_earned":597,"phase":"task","trial_type":"horizons-task","trial_index":63,"time_elapsed":714842,"internal_node_id":"0.0-59.0","task_version":"0.2"},{"response_times":[442.4049999797717,408.1099999602884,479.77500001434237,607.9150000005029,1336.0199999879114],"keys_pressed":["leftarrow","rightarrow","rightarrow","leftarrow","leftarrow"],"horizon":5,"forced_choices":["leftarrow","rightarrow","rightarrow","leftarrow"],"right_color":"orange","left_color":"lightblue","left_mu":60,"right_mu":30,"left_numbers":[65,59,64,46,51],"right_numbers":[24,27,23,24,40],"points_earned":212,"phase":"task","trial_type":"horizons-task","trial_index":64,"time_elapsed":719620,"internal_node_id":"0.0-60.0","task_version":"0.2"},{"response_times":[529.8450000118464,487.78999998467043,471.9450000557117,528.1299999915063,511.77499996265396,1096.2349999463186,343.79999997327104,279.9300000187941,271.83500002138317,256.08000002102926],"keys_pressed":["leftarrow","leftarrow","rightarrow","leftarrow","rightarrow","rightarrow","rightarrow","rightarrow","rightarrow","rightarrow"],"horizon":10,"forced_choices":["leftarrow","leftarrow","rightarrow","leftarrow"],"right_color":"orange","left_color":"lightblue","left_mu":60,"right_mu":72,"left_numbers":[50,60,64,60,65,62,49,57,73,65],"right_numbers":[69,74,78,78,74,83,75,76,60,80],"points_earned":696,"phase":"task","trial_type":"horizons-task","trial_index":65,"time_elapsed":725911,"internal_node_id":"0.0-61.0","task_version":"0.2"},{"response_times":[453.87500000651926,431.93500000052154,969.1250000032596,526.7650000168942,1001.6349999932572,278.4000000101514,183.88500000583008,159.99499999452382,239.99999999068677,207.81500003067777],"keys_pressed":["leftarrow","rightarrow","rightarrow","leftarrow","leftarrow","leftarrow","leftarrow","leftarrow","leftarrow","leftarrow"],"horizon":10,"forced_choices":["leftarrow","rightarrow","rightarrow","leftarrow"],"right_color":"orange","left_color":"lightblue","left_mu":60,"right_mu":30,"left_numbers":[57,58,53,65,76,53,47,64,53,67],"right_numbers":[30,25,36,33,34,21,28,27,20,23],"points_earned":543,"phase":"task","trial_type":"horizons-task","trial_index":66,"time_elapsed":731870,"internal_node_id":"0.0-62.0","task_version":"0.2"},{"response_times":[567.1500000171363,511.8050000164658,922.164999996312,581.7799999495037,1568.3250000001863],"keys_pressed":["rightarrow","rightarrow","leftarrow","rightarrow","leftarrow"],"horizon":5,"forced_choices":["rightarrow","rightarrow","leftarrow","rightarrow"],"right_color":"orange","left_color":"lightblue","left_mu":60,"right_mu":30,"left_numbers":[54,65,58,63,72],"right_numbers":[19,31,33,33,25],"points_earned":213,"phase":"task","trial_type":"horizons-task","trial_index":67,"time_elapsed":737527,"internal_node_id":"0.0-63.0","task_version":"0.2"},{"response_times":[486.2950000097044,567.864999989979,488.1449999520555,441.28500000806525,1398.589999997057,839.9150000186637,440.10499998694286,775.9649999788962,391.83999999659136,256.02500000968575],"keys_pressed":["rightarrow","rightarrow","leftarrow","leftarrow","leftarrow","leftarrow","leftarrow","leftarrow","leftarrow","leftarrow"],"horizon":10,"forced_choices":["rightarrow","rightarrow","leftarrow","leftarrow"],"right_color":"lightblue","left_color":"orange","left_mu":60,"right_mu":40,"left_numbers":[59,70,69,56,56,53,51,76,67,59],"right_numbers":[31,26,51,42,43,49,41,37,39,38],"points_earned":544,"phase":"task","trial_type":"horizons-task","trial_index":68,"time_elapsed":745120,"internal_node_id":"0.0-64.0","task_version":"0.2"},{"response_times":[441.8600000208244,459.4599999836646,527.9749999754131,383.9500000467524,1368.1799999903888],"keys_pressed":["rightarrow","leftarrow","leftarrow","leftarrow","rightarrow"],"horizon":5,"forced_choices":["rightarrow","leftarrow","leftarrow","leftarrow"],"right_color":"orange","left_color":"lightblue","left_mu":40,"right_mu":60,"left_numbers":[45,53,50,50,32],"right_numbers":[70,61,58,56,41],"points_earned":264,"phase":"task","trial_type":"horizons-task","trial_index":69,"time_elapsed":749808,"internal_node_id":"0.0-65.0","task_version":"0.2"},{"response_times":[558.3050000132062,478.42499997932464,639.9899999960326,544.7549999807961,1552.5749999796972,438.59999999403954,496.10499996924773,375.850000011269,455.9599999920465,335.96999995643273],"keys_pressed":["rightarrow","rightarrow","leftarrow","leftarrow","rightarrow","rightarrow","rightarrow","rightarrow","rightarrow","rightarrow"],"horizon":10,"forced_choices":["rightarrow","rightarrow","leftarrow","leftarrow"],"right_color":"lightblue","left_color":"orange","left_mu":40,"right_mu":70,"left_numbers":[39,34,30,51,47,37,31,39,40,37],"right_numbers":[65,86,80,62,81,67,72,71,66,63],"points_earned":652,"phase":"task","trial_type":"horizons-task","trial_index":70,"time_elapsed":757190,"internal_node_id":"0.0-66.0","task_version":"0.2"},{"response_times":[432.71999998250976,662.5500000081956,543.9550000010058,936.1450000433251,961.5500000072643,718.30000000773,455.9449999942444,263.9550000312738,207.92499999515712,216.0250000306405],"keys_pressed":["rightarrow","rightarrow","leftarrow","rightarrow","leftarrow","leftarrow","leftarrow","leftarrow","leftarrow","leftarrow"],"horizon":10,"forced_choices":["rightarrow","rightarrow","leftarrow","rightarrow"],"right_color":"lightblue","left_color":"orange","left_mu":60,"right_mu":40,"left_numbers":[64,58,67,59,48,62,60,64,63,57],"right_numbers":[45,46,35,33,41,59,40,40,34,39],"points_earned":545,"phase":"task","trial_type":"horizons-task","trial_index":71,"time_elapsed":764094,"internal_node_id":"0.0-67.0","task_version":"0.2"},{"response_times":[481.49999999441206,453.4799999673851,447.87000003270805,864.2049999907613,1432.8399999649264,598.9899999694899,240.1199999731034,207.70999998785555,207.96500000869855,167.95000003185123],"keys_pressed":["rightarrow","leftarrow","leftarrow","rightarrow","leftarrow","leftarrow","leftarrow","leftarrow","leftarrow","leftarrow"],"horizon":10,"forced_choices":["rightarrow","leftarrow","leftarrow","rightarrow"],"right_color":"lightblue","left_color":"orange","left_mu":40,"right_mu":10,"left_numbers":[46,45,35,43,47,28,56,51,45,39],"right_numbers":[0,22,2,13,0,6,18,0,8,7],"points_earned":359,"phase":"task","trial_type":"horizons-task","trial_index":72,"time_elapsed":770703,"internal_node_id":"0.0-68.0","task_version":"0.2"},{"response_times":[592.3499999917112,464.2149999854155,1214.1699999920093,967.9400000022724,424.10499998368323],"keys_pressed":["leftarrow","rightarrow","rightarrow","rightarrow","leftarrow"],"horizon":5,"forced_choices":["leftarrow","rightarrow","rightarrow","rightarrow"],"right_color":"orange","left_color":"lightblue","left_mu":60,"right_mu":64,"left_numbers":[72,54,44,55,70],"right_numbers":[76,59,52,62,59],"points_earned":315,"phase":"task","trial_type":"horizons-task","trial_index":73,"time_elapsed":775871,"internal_node_id":"0.0-69.0","task_version":"0.2"},{"response_times":[1310.979999951087,719.9249999830499,440.02999999793246,447.9900000151247,2529.2849999968894,438.5400000028312,224.11499998997897,231.86499997973442,208.02499999990687,223.98500004783273],"keys_pressed":["leftarrow","leftarrow","rightarrow","leftarrow","leftarrow","leftarrow","leftarrow","leftarrow","leftarrow","leftarrow"],"horizon":10,"forced_choices":["leftarrow","leftarrow","rightarrow","leftarrow"],"right_color":"lightblue","left_color":"orange","left_mu":60,"right_mu":52,"left_numbers":[55,64,65,56,63,56,59,58,54,44],"right_numbers":[50,57,52,57,50,48,39,56,31,56],"points_earned":561,"phase":"task","trial_type":"horizons-task","trial_index":74,"time_elapsed":784149,"internal_node_id":"0.0-70.0","task_version":"0.2"},{"response_times":[466.5750000276603,382.22500000847504,527.9650000156835,1193.3350000181235,1534.7750000073574,991.8250000337139,261.30499999271706,170.8750000107102,175.77999999048188,152.02499995939434],"keys_pressed":["leftarrow","rightarrow","rightarrow","rightarrow","rightarrow","rightarrow","rightarrow","rightarrow","rightarrow","rightarrow"],"horizon":10,"forced_choices":["leftarrow","rightarrow","rightarrow","rightarrow"],"right_color":"lightblue","left_color":"orange","left_mu":40,"right_mu":44,"left_numbers":[47,35,21,25,44,37,25,43,53,46],"right_numbers":[58,55,34,36,46,54,51,38,44,47],"points_earned":452,"phase":"task","trial_type":"horizons-task","trial_index":75,"time_elapsed":791511,"internal_node_id":"0.0-71.0","task_version":"0.2"},{"response_times":[702.9549999861047,816.0449999850243,511.2399999634363,752.7549999649636,655.88499995647],"keys_pressed":["leftarrow","leftarrow","leftarrow","rightarrow","rightarrow"],"horizon":5,"forced_choices":["leftarrow","leftarrow","leftarrow","rightarrow"],"right_color":"lightblue","left_color":"orange","left_mu":40,"right_mu":70,"left_numbers":[37,34,32,44,31],"right_numbers":[66,72,81,72,64],"points_earned":239,"phase":"task","trial_type":"horizons-task","trial_index":76,"time_elapsed":796456,"internal_node_id":"0.0-72.0","task_version":"0.2"},{"response_times":[551.1249999981374,431.26500002108514,408.0100000137463,360.0599999772385,1601.299999980256,438.4750000317581,295.94499996164814,455.95499995397404,240.105000033509,207.82000001054257],"keys_pressed":["leftarrow","leftarrow","leftarrow","rightarrow","rightarrow","rightarrow","rightarrow","rightarrow","rightarrow","rightarrow"],"horizon":10,"forced_choices":["leftarrow","leftarrow","leftarrow","rightarrow"],"right_color":"lightblue","left_color":"orange","left_mu":40,"right_mu":70,"left_numbers":[45,43,20,46,54,48,47,32,41,34],"right_numbers":[70,80,92,62,85,72,71,68,79,60],"points_earned":605,"phase":"task","trial_type":"horizons-task","trial_index":77,"time_elapsed":802952,"internal_node_id":"0.0-73.0","task_version":"0.2"},{"response_times":[496.0549999959767,342.44500001659617,463.8750000158325,848.0399999534711,3040.580000029877],"keys_pressed":["leftarrow","rightarrow","rightarrow","leftarrow","leftarrow"],"horizon":5,"forced_choices":["leftarrow","rightarrow","rightarrow","leftarrow"],"right_color":"lightblue","left_color":"orange","left_mu":40,"right_mu":36,"left_numbers":[46,41,45,40,46],"right_numbers":[46,29,40,33,39],"points_earned":201,"phase":"task","trial_type":"horizons-task","trial_index":78,"time_elapsed":809648,"internal_node_id":"0.0-74.0","task_version":"0.2"},{"response_times":[694.2050000070594,447.905000008177,503.9600000018254,487.95999999856576,2265.5899999663234],"keys_pressed":["leftarrow","leftarrow","rightarrow","rightarrow","rightarrow"],"horizon":5,"forced_choices":["leftarrow","leftarrow","rightarrow","rightarrow"],"right_color":"orange","left_color":"lightblue","left_mu":60,"right_mu":56,"left_numbers":[60,59,68,45,64],"right_numbers":[44,62,55,63,58],"points_earned":295,"phase":"task","trial_type":"horizons-task","trial_index":79,"time_elapsed":815555,"internal_node_id":"0.0-75.0","task_version":"0.2"},{"response_times":[468.07999996235594,335.73000004980713,392.0500000240281,359.80999999446794,2609.4499999890104,342.5500000012107,224.01999996509403,175.97500002011657,168.0449999985285,399.90999997826293],"keys_pressed":["rightarrow","leftarrow","leftarrow","leftarrow","rightarrow","rightarrow","rightarrow","rightarrow","rightarrow","rightarrow"],"horizon":10,"forced_choices":["rightarrow","leftarrow","leftarrow","leftarrow"],"right_color":"orange","left_color":"lightblue","left_mu":40,"right_mu":60,"left_numbers":[23,42,43,37,31,45,34,34,34,42],"right_numbers":[48,57,46,74,56,53,68,53,63,50],"points_earned":513,"phase":"task","trial_type":"horizons-task","trial_index":80,"time_elapsed":822537,"internal_node_id":"0.0-76.0","task_version":"0.2"},{"response_times":[2711.920000030659,310.3549999650568,527.814999979455,600.1699999906123,1488.050000043586,263.75499996356666,264.1000000294298,183.85000003036112,183.95000003511086,183.93499997910112],"keys_pressed":["leftarrow","leftarrow","rightarrow","rightarrow","leftarrow","leftarrow","leftarrow","leftarrow","leftarrow","leftarrow"],"horizon":10,"forced_choices":["leftarrow","leftarrow","rightarrow","rightarrow"],"right_color":"orange","left_color":"lightblue","left_mu":60,"right_mu":56,"left_numbers":[68,67,68,50,58,71,55,48,56,56],"right_numbers":[51,65,53,64,64,56,66,46,62,65],"points_earned":596,"phase":"task","trial_type":"horizons-task","trial_index":81,"time_elapsed":830762,"internal_node_id":"0.0-77.0","task_version":"0.2"},{"response_times":[525.5649999598972,199.979999975767,424.01000001700595,487.9150000051595,1192.6749999984168,311.22999999206513,279.9850000301376,208.0600000335835,223.93500001635402,216.4599999669008],"keys_pressed":["leftarrow","rightarrow","leftarrow","rightarrow","rightarrow","rightarrow","rightarrow","rightarrow","rightarrow","rightarrow"],"horizon":10,"forced_choices":["leftarrow","rightarrow","leftarrow","rightarrow"],"right_color":"orange","left_color":"lightblue","left_mu":40,"right_mu":60,"left_numbers":[36,42,43,32,40,37,41,46,43,32],"right_numbers":[65,66,67,68,60,37,72,68,59,66],"points_earned":575,"phase":"task","trial_type":"horizons-task","trial_index":82,"time_elapsed":836338,"internal_node_id":"0.0-78.0","task_version":"0.2"},{"response_times":[511.89000002341345,446.204999985639,840.0649999966845,687.7000000094995,568.1250000488944],"keys_pressed":["rightarrow","rightarrow","leftarrow","leftarrow","leftarrow"],"horizon":5,"forced_choices":["rightarrow","rightarrow","leftarrow","leftarrow"],"right_color":"lightblue","left_color":"orange","left_mu":60,"right_mu":40,"left_numbers":[63,50,56,63,37],"right_numbers":[31,29,54,41,26],"points_earned":216,"phase":"task","trial_type":"horizons-task","trial_index":83,"time_elapsed":840898,"internal_node_id":"0.0-79.0","task_version":"0.2"},{"response_times":[525.8100000210106,543.9349999651313,599.9050000100397,375.62000000616536,1224.4949999731034,367.7449999959208,271.99499995913357,279.999999969732,264.1899999580346,207.82999997027218],"keys_pressed":["rightarrow","rightarrow","leftarrow","rightarrow","leftarrow","leftarrow","leftarrow","leftarrow","leftarrow","leftarrow"],"horizon":10,"forced_choices":["rightarrow","rightarrow","leftarrow","rightarrow"],"right_color":"orange","left_color":"lightblue","left_mu":60,"right_mu":30,"left_numbers":[62,61,60,66,69,65,57,58,58,67],"right_numbers":[29,32,33,23,25,28,34,30,23,29],"points_earned":518,"phase":"task","trial_type":"horizons-task","trial_index":84,"time_elapsed":847066,"internal_node_id":"0.0-80.0","task_version":"0.2"},{"response_times":[576.6749999602325,677.8700000140816,1576.1300000012852,871.7549999710172,1328.1699999934062],"keys_pressed":["rightarrow","leftarrow","leftarrow","rightarrow","leftarrow"],"horizon":5,"forced_choices":["rightarrow","leftarrow","leftarrow","rightarrow"],"right_color":"orange","left_color":"lightblue","left_mu":40,"right_mu":20,"left_numbers":[49,27,34,39,30],"right_numbers":[16,28,34,35,30],"points_earned":142,"phase":"task","trial_type":"horizons-task","trial_index":85,"time_elapsed":853602,"internal_node_id":"0.0-81.0","task_version":"0.2"},{"response_times":[629.2200000025332,392.1550000086427,472.0950000337325,360.0999999907799,2185.4349999921396,568.1750000221655,446.10999996075407,383.3100000047125,271.7600000323728,240.56000000564381],"keys_pressed":["rightarrow","rightarrow","leftarrow","rightarrow","rightarrow","rightarrow","rightarrow","rightarrow","rightarrow","rightarrow"],"horizon":10,"forced_choices":["rightarrow","rightarrow","leftarrow","rightarrow"],"right_color":"orange","left_color":"lightblue","left_mu":60,"right_mu":56,"left_numbers":[63,51,62,67,54,58,54,59,71,56],"right_numbers":[69,51,51,56,54,40,58,60,53,51],"points_earned":554,"phase":"task","trial_type":"horizons-task","trial_index":86,"time_elapsed":861058,"internal_node_id":"0.0-82.0","task_version":"0.2"},{"response_times":[438.43500001821667,311.87000003410503,384.0399999753572,576.9899999722838,2999.6699999901466,431.17000005440786,304.83499995898455,239.03499997686595,239.90499996580184,208.12499994644895],"keys_pressed":["leftarrow","rightarrow","rightarrow","rightarrow","leftarrow","leftarrow","leftarrow","leftarrow","leftarrow","leftarrow"],"horizon":10,"forced_choices":["leftarrow","rightarrow","rightarrow","rightarrow"],"right_color":"orange","left_color":"lightblue","left_mu":60,"right_mu":48,"left_numbers":[68,55,57,46,63,54,48,58,59,62],"right_numbers":[34,39,44,68,56,42,49,46,49,41],"points_earned":563,"phase":"task","trial_type":"horizons-task","trial_index":87,"time_elapsed":868696,"internal_node_id":"0.0-83.0","task_version":"0.2"},{"response_times":[466.79000003496185,398.2450000476092,511.78000000072643,499.6099999989383,1444.7499999660067],"keys_pressed":["rightarrow","rightarrow","leftarrow","rightarrow","leftarrow"],"horizon":5,"forced_choices":["rightarrow","rightarrow","leftarrow","rightarrow"],"right_color":"lightblue","left_color":"orange","left_mu":60,"right_mu":40,"left_numbers":[56,65,55,65,39],"right_numbers":[43,42,44,44,33],"points_earned":223,"phase":"task","trial_type":"horizons-task","trial_index":88,"time_elapsed":873519,"internal_node_id":"0.0-84.0","task_version":"0.2"},{"response_times":[426.26500001642853,383.94999998854473,335.98500001244247,464.11000000080094,816.0250000073574],"keys_pressed":["rightarrow","leftarrow","rightarrow","rightarrow","rightarrow"],"horizon":5,"forced_choices":["rightarrow","leftarrow","rightarrow","rightarrow"],"right_color":"lightblue","left_color":"orange","left_mu":60,"right_mu":80,"left_numbers":[60,67,75,48,64],"right_numbers":[84,83,63,83,87],"points_earned":384,"phase":"task","trial_type":"horizons-task","trial_index":89,"time_elapsed":877448,"internal_node_id":"0.0-85.0","task_version":"0.2"},{"response_times":[440.790000022389,495.75000000186265,424.07000000821427,701.839999994263,370.02500001108274],"keys_pressed":["leftarrow","leftarrow","rightarrow","leftarrow","rightarrow"],"horizon":5,"forced_choices":["leftarrow","leftarrow","rightarrow","leftarrow"],"right_color":"orange","left_color":"lightblue","left_mu":60,"right_mu":72,"left_numbers":[62,51,63,60,48],"right_numbers":[57,94,73,73,71],"points_earned":317,"phase":"task","trial_type":"horizons-task","trial_index":90,"time_elapsed":881386,"internal_node_id":"0.0-86.0","task_version":"0.2"},{"response_times":[447.54000002285466,367.7499999757856,319.99499996891245,320.03500004066154,1552.1350000053644,279.70000001369044,224.06500001670793,207.83500000834465,184.16000000433996,207.83999998820946],"keys_pressed":["rightarrow","leftarrow","rightarrow","leftarrow","leftarrow","leftarrow","leftarrow","leftarrow","leftarrow","leftarrow"],"horizon":10,"forced_choices":["rightarrow","leftarrow","rightarrow","leftarrow"],"right_color":"orange","left_color":"lightblue","left_mu":60,"right_mu":64,"left_numbers":[71,80,61,54,59,68,65,57,50,64],"right_numbers":[51,65,62,74,73,59,68,61,59,63],"points_earned":610,"phase":"task","trial_type":"horizons-task","trial_index":91,"time_elapsed":887004,"internal_node_id":"0.0-87.0","task_version":"0.2"},{"rt":20046.81500000879,"responses":{"age":"21","gender-categorical":"Male","gender-free-response":"","ethnicity":"Hispanic or Latino","race":["Rather not say"],"language":"Yes","fluency":"Very well"},"survey":"demographics","trial_type":"survey-demo","trial_index":92,"time_elapsed":907055,"internal_node_id":"0.0-88.0","task_version":"0.2"},{"rt":36990.44500000309,"responses":{"difficulty":"5","fun":"4","clarity":"5","strategy":"the machine that on average had the biggest numbers is the machine i always went with","feedback":"no"},"survey":"debrief","trial_type":"survey-debrief","trial_index":93,"time_elapsed":944049,"internal_node_id":"0.0-89.0","task_version":"0.2","interactions":"[]"}]