[{"view_history":"[{\"page_index\":0,\"viewing_time\":1722.2249999758787}]","rt":1723.3399999677204,"trial_type":"instructions","trial_index":0,"time_elapsed":1736,"internal_node_id":"0.0-0.0","task_version":"0.2"},{"item_order":[7,14,6,3,2,15,5,1,12,10,11,13,4,0,9,8],"responses":{"Q08":"4","Q15":"3","Q07":"3","Q04":"4","Q03":"2","Q16":"5","Q06":"3","Q02":"2","Q13":"2","Q11":"3","Q12":"2","Q14":"2","Q05":"2","Q01":"3","Q10":"1","Q09":"3"},"radio_events":[4221.650000021327,7378.655000007711,8520.850000029895,11929.750000010245,15493.484999984503,19923.20000001928,23578.054999990854,27179.349999991246,29876.21499999659,33314.595000003465,36001.6750000068,38984.645000018645,43091.76500001922,53429.515000025276,62689.69999998808,67708.17500003614,69897.27000001585,72149.29999999003,75367.45000001974,79416.02000000421],"key_events":[],"mouse_events":[0.16500003403052688,2978.8600000320002,3618.8599999877624,4221.650000021327,6405.064999999013,7378.655000007711,8520.850000029895,11929.750000010245,15493.484999984503,19923.20000001928,22826.28500001738,23578.054999990854,27179.349999991246,29876.21499999659,33314.595000003465,35218.93000003183,36001.6750000068,38984.645000018645,43091.76500001922,52626.59500003792,53429.515000025276,61394.460000039544,62689.69999998808,67069.57500003045,67708.17500003614,69897.27000001585,72149.29999999003,75367.45000001974,78805.85000000428,79416.02000000421,80391.6549999849],"rt":80394.20999999857,"survey":"nfc","trial_type":"survey-template","trial_index":1,"time_elapsed":82138,"internal_node_id":"0.0-1.0","task_version":"0.2"},{"item_order":[2,12,0,5,9,1,11,10,8,4,3,6,7],"responses":{"Q03":"3","Q13":"4","Q01":"2","Q06":"1","Q10":"3","Q02":"1","Q12":"1","Q11":"2","Q09":"1","Q05":"2","Q04":"1","Q07":"2","Q08":"1"},"radio_events":[8319.325000047684,10167.524999997113,13119.24500000896,16790.68500001449,18999.030000006314,19726.905000046827,21454.60500003537,23614.935000019614,26119.724999996834,27111.39000003459,27919.55000004964,31263.20000004489,34255.525000044145,36294.95000001043,37623.17500001518,40311.020000022836,42095.40500002913,43839.190000027884,44623.63500002539,46631.17000000784,47398.96000002045],"key_events":[],"mouse_events":[6199.415000039153,8319.325000047684,9478.945000038948,10167.524999997113,12695.035000040662,13119.24500000896,13800.604999996722,16311.195000016596,16790.68500001449,18999.030000006314,19726.905000046827,21454.60500003537,22974.87000003457,23614.935000019614,26119.724999996834,27111.39000003459,27919.55000004964,30566.70500000473,31263.20000004489,32903.214999998454,33479.37499999534,34255.525000044145,36294.95000001043,37623.17500001518,40311.020000022836,42095.40500002913,43839.190000027884,44623.63500002539,46631.17000000784,47398.96000002045,48151.590000023134],"rt":48154.5599999954,"survey":"ius12","trial_type":"survey-template","trial_index":2,"time_elapsed":130299,"internal_node_id":"0.0-2.0","task_version":"0.2"},{"item_order":[9,11,2,10,7,14,3,13,6,8,0,15,5,12,1,4,16],"responses":{"Q10":"3","Q12":"3","Q03":"3","Q11":"1","Q08":"3","Q15":"2","Q04":"1","Q14":"1","Q07":"2","Q09":"2","Q01":"2","Q16":"3","Q06":"1","Q13":"2","Q02":"2","Q05":"2","Q17":"0"},"radio_events":[3602.400000032503,7458.615000010468,10562.444999988656,16002.755000023171,16266.940000001341,19170.730000012554,20754.78999997722,24035.060000023805,26474.875000014435,27234.92499999702,29874.20999997994,32394.659999990836,35250.920000020415,38522.66000001691,39994.890000030864,42298.1499999878,44018.84500001324,45594.35999998823,49043.00499998499,52178.89500001911,52923.13000001013,57002.63499998255,57923.22499997681],"key_events":[],"mouse_events":[3602.400000032503,7458.615000010468,9786.149999999907,10562.444999988656,13610.155000002123,14411.060000013094,15370.654999976978,15722.929999988992,16002.755000023171,16266.940000001341,19170.730000012554,20754.78999997722,24035.060000023805,26474.875000014435,27234.92499999702,28866.834999993443,29314.104999997653,29874.20999997994,32394.659999990836,35250.920000020415,37779.41999997711,38522.66000001691,39994.890000030864,42298.1499999878,44018.84500001324,45594.35999998823,49043.00499998499,52178.89500001911,52923.13000001013,55547.16499999631,57002.63499998255,57923.22499997681,59155.145000026096],"rt":59159.035000018775,"survey":"pswq","trial_type":"survey-template","trial_index":3,"time_elapsed":189468,"internal_node_id":"0.0-3.0","task_version":"0.2"},{"view_history":"[{\"page_index\":0,\"viewing_time\":1984.7650000010617},{\"page_index\":1,\"viewing_time\":3655.765000032261},{\"page_index\":2,\"viewing_time\":6431.790000002366},{\"page_index\":3,\"viewing_time\":4160.069999983534},{\"page_index\":4,\"viewing_time\":3169.285000010859},{\"page_index\":5,\"viewing_time\":3382.5550000183284},{\"page_index\":6,\"viewing_time\":4095.7199999829754},{\"page_index\":7,\"viewing_time\":10216.405000013765},{\"page_index\":8,\"viewing_time\":5247.239999996964},{\"page_index\":9,\"viewing_time\":7749.974999984261}]","rt":50095.54000000935,"trial_type":"instructions","trial_index":4,"time_elapsed":239573,"internal_node_id":"0.0-4.0-0.0","task_version":"0.2"},{"response_times":[1342.7300000330433,597.269999969285,478.67500002030283,714.7300000069663,4680.959999968763],"keys_pressed":["rightarrow","leftarrow","rightarrow","rightarrow","leftarrow"],"horizon":5,"forced_choices":["rightarrow","leftarrow","rightarrow","rightarrow"],"right_color":"lightblue","left_color":"orange","left_mu":40,"right_mu":20,"left_numbers":[40,41,49,43,22],"right_numbers":[21,22,15,32,23],"points_earned":131,"phase":"practice","trial_type":"horizons-task","trial_index":5,"time_elapsed":248914,"internal_node_id":"0.0-4.0-1.0","task_version":"0.2"},{"response_times":[1318.874999997206,514.4650000147521,614.5299999625422,775.6899999803863,559.4700000365265,4578.249999962281,2141.310000035446,1615.5000000144355,2245.8999999798834,2587.569999974221],"keys_pressed":["leftarrow","leftarrow","rightarrow","rightarrow","leftarrow","leftarrow","rightarrow","rightarrow","rightarrow","rightarrow"],"horizon":10,"forced_choices":["leftarrow","leftarrow","rightarrow","rightarrow"],"right_color":"orange","left_color":"lightblue","left_mu":60,"right_mu":70,"left_numbers":[58,78,67,64,57,56,56,60,48,55],"right_numbers":[64,70,64,53,57,58,73,80,66,50],"points_earned":635,"phase":"practice","trial_type":"horizons-task","trial_index":6,"time_elapsed":267370,"internal_node_id":"0.0-4.0-2.0","task_version":"0.2"},{"view_history":"[{\"page_index\":0,\"viewing_time\":1455.1349999965169},{\"page_index\":1,\"viewing_time\":2349.7349999961443},{\"page_index\":2,\"viewing_time\":2494.5000000298023},{\"page_index\":3,\"viewing_time\":2115.4549999628216}]","rt":8415.30499997316,"trial_type":"instructions","trial_index":7,"time_elapsed":275789,"internal_node_id":"0.0-4.0-3.0","task_version":"0.2"},{"responses":["true","false","true"],"num_errors":0,"rt":10263.55000003241,"trial_type":"horizons-comprehension","trial_index":8,"time_elapsed":286059,"internal_node_id":"0.0-4.0-4.0","task_version":"0.2"},{"trial_type":"call-function","trial_index":9,"time_elapsed":286071,"internal_node_id":"0.0-5.0","task_version":"0.2"},{"view_history":"[{\"page_index\":0,\"viewing_time\":1129.1950000450015},{\"page_index\":1,\"viewing_time\":3366.494999965653}]","rt":4496.190000034403,"trial_type":"instructions","trial_index":10,"time_elapsed":290568,"internal_node_id":"0.0-6.0","task_version":"0.2"},{"response_times":[733.3199999993667,511.91000000108033,612.3399999924004,668.3750000083819,1434.5050000119954],"keys_pressed":["leftarrow","leftarrow","leftarrow","rightarrow","leftarrow"],"horizon":5,"forced_choices":["leftarrow","leftarrow","leftarrow","rightarrow"],"right_color":"orange","left_color":"lightblue","left_mu":40,"right_mu":20,"left_numbers":[38,34,40,33,31],"right_numbers":[32,24,25,14,12],"points_earned":157,"phase":"task","trial_type":"horizons-task","trial_index":11,"time_elapsed":296046,"internal_node_id":"0.0-7.0","task_version":"0.2"},{"response_times":[798.7900000298396,715.8300000010058,1027.9950000112876,1137.2750000446104,997.4250000086613],"keys_pressed":["rightarrow","rightarrow","leftarrow","leftarrow","rightarrow"],"horizon":5,"forced_choices":["rightarrow","rightarrow","leftarrow","leftarrow"],"right_color":"lightblue","left_color":"orange","left_mu":60,"right_mu":80,"left_numbers":[46,48,54,59,61],"right_numbers":[74,72,70,88,78],"points_earned":337,"phase":"task","trial_type":"horizons-task","trial_index":12,"time_elapsed":302227,"internal_node_id":"0.0-8.0","task_version":"0.2"},{"response_times":[815.4099999810569,469.0200000186451,555.4250000277534,561.1050000297837,651.0949999792501,1645.1750000123866,2057.5349999708124,599.5849999599159,586.9700000039302,520.2200000057928],"keys_pressed":["leftarrow","rightarrow","leftarrow","rightarrow","leftarrow","leftarrow","rightarrow","leftarrow","leftarrow","leftarrow"],"horizon":10,"forced_choices":["leftarrow","rightarrow","leftarrow","rightarrow"],"right_color":"lightblue","left_color":"orange","left_mu":40,"right_mu":10,"left_numbers":[34,24,37,26,36,34,44,25,35,31],"right_numbers":[15,0,13,9,10,16,7,16,24,1],"points_earned":248,"phase":"task","trial_type":"horizons-task","trial_index":13,"time_elapsed":312193,"internal_node_id":"0.0-9.0","task_version":"0.2"},{"response_times":[667.760000040289,489.1850000130944,663.0100000184029,364.5550000364892,2614.2199999885634,1053.0800000415184,1026.1150000151247,564.1949999844655,630.7999999844469,787.2900000074878],"keys_pressed":["leftarrow","leftarrow","rightarrow","leftarrow","leftarrow","rightarrow","rightarrow","leftarrow","rightarrow","leftarrow"],"horizon":10,"forced_choices":["leftarrow","leftarrow","rightarrow","leftarrow"],"right_color":"lightblue","left_color":"orange","left_mu":60,"right_mu":56,"left_numbers":[51,50,50,52,60,53,55,51,56,51],"right_numbers":[45,42,51,44,42,63,52,77,45,70],"points_earned":526,"phase":"task","trial_type":"horizons-task","trial_index":14,"time_elapsed":322558,"internal_node_id":"0.0-10.0","task_version":"0.2"},{"response_times":[655.7349999784492,477.95499995118007,620.824999990873,523.6150000127964,914.5799999823794],"keys_pressed":["leftarrow","leftarrow","rightarrow","leftarrow","leftarrow"],"horizon":5,"forced_choices":["leftarrow","leftarrow","rightarrow","leftarrow"],"right_color":"lightblue","left_color":"orange","left_mu":60,"right_mu":30,"left_numbers":[58,57,55,55,66],"right_numbers":[21,23,16,26,34],"points_earned":252,"phase":"task","trial_type":"horizons-task","trial_index":15,"time_elapsed":327254,"internal_node_id":"0.0-11.0","task_version":"0.2"},{"response_times":[104.7649999964051,822.7550000301562,461.59500000067055,563.7400000123307,1697.0150000415742,1085.1949999923818,911.7050000349991,637.8749999566935,548.6300000338815,561.4249999634922],"keys_pressed":["leftarrow","leftarrow","rightarrow","rightarrow","rightarrow","leftarrow","leftarrow","rightarrow","rightarrow","rightarrow"],"horizon":10,"forced_choices":["leftarrow","leftarrow","rightarrow","rightarrow"],"right_color":"orange","left_color":"lightblue","left_mu":40,"right_mu":48,"left_numbers":[24,45,44,34,62,50,39,23,37,52],"right_numbers":[41,46,49,59,48,44,54,54,50,43],"points_earned":461,"phase":"task","trial_type":"horizons-task","trial_index":16,"time_elapsed":336153,"internal_node_id":"0.0-12.0","task_version":"0.2"},{"response_times":[1153.6449999548495,526.0899999993853,577.3199999821372,405.09000001475215,1590.1249999878928,553.9349999744445,691.0799999604933,465.3900000266731,603.9049999671988,1165.7049999921583],"keys_pressed":["leftarrow","rightarrow","rightarrow","leftarrow","leftarrow","leftarrow","rightarrow","leftarrow","leftarrow","rightarrow"],"horizon":10,"forced_choices":["leftarrow","rightarrow","rightarrow","leftarrow"],"right_color":"lightblue","left_color":"orange","left_mu":60,"right_mu":48,"left_numbers":[51,67,61,55,63,68,60,78,47,54],"right_numbers":[56,38,45,61,59,37,41,44,45,55],"points_earned":541,"phase":"task","trial_type":"horizons-task","trial_index":17,"time_elapsed":345391,"internal_node_id":"0.0-13.0","task_version":"0.2"},{"response_times":[556.685000017751,486.8600000045262,415.5699999537319,619.5399999851361,1785.150000010617,506.6849999711849,500.194999971427,525.8150000008754,533.8149999734014,732.709999952931],"keys_pressed":["leftarrow","rightarrow","leftarrow","rightarrow","leftarrow","rightarrow","leftarrow","leftarrow","leftarrow","rightarrow"],"horizon":10,"forced_choices":["leftarrow","rightarrow","leftarrow","rightarrow"],"right_color":"lightblue","left_color":"orange","left_mu":40,"right_mu":28,"left_numbers":[33,47,37,42,44,38,39,37,29,48],"right_numbers":[25,38,31,20,3,11,21,22,17,26],"points_earned":314,"phase":"task","trial_type":"horizons-task","trial_index":18,"time_elapsed":353558,"internal_node_id":"0.0-14.0","task_version":"0.2"},{"response_times":[571.4799999841489,597.4599999608472,640.480000001844,878.1050000106916,699.3450000300072,729.6199999982491,551.3649999629706,624.710000003688,412.5899999635294,413.7550000450574],"keys_pressed":["rightarrow","rightarrow","leftarrow","leftarrow","rightarrow","rightarrow","rightarrow","rightarrow","rightarrow","rightarrow"],"horizon":10,"forced_choices":["rightarrow","rightarrow","leftarrow","leftarrow"],"right_color":"orange","left_color":"lightblue","left_mu":60,"right_mu":90,"left_numbers":[60,67,53,59,65,51,53,56,55,61],"right_numbers":[74,99,95,91,80,90,86,88,90,76],"points_earned":795,"phase":"task","trial_type":"horizons-task","trial_index":19,"time_elapsed":361180,"internal_node_id":"0.0-15.0","task_version":"0.2"},{"response_times":[727.6399999973364,420.8399999770336,404.1950000100769,483.4250000421889,2473.6099999863654,1110.5450000031851,1161.309999995865,650.3349999547936,484.73999998532236,572.1849999972619],"keys_pressed":["rightarrow","rightarrow","leftarrow","leftarrow","leftarrow","rightarrow","rightarrow","leftarrow","rightarrow","leftarrow"],"horizon":10,"forced_choices":["rightarrow","rightarrow","leftarrow","leftarrow"],"right_color":"lightblue","left_color":"orange","left_mu":60,"right_mu":56,"left_numbers":[63,53,53,67,49,57,66,61,62,54],"right_numbers":[56,50,56,61,46,56,59,51,47,66],"points_earned":552,"phase":"task","trial_type":"horizons-task","trial_index":20,"time_elapsed":371174,"internal_node_id":"0.0-16.0","task_version":"0.2"},{"response_times":[692.4700000090525,377.6899999938905,317.42499995743856,415.29000003356487,1863.7200000230223],"keys_pressed":["rightarrow","leftarrow","rightarrow","leftarrow","leftarrow"],"horizon":5,"forced_choices":["rightarrow","leftarrow","rightarrow","leftarrow"],"right_color":"orange","left_color":"lightblue","left_mu":40,"right_mu":32,"left_numbers":[39,39,27,41,45],"right_numbers":[27,27,36,27,38],"points_earned":188,"phase":"task","trial_type":"horizons-task","trial_index":21,"time_elapsed":376348,"internal_node_id":"0.0-17.0","task_version":"0.2"},{"response_times":[827.3899999912828,398.68500002194196,307.17500002356246,461.829999985639,1853.6999999778345,525.7800000254065,799.6649999986403,1206.4050000044517,471.6249999473803,445.05999999819323],"keys_pressed":["leftarrow","rightarrow","leftarrow","rightarrow","leftarrow","rightarrow","leftarrow","rightarrow","rightarrow","rightarrow"],"horizon":10,"forced_choices":["leftarrow","rightarrow","leftarrow","rightarrow"],"right_color":"orange","left_color":"lightblue","left_mu":40,"right_mu":44,"left_numbers":[34,41,34,46,38,26,34,36,43,28],"right_numbers":[44,57,36,32,47,29,34,47,51,38],"points_earned":394,"phase":"task","trial_type":"horizons-task","trial_index":22,"time_elapsed":385150,"internal_node_id":"0.0-18.0","task_version":"0.2"},{"response_times":[876.1299999896437,480.3400000091642,1403.3899999922141,810.2850000141189,884.0849999687634],"keys_pressed":["leftarrow","rightarrow","rightarrow","rightarrow","leftarrow"],"horizon":5,"forced_choices":["leftarrow","rightarrow","rightarrow","rightarrow"],"right_color":"lightblue","left_color":"orange","left_mu":40,"right_mu":10,"left_numbers":[34,42,36,35,33],"right_numbers":[10,6,4,25,23],"points_earned":102,"phase":"task","trial_type":"horizons-task","trial_index":23,"time_elapsed":391108,"internal_node_id":"0.0-19.0","task_version":"0.2"},{"response_times":[33975.509999960195,380.159999942407,730.3749999846332,904.0600000298582,492.6349999732338],"keys_pressed":["rightarrow","leftarrow","leftarrow","leftarrow","rightarrow"],"horizon":5,"forced_choices":["rightarrow","leftarrow","leftarrow","leftarrow"],"right_color":"orange","left_color":"lightblue","left_mu":60,"right_mu":90,"left_numbers":[51,52,68,55,70],"right_numbers":[99,95,86,86,100],"points_earned":374,"phase":"task","trial_type":"horizons-task","trial_index":24,"time_elapsed":429093,"internal_node_id":"0.0-20.0","task_version":"0.2"},{"response_times":[917.2649999964051,351.77499998826534,649.2250000010245,1019.4849999970756,1350.319999968633],"keys_pressed":["rightarrow","leftarrow","rightarrow","rightarrow","leftarrow"],"horizon":5,"forced_choices":["rightarrow","leftarrow","rightarrow","rightarrow"],"right_color":"lightblue","left_color":"orange","left_mu":40,"right_mu":28,"left_numbers":[45,40,47,44,49],"right_numbers":[33,28,27,33,27],"points_earned":182,"phase":"task","trial_type":"horizons-task","trial_index":25,"time_elapsed":434884,"internal_node_id":"0.0-21.0","task_version":"0.2"},{"response_times":[874.7050000238232,452.3549999576062,549.0350000327453,514.0200000023469,876.8250000430271,417.42000001249835,374.5300000300631,892.4300000071526,484.0049999766052,252.84500000998378],"keys_pressed":["rightarrow","rightarrow","leftarrow","leftarrow","rightarrow","rightarrow","rightarrow","leftarrow","rightarrow","rightarrow"],"horizon":10,"forced_choices":["rightarrow","rightarrow","leftarrow","leftarrow"],"right_color":"lightblue","left_color":"orange","left_mu":60,"right_mu":80,"left_numbers":[53,78,56,56,60,57,57,49,39,72],"right_numbers":[80,82,74,79,82,62,74,88,76,65],"points_earned":682,"phase":"task","trial_type":"horizons-task","trial_index":26,"time_elapsed":442078,"internal_node_id":"0.0-22.0","task_version":"0.2"},{"response_times":[692.2250000061467,607.3800000012852,461.2199999974109,431.4750000485219,755.6900000199676],"keys_pressed":["rightarrow","leftarrow","leftarrow","rightarrow","leftarrow"],"horizon":5,"forced_choices":["rightarrow","leftarrow","leftarrow","rightarrow"],"right_color":"lightblue","left_color":"orange","left_mu":40,"right_mu":36,"left_numbers":[43,45,49,35,39],"right_numbers":[37,32,31,37,32],"points_earned":207,"phase":"task","trial_type":"horizons-task","trial_index":27,"time_elapsed":446531,"internal_node_id":"0.0-23.0","task_version":"0.2"},{"response_times":[672.1850000321865,473.1000000028871,412.60500001953915,391.475000011269,910.4449999867938],"keys_pressed":["leftarrow","leftarrow","rightarrow","leftarrow","leftarrow"],"horizon":5,"forced_choices":["leftarrow","leftarrow","rightarrow","leftarrow"],"right_color":"orange","left_color":"lightblue","left_mu":40,"right_mu":60,"left_numbers":[54,42,42,50,47],"right_numbers":[53,53,48,44,58],"points_earned":241,"phase":"task","trial_type":"horizons-task","trial_index":28,"time_elapsed":450895,"internal_node_id":"0.0-24.0","task_version":"0.2"},{"response_times":[549.605000007432,383.8050000485964,530.3350000176579,726.0050000040792,719.9299999629147],"keys_pressed":["leftarrow","rightarrow","rightarrow","leftarrow","rightarrow"],"horizon":5,"forced_choices":["leftarrow","rightarrow","rightarrow","leftarrow"],"right_color":"orange","left_color":"lightblue","left_mu":40,"right_mu":70,"left_numbers":[42,30,44,45,47],"right_numbers":[56,78,68,77,73],"points_earned":306,"phase":"task","trial_type":"horizons-task","trial_index":29,"time_elapsed":455308,"internal_node_id":"0.0-25.0","task_version":"0.2"},{"response_times":[782.9650000203401,446.9999999855645,454.07999999588355,434.03499998385087,1040.175000031013],"keys_pressed":["leftarrow","leftarrow","leftarrow","rightarrow","leftarrow"],"horizon":5,"forced_choices":["leftarrow","leftarrow","leftarrow","rightarrow"],"right_color":"orange","left_color":"lightblue","left_mu":40,"right_mu":48,"left_numbers":[34,30,45,38,28],"right_numbers":[34,37,53,43,62],"points_earned":180,"phase":"task","trial_type":"horizons-task","trial_index":30,"time_elapsed":459973,"internal_node_id":"0.0-26.0","task_version":"0.2"},{"response_times":[524.8049999936484,450.24999999441206,597.6300000329502,1002.7049999916926,1060.2200000430457],"keys_pressed":["leftarrow","rightarrow","rightarrow","leftarrow","leftarrow"],"horizon":5,"forced_choices":["leftarrow","rightarrow","rightarrow","leftarrow"],"right_color":"orange","left_color":"lightblue","left_mu":60,"right_mu":64,"left_numbers":[65,53,49,71,73],"right_numbers":[73,63,69,69,52],"points_earned":341,"phase":"task","trial_type":"horizons-task","trial_index":31,"time_elapsed":465115,"internal_node_id":"0.0-27.0","task_version":"0.2"},{"response_times":[743.6299999826588,460.16999997664243,499.58499998319894,584.1749999672174,510.71000000229105,583.6600000038743,1342.815000039991,891.52499998454,581.1850000172853,813.060000014957],"keys_pressed":["leftarrow","leftarrow","leftarrow","rightarrow","leftarrow","leftarrow","rightarrow","rightarrow","leftarrow","rightarrow"],"horizon":10,"forced_choices":["leftarrow","leftarrow","leftarrow","rightarrow"],"right_color":"orange","left_color":"lightblue","left_mu":40,"right_mu":48,"left_numbers":[44,59,28,53,48,40,40,40,36,47],"right_numbers":[52,55,42,50,43,43,45,27,49,52],"points_earned":429,"phase":"task","trial_type":"horizons-task","trial_index":32,"time_elapsed":473631,"internal_node_id":"0.0-28.0","task_version":"0.2"},{"response_times":[645.6349999643862,493.2600000174716,402.12000004248694,620.8049999549985,386.97999995201826,1555.4850000189617,897.6849999744445,783.5750000085682,377.21999996574596,187.35999998170882],"keys_pressed":["rightarrow","leftarrow","rightarrow","rightarrow","leftarrow","rightarrow","leftarrow","leftarrow","leftarrow","leftarrow"],"horizon":10,"forced_choices":["rightarrow","leftarrow","rightarrow","rightarrow"],"right_color":"lightblue","left_color":"orange","left_mu":40,"right_mu":28,"left_numbers":[44,38,48,41,36,42,42,36,41,39],"right_numbers":[28,31,34,30,14,28,38,29,32,34],"points_earned":352,"phase":"task","trial_type":"horizons-task","trial_index":33,"time_elapsed":481485,"internal_node_id":"0.0-29.0","task_version":"0.2"},{"response_times":[559.9700000020675,424.6949999942444,734.1100000194274,603.815000038594,1364.8449999745935,512.1700000017881,662.6049999613315,641.1149999476038,564.4949999987148,268.62500002607703],"keys_pressed":["leftarrow","leftarrow","rightarrow","rightarrow","rightarrow","leftarrow","rightarrow","rightarrow","rightarrow","rightarrow"],"horizon":10,"forced_choices":["leftarrow","leftarrow","rightarrow","rightarrow"],"right_color":"lightblue","left_color":"orange","left_mu":60,"right_mu":68,"left_numbers":[53,65,50,54,62,67,61,61,47,74],"right_numbers":[64,63,57,77,58,66,68,63,62,69],"points_earned":639,"phase":"task","trial_type":"horizons-task","trial_index":34,"time_elapsed":489324,"internal_node_id":"0.0-30.0","task_version":"0.2"},{"response_times":[812.9799999878742,444.19000000925735,574.3099999963306,738.4350000065751,649.1299999761395],"keys_pressed":["leftarrow","leftarrow","rightarrow","rightarrow","leftarrow"],"horizon":5,"forced_choices":["leftarrow","leftarrow","rightarrow","rightarrow"],"right_color":"lightblue","left_color":"orange","left_mu":60,"right_mu":30,"left_numbers":[56,49,43,59,62],"right_numbers":[12,27,38,15,31],"points_earned":220,"phase":"task","trial_type":"horizons-task","trial_index":35,"time_elapsed":494045,"internal_node_id":"0.0-31.0","task_version":"0.2"},{"response_times":[541.2699999869801,403.2349999761209,513.2600000360981,680.2299999981187,1155.8300000033341],"keys_pressed":["leftarrow","rightarrow","leftarrow","leftarrow","leftarrow"],"horizon":5,"forced_choices":["leftarrow","rightarrow","leftarrow","leftarrow"],"right_color":"orange","left_color":"lightblue","left_mu":40,"right_mu":32,"left_numbers":[51,45,39,40,44],"right_numbers":[29,27,43,35,31],"points_earned":201,"phase":"task","trial_type":"horizons-task","trial_index":36,"time_elapsed":498841,"internal_node_id":"0.0-32.0","task_version":"0.2"},{"response_times":[657.1300000068732,476.859999995213,455.91499999864027,614.289999997709,468.5450000106357],"keys_pressed":["rightarrow","rightarrow","leftarrow","leftarrow","rightarrow"],"horizon":5,"forced_choices":["rightarrow","rightarrow","leftarrow","leftarrow"],"right_color":"lightblue","left_color":"orange","left_mu":60,"right_mu":56,"left_numbers":[52,52,59,54,49],"right_numbers":[63,53,55,57,55],"points_earned":284,"phase":"task","trial_type":"horizons-task","trial_index":37,"time_elapsed":503040,"internal_node_id":"0.0-33.0","task_version":"0.2"},{"response_times":[670.0500000151806,474.44000001996756,483.61500003375113,852.3500000010245,778.1050000339746],"keys_pressed":["leftarrow","leftarrow","rightarrow","rightarrow","leftarrow"],"horizon":5,"forced_choices":["leftarrow","leftarrow","rightarrow","rightarrow"],"right_color":"orange","left_color":"lightblue","left_mu":40,"right_mu":48,"left_numbers":[39,29,36,44,44],"right_numbers":[40,59,32,40,43],"points_earned":184,"phase":"task","trial_type":"horizons-task","trial_index":38,"time_elapsed":507802,"internal_node_id":"0.0-34.0","task_version":"0.2"},{"response_times":[545.395000022836,389.98999999603257,539.5850000204518,766.2150000105612,907.9599999822676],"keys_pressed":["leftarrow","leftarrow","rightarrow","leftarrow","leftarrow"],"horizon":5,"forced_choices":["leftarrow","leftarrow","rightarrow","leftarrow"],"right_color":"lightblue","left_color":"orange","left_mu":60,"right_mu":56,"left_numbers":[51,58,54,67,63],"right_numbers":[65,39,52,56,61],"points_earned":291,"phase":"task","trial_type":"horizons-task","trial_index":39,"time_elapsed":512455,"internal_node_id":"0.0-35.0","task_version":"0.2"},{"response_times":[723.2949999743141,580.8400000096299,331.1849999590777,389.28000000305474,1118.5100000002421,364.7299999720417,299.2649999796413,234.28500001318753,168.85499999625608,172.22500004572794],"keys_pressed":["rightarrow","leftarrow","rightarrow","leftarrow","leftarrow","leftarrow","leftarrow","leftarrow","leftarrow","leftarrow"],"horizon":10,"forced_choices":["rightarrow","leftarrow","rightarrow","leftarrow"],"right_color":"orange","left_color":"lightblue","left_mu":60,"right_mu":40,"left_numbers":[66,65,54,93,58,63,62,52,66,56],"right_numbers":[38,33,45,37,46,36,33,22,26,49],"points_earned":598,"phase":"task","trial_type":"horizons-task","trial_index":40,"time_elapsed":518340,"internal_node_id":"0.0-36.0","task_version":"0.2"},{"response_times":[624.8949999571778,480.6150000076741,661.8000000016764,505.17499999841675,1458.8649999932386,600.7400000235066,1158.309999969788,951.8650000100024,510.3099999832921,389.78500000666827],"keys_pressed":["leftarrow","rightarrow","rightarrow","rightarrow","leftarrow","leftarrow","rightarrow","rightarrow","leftarrow","leftarrow"],"horizon":10,"forced_choices":["leftarrow","rightarrow","rightarrow","rightarrow"],"right_color":"lightblue","left_color":"orange","left_mu":60,"right_mu":52,"left_numbers":[61,57,47,59,59,55,66,58,67,56],"right_numbers":[45,59,45,33,53,49,47,41,67,46],"points_earned":523,"phase":"task","trial_type":"horizons-task","trial_index":41,"time_elapsed":527187,"internal_node_id":"0.0-37.0","task_version":"0.2"},{"response_times":[660.3150000446476,449.8400000156835,379.4949999428354,501.9249999895692,2355.969999975059,499.78999997256324,437.8300000098534,403.6949999863282,491.3099999539554,429.050000035204],"keys_pressed":["rightarrow","rightarrow","leftarrow","rightarrow","leftarrow","leftarrow","rightarrow","rightarrow","leftarrow","leftarrow"],"horizon":10,"forced_choices":["rightarrow","rightarrow","leftarrow","rightarrow"],"right_color":"lightblue","left_color":"orange","left_mu":40,"right_mu":36,"left_numbers":[52,38,33,45,44,40,40,29,23,31],"right_numbers":[27,51,23,22,40,19,41,27,36,27],"points_earned":339,"phase":"task","trial_type":"horizons-task","trial_index":42,"time_elapsed":535783,"internal_node_id":"0.0-38.0","task_version":"0.2"},{"response_times":[25426.304999971762,386.7300000274554,473.035000031814,420.1899999752641,451.63000002503395,642.3049999866635,634.554999996908,467.01500000199303,251.27499998779967,172.5950000109151],"keys_pressed":["rightarrow","rightarrow","leftarrow","rightarrow","leftarrow","leftarrow","rightarrow","leftarrow","leftarrow","leftarrow"],"horizon":10,"forced_choices":["rightarrow","rightarrow","leftarrow","rightarrow"],"right_color":"orange","left_color":"lightblue","left_mu":60,"right_mu":40,"left_numbers":[56,54,60,72,56,51,54,70,67,52],"right_numbers":[29,40,41,54,24,32,43,44,24,38],"points_earned":522,"phase":"task","trial_type":"horizons-task","trial_index":43,"time_elapsed":566613,"internal_node_id":"0.0-39.0","task_version":"0.2"},{"response_times":[621.0100000025705,376.99000001884997,614.4399999757297,395.54499997757375,712.4950000434183,200.50999999511987,162.57000004407018,159.7499999916181,160.48999998020008,157.80500002438203],"keys_pressed":["leftarrow","leftarrow","rightarrow","leftarrow","leftarrow","leftarrow","leftarrow","leftarrow","leftarrow","leftarrow"],"horizon":10,"forced_choices":["leftarrow","leftarrow","rightarrow","leftarrow"],"right_color":"lightblue","left_color":"orange","left_mu":60,"right_mu":30,"left_numbers":[57,41,58,51,65,66,67,67,50,47],"right_numbers":[32,36,20,16,27,28,8,26,28,27],"points_earned":531,"phase":"task","trial_type":"horizons-task","trial_index":44,"time_elapsed":571681,"internal_node_id":"0.0-40.0","task_version":"0.2"},{"response_times":[474.03500002110377,372.06999998306856,767.664999992121,636.3550000241958,525.4049999639392,179.16500003775582,157.88000001339242,167.81499999342486,170.75499997008592,156.85999998822808],"keys_pressed":["leftarrow","rightarrow","rightarrow","rightarrow","rightarrow","rightarrow","rightarrow","rightarrow","rightarrow","rightarrow"],"horizon":10,"forced_choices":["leftarrow","rightarrow","rightarrow","rightarrow"],"right_color":"lightblue","left_color":"orange","left_mu":60,"right_mu":72,"left_numbers":[57,64,63,67,56,60,64,61,53,58],"right_numbers":[82,73,84,79,89,66,80,89,78,68],"points_earned":763,"phase":"task","trial_type":"horizons-task","trial_index":45,"time_elapsed":576793,"internal_node_id":"0.0-41.0","task_version":"0.2"},{"response_times":[596.9150000018999,368.97000001044944,547.0750000094995,649.425000010524,522.1049999818206,786.9250000221655,230.8249999769032,187.67499999376014,177.24500002805144,181.0950000071898],"keys_pressed":["rightarrow","rightarrow","rightarrow","leftarrow","leftarrow","rightarrow","rightarrow","rightarrow","rightarrow","rightarrow"],"horizon":10,"forced_choices":["rightarrow","rightarrow","rightarrow","leftarrow"],"right_color":"orange","left_color":"lightblue","left_mu":60,"right_mu":64,"left_numbers":[53,50,50,47,64,68,73,59,71,59],"right_numbers":[79,65,71,61,60,63,59,58,77,67],"points_earned":650,"phase":"task","trial_type":"horizons-task","trial_index":46,"time_elapsed":582544,"internal_node_id":"0.0-42.0","task_version":"0.2"},{"response_times":[673.1499999877997,561.5400000242516,514.00000002468,462.4049999983981,607.369999983348],"keys_pressed":["rightarrow","leftarrow","leftarrow","rightarrow","rightarrow"],"horizon":5,"forced_choices":["rightarrow","leftarrow","leftarrow","rightarrow"],"right_color":"orange","left_color":"lightblue","left_mu":40,"right_mu":52,"left_numbers":[50,26,29,59,47],"right_numbers":[54,60,53,44,43],"points_earned":196,"phase":"task","trial_type":"horizons-task","trial_index":47,"time_elapsed":586867,"internal_node_id":"0.0-43.0","task_version":"0.2"},{"response_times":[594.4149999995716,411.8550000130199,629.9400000134483,998.5150000429712,569.6549999993294],"keys_pressed":["rightarrow","rightarrow","leftarrow","rightarrow","rightarrow"],"horizon":5,"forced_choices":["rightarrow","rightarrow","leftarrow","rightarrow"],"right_color":"orange","left_color":"lightblue","left_mu":40,"right_mu":70,"left_numbers":[33,44,51,47,38],"right_numbers":[55,57,76,79,74],"points_earned":316,"phase":"task","trial_type":"horizons-task","trial_index":48,"time_elapsed":591582,"internal_node_id":"0.0-44.0","task_version":"0.2"},{"response_times":[479.50500005390495,435.23000000277534,883.5899999830872,940.4549999744631,785.7000000076368],"keys_pressed":["rightarrow","rightarrow","leftarrow","rightarrow","leftarrow"],"horizon":5,"forced_choices":["rightarrow","rightarrow","leftarrow","rightarrow"],"right_color":"lightblue","left_color":"orange","left_mu":40,"right_mu":36,"left_numbers":[32,41,40,44,37],"right_numbers":[39,36,34,32,37],"points_earned":184,"phase":"task","trial_type":"horizons-task","trial_index":49,"time_elapsed":596610,"internal_node_id":"0.0-45.0","task_version":"0.2"},{"response_times":[656.8199999746867,545.2999999979511,520.1249999809079,605.6899999966845,508.1550000468269],"keys_pressed":["leftarrow","rightarrow","rightarrow","rightarrow","leftarrow"],"horizon":5,"forced_choices":["leftarrow","rightarrow","rightarrow","rightarrow"],"right_color":"lightblue","left_color":"orange","left_mu":60,"right_mu":52,"left_numbers":[61,62,68,54,75],"right_numbers":[47,40,46,49,50],"points_earned":271,"phase":"task","trial_type":"horizons-task","trial_index":50,"time_elapsed":600951,"internal_node_id":"0.0-46.0","task_version":"0.2"},{"view_history":"[{\"page_index\":0,\"viewing_time\":114238.229999959},{\"page_index\":1,\"viewing_time\":2365.909999993164}]","rt":116605.52499996265,"trial_type":"instructions","trial_index":51,"time_elapsed":717558,"internal_node_id":"0.0-47.0","task_version":"0.2"},{"response_times":[654.9550000345334,424.4450000114739,455.8650000253692,700.6699999910779,1369.4399999803863,421.12000001361594,368.71999996947125,815.5649999971502,891.1749999970198,1282.7249999972992],"keys_pressed":["leftarrow","rightarrow","rightarrow","leftarrow","leftarrow","leftarrow","rightarrow","rightarrow","rightarrow","rightarrow"],"horizon":10,"forced_choices":["leftarrow","rightarrow","rightarrow","leftarrow"],"right_color":"orange","left_color":"lightblue","left_mu":60,"right_mu":64,"left_numbers":[49,71,55,72,66,62,63,57,68,73],"right_numbers":[68,64,61,55,71,60,68,74,65,65],"points_earned":646,"phase":"task","trial_type":"horizons-task","trial_index":52,"time_elapsed":726459,"internal_node_id":"0.0-48.0","task_version":"0.2"},{"response_times":[570.5999999772757,524.7000000090338,497.52999999327585,736.1550000496209,951.2050000485033],"keys_pressed":["leftarrow","leftarrow","rightarrow","rightarrow","rightarrow"],"horizon":5,"forced_choices":["leftarrow","leftarrow","rightarrow","rightarrow"],"right_color":"lightblue","left_color":"orange","left_mu":60,"right_mu":68,"left_numbers":[54,64,61,63,62],"right_numbers":[63,74,61,75,48],"points_earned":302,"phase":"task","trial_type":"horizons-task","trial_index":53,"time_elapsed":731242,"internal_node_id":"0.0-49.0","task_version":"0.2"},{"response_times":[534.4049999839626,416.0799999954179,452.63499999418855,474.98499997891486,1174.8849999858066,556.6349999862723,843.0500000249594,391.26499998383224,467.81499998178333,452.3150000022724],"keys_pressed":["rightarrow","rightarrow","rightarrow","leftarrow","rightarrow","rightarrow","leftarrow","rightarrow","rightarrow","rightarrow"],"horizon":10,"forced_choices":["rightarrow","rightarrow","rightarrow","leftarrow"],"right_color":"lightblue","left_color":"orange","left_mu":60,"right_mu":68,"left_numbers":[61,66,64,48,78,68,47,67,61,60],"right_numbers":[72,69,65,67,61,85,74,72,46,71],"points_earned":636,"phase":"task","trial_type":"horizons-task","trial_index":54,"time_elapsed":738509,"internal_node_id":"0.0-50.0","task_version":"0.2"},{"response_times":[491.2100000074133,444.8349999729544,654.370000003837,577.4900000542402,444.6050000260584],"keys_pressed":["rightarrow","rightarrow","leftarrow","leftarrow","rightarrow"],"horizon":5,"forced_choices":["rightarrow","rightarrow","leftarrow","leftarrow"],"right_color":"orange","left_color":"lightblue","left_mu":60,"right_mu":90,"left_numbers":[62,62,70,63,62],"right_numbers":[95,93,74,83,89],"points_earned":410,"phase":"task","trial_type":"horizons-task","trial_index":55,"time_elapsed":742626,"internal_node_id":"0.0-51.0","task_version":"0.2"},{"response_times":[721.7700000037439,420.7149999565445,477.1949999849312,414.6900000050664,934.1649999842048,473.53499999735504,581.5599999623373,409.2800000216812,535.4850000003353,389.39500000560656],"keys_pressed":["leftarrow","rightarrow","rightarrow","leftarrow","rightarrow","rightarrow","leftarrow","rightarrow","rightarrow","rightarrow"],"horizon":10,"forced_choices":["leftarrow","rightarrow","rightarrow","leftarrow"],"right_color":"orange","left_color":"lightblue","left_mu":40,"right_mu":70,"left_numbers":[34,41,40,56,19,38,41,28,46,50],"right_numbers":[75,73,73,69,66,54,69,60,64,57],"points_earned":578,"phase":"task","trial_type":"horizons-task","trial_index":56,"time_elapsed":749486,"internal_node_id":"0.0-52.0","task_version":"0.2"},{"response_times":[678.989999985788,396.91499999025837,507.80000002123415,635.8450000407174,881.9749999674968],"keys_pressed":["rightarrow","rightarrow","leftarrow","rightarrow","leftarrow"],"horizon":5,"forced_choices":["rightarrow","rightarrow","leftarrow","rightarrow"],"right_color":"orange","left_color":"lightblue","left_mu":60,"right_mu":40,"left_numbers":[52,54,57,67,50],"right_numbers":[42,36,46,33,29],"points_earned":218,"phase":"task","trial_type":"horizons-task","trial_index":57,"time_elapsed":754091,"internal_node_id":"0.0-53.0","task_version":"0.2"},{"response_times":[500.1050000428222,494.43500000052154,816.9849999831058,807.8100000275299,592.3449999536388],"keys_pressed":["rightarrow","leftarrow","rightarrow","leftarrow","leftarrow"],"horizon":5,"forced_choices":["rightarrow","leftarrow","rightarrow","leftarrow"],"right_color":"orange","left_color":"lightblue","left_mu":60,"right_mu":40,"left_numbers":[44,63,69,50,56],"right_numbers":[32,32,41,45,44],"points_earned":242,"phase":"task","trial_type":"horizons-task","trial_index":58,"time_elapsed":758807,"internal_node_id":"0.0-54.0","task_version":"0.2"},{"response_times":[707.1700000087731,407.21499995561317,513.5949999676086,717.5750000169501,648.0650000157766,544.7549999807961,538.5849999729544,962.6249999855645,634.4950000056997,424.5949999894947],"keys_pressed":["leftarrow","leftarrow","rightarrow","leftarrow","rightarrow","rightarrow","leftarrow","rightarrow","rightarrow","rightarrow"],"horizon":10,"forced_choices":["leftarrow","leftarrow","rightarrow","leftarrow"],"right_color":"orange","left_color":"lightblue","left_mu":40,"right_mu":60,"left_numbers":[40,43,45,38,36,41,48,35,39,39],"right_numbers":[51,72,58,57,69,62,57,63,72,59],"points_earned":552,"phase":"task","trial_type":"horizons-task","trial_index":59,"time_elapsed":766413,"internal_node_id":"0.0-55.0","task_version":"0.2"},{"response_times":[15102.060000004712,419.4399999687448,585.6500000227243,693.3399999979883,959.1899999650195,512.9200000083074,412.29999996721745,476.23500000918284,704.825000022538,245.59000000590459],"keys_pressed":["leftarrow","rightarrow","leftarrow","rightarrow","leftarrow","leftarrow","rightarrow","rightarrow","rightarrow","rightarrow"],"horizon":10,"forced_choices":["leftarrow","rightarrow","leftarrow","rightarrow"],"right_color":"lightblue","left_color":"orange","left_mu":60,"right_mu":72,"left_numbers":[56,45,72,56,62,55,65,64,46,48],"right_numbers":[70,65,83,69,64,58,74,70,68,74],"points_earned":665,"phase":"task","trial_type":"horizons-task","trial_index":60,"time_elapsed":788028,"internal_node_id":"0.0-56.0","task_version":"0.2"},{"response_times":[538.135000038892,876.250000030268,545.125000004191,650.5849999957718,656.8499999702908],"keys_pressed":["rightarrow","rightarrow","rightarrow","leftarrow","rightarrow"],"horizon":5,"forced_choices":["rightarrow","rightarrow","rightarrow","leftarrow"],"right_color":"lightblue","left_color":"orange","left_mu":60,"right_mu":68,"left_numbers":[62,39,65,55,59],"right_numbers":[59,74,72,63,58],"points_earned":318,"phase":"task","trial_type":"horizons-task","trial_index":61,"time_elapsed":792800,"internal_node_id":"0.0-57.0","task_version":"0.2"},{"response_times":[605.1399999996647,445.8750000339933,525.0649999943562,522.7550000417978,470.55999998701736,507.6099999714643,442.2400000039488,260.84499998250976,263.54999997420236,220.07999999914318],"keys_pressed":["rightarrow","leftarrow","leftarrow","leftarrow","rightarrow","rightarrow","rightarrow","rightarrow","rightarrow","rightarrow"],"horizon":10,"forced_choices":["rightarrow","leftarrow","leftarrow","leftarrow"],"right_color":"orange","left_color":"lightblue","left_mu":60,"right_mu":90,"left_numbers":[60,73,59,68,63,49,62,70,49,75],"right_numbers":[83,90,99,91,82,94,87,87,76,86],"points_earned":795,"phase":"task","trial_type":"horizons-task","trial_index":62,"time_elapsed":798785,"internal_node_id":"0.0-58.0","task_version":"0.2"},{"response_times":[85587.32499997132,1355.0699999905191,573.6199999810196,519.5299999904819,694.469999987632,292.4149999744259,194.05500002903864,177.8700000140816,146.13499998813495,446.95000001229346],"keys_pressed":["leftarrow","leftarrow","rightarrow","rightarrow","leftarrow","leftarrow","leftarrow","leftarrow","leftarrow","leftarrow"],"horizon":10,"forced_choices":["leftarrow","leftarrow","rightarrow","rightarrow"],"right_color":"lightblue","left_color":"orange","left_mu":60,"right_mu":30,"left_numbers":[55,47,63,74,61,67,68,56,65,59],"right_numbers":[27,29,15,30,32,27,42,33,21,28],"points_earned":523,"phase":"task","trial_type":"horizons-task","trial_index":63,"time_elapsed":890276,"internal_node_id":"0.0-59.0","task_version":"0.2"},{"response_times":[495.86500000441447,418.47500001313165,457.6200000010431,574.1799999959767,794.0650000236928],"keys_pressed":["leftarrow","rightarrow","rightarrow","rightarrow","rightarrow"],"horizon":5,"forced_choices":["leftarrow","rightarrow","rightarrow","rightarrow"],"right_color":"lightblue","left_color":"orange","left_mu":60,"right_mu":72,"left_numbers":[63,65,74,48,73],"right_numbers":[60,73,59,73,70],"points_earned":338,"phase":"task","trial_type":"horizons-task","trial_index":64,"time_elapsed":894522,"internal_node_id":"0.0-60.0","task_version":"0.2"},{"response_times":[491.9450000161305,385.2849999675527,733.9200000278652,479.6349999960512,533.995000005234],"keys_pressed":["leftarrow","rightarrow","leftarrow","rightarrow","rightarrow"],"horizon":5,"forced_choices":["leftarrow","rightarrow","leftarrow","rightarrow"],"right_color":"lightblue","left_color":"orange","left_mu":60,"right_mu":72,"left_numbers":[46,57,52,56,74],"right_numbers":[67,65,76,71,87],"points_earned":321,"phase":"task","trial_type":"horizons-task","trial_index":65,"time_elapsed":898652,"internal_node_id":"0.0-61.0","task_version":"0.2"},{"response_times":[546.5799999656156,404.2050000280142,534.5999999553896,409.98499997658655,931.6550000221469],"keys_pressed":["leftarrow","rightarrow","leftarrow","rightarrow","leftarrow"],"horizon":5,"forced_choices":["leftarrow","rightarrow","leftarrow","rightarrow"],"right_color":"orange","left_color":"lightblue","left_mu":40,"right_mu":44,"left_numbers":[47,44,30,54,31],"right_numbers":[47,29,35,36,50],"points_earned":173,"phase":"task","trial_type":"horizons-task","trial_index":66,"time_elapsed":903785,"internal_node_id":"0.0-62.0","task_version":"0.2"},{"response_times":[3579.3350000167266,464.50499998172745,483.60999999567866,538.3750000037253,562.8850000211969,478.68000000016764,400.29499999945983,503.7700000102632,447.4099999642931,318.15999996615574],"keys_pressed":["rightarrow","leftarrow","leftarrow","leftarrow","rightarrow","rightarrow","leftarrow","rightarrow","rightarrow","rightarrow"],"horizon":10,"forced_choices":["rightarrow","leftarrow","leftarrow","leftarrow"],"right_color":"orange","left_color":"lightblue","left_mu":40,"right_mu":44,"left_numbers":[38,40,39,34,40,47,35,48,27,46],"right_numbers":[46,54,41,46,39,38,41,53,37,44],"points_earned":405,"phase":"task","trial_type":"horizons-task","trial_index":67,"time_elapsed":913064,"internal_node_id":"0.0-63.0","task_version":"0.2"},{"response_times":[353.27000002143905,426.51000001933426,536.2500000046566,380.2949999808334,352.54000005079433],"keys_pressed":["rightarrow","leftarrow","rightarrow","rightarrow","rightarrow"],"horizon":5,"forced_choices":["rightarrow","leftarrow","rightarrow","rightarrow"],"right_color":"lightblue","left_color":"orange","left_mu":60,"right_mu":80,"left_numbers":[61,51,59,59,71],"right_numbers":[97,85,76,68,75],"points_earned":367,"phase":"task","trial_type":"horizons-task","trial_index":68,"time_elapsed":916616,"internal_node_id":"0.0-64.0","task_version":"0.2"},{"response_times":[596.2850000360049,517.8900000173599,605.440000013914,370.2049999847077,764.8300000000745,800.0900000333786,330.965000030119,190.04000001586974,195.39499998791143,189.50999999651685],"keys_pressed":["rightarrow","leftarrow","leftarrow","rightarrow","rightarrow","rightarrow","rightarrow","rightarrow","rightarrow","rightarrow"],"horizon":10,"forced_choices":["rightarrow","leftarrow","leftarrow","rightarrow"],"right_color":"orange","left_color":"lightblue","left_mu":40,"right_mu":60,"left_numbers":[34,41,43,28,40,47,33,54,34,40],"right_numbers":[43,67,72,63,69,63,67,63,79,67],"points_earned":598,"phase":"task","trial_type":"horizons-task","trial_index":69,"time_elapsed":922680,"internal_node_id":"0.0-65.0","task_version":"0.2"},{"response_times":[488.4849999798462,393.95499997772276,522.289999993518,383.5700000054203,659.5349999843165,489.6400000434369,379.63999999919906,266.2949999794364,253.84499999927357,261.6450000205077],"keys_pressed":["rightarrow","leftarrow","leftarrow","rightarrow","rightarrow","leftarrow","leftarrow","leftarrow","leftarrow","leftarrow"],"horizon":10,"forced_choices":["rightarrow","leftarrow","leftarrow","rightarrow"],"right_color":"orange","left_color":"lightblue","left_mu":40,"right_mu":20,"left_numbers":[27,45,47,45,48,43,26,48,43,42],"right_numbers":[10,16,20,7,5,37,14,0,15,18],"points_earned":316,"phase":"task","trial_type":"horizons-task","trial_index":70,"time_elapsed":928284,"internal_node_id":"0.0-66.0","task_version":"0.2"},{"response_times":[525.229999970179,372.98500002361834,366.2250000052154,376.6600000089966,1249.4299999671057,310.43000001227483,456.2949999817647,483.2049999968149,643.7450000084937,240.25000003166497],"keys_pressed":["rightarrow","leftarrow","rightarrow","leftarrow","leftarrow","rightarrow","leftarrow","rightarrow","leftarrow","rightarrow"],"horizon":10,"forced_choices":["rightarrow","leftarrow","rightarrow","leftarrow"],"right_color":"orange","left_color":"lightblue","left_mu":40,"right_mu":32,"left_numbers":[48,39,34,44,36,39,21,31,40,32],"right_numbers":[35,32,11,48,26,26,37,41,23,40],"points_earned":333,"phase":"task","trial_type":"horizons-task","trial_index":71,"time_elapsed":934814,"internal_node_id":"0.0-67.0","task_version":"0.2"},{"response_times":[714.5449999952689,676.3250000076368,428.95999999018386,384.2850000364706,369.4050000049174,484.53999997582287,296.18000000482425,459.09999997820705,322.24999996833503,228.0449999962002],"keys_pressed":["rightarrow","leftarrow","leftarrow","rightarrow","leftarrow","leftarrow","rightarrow","leftarrow","leftarrow","leftarrow"],"horizon":10,"forced_choices":["rightarrow","leftarrow","leftarrow","rightarrow"],"right_color":"lightblue","left_color":"orange","left_mu":40,"right_mu":36,"left_numbers":[45,57,40,35,45,43,23,39,34,35],"right_numbers":[27,39,33,30,34,36,26,40,34,41],"points_earned":376,"phase":"task","trial_type":"horizons-task","trial_index":72,"time_elapsed":940683,"internal_node_id":"0.0-68.0","task_version":"0.2"},{"response_times":[517.0400000060908,351.7400000127964,883.1249999930151,666.7750000488013,320.45499997911975,697.26000004448,463.5349999880418,268.68500001728535,212.76500000385568,199.91999998455867],"keys_pressed":["rightarrow","leftarrow","leftarrow","leftarrow","rightarrow","leftarrow","rightarrow","rightarrow","rightarrow","rightarrow"],"horizon":10,"forced_choices":["rightarrow","leftarrow","leftarrow","leftarrow"],"right_color":"orange","left_color":"lightblue","left_mu":40,"right_mu":52,"left_numbers":[23,25,54,29,41,48,36,48,44,41],"right_numbers":[72,54,61,47,60,34,51,45,49,57],"points_earned":490,"phase":"task","trial_type":"horizons-task","trial_index":73,"time_elapsed":946766,"internal_node_id":"0.0-69.0","task_version":"0.2"},{"response_times":[481.21500003617257,372.59500002255663,343.36500003701076,875.9199999622069,398.6649999860674,572.3799999686889,476.62000003037974,419.2250000196509,441.33500003954396,409.1950000147335],"keys_pressed":["leftarrow","rightarrow","leftarrow","leftarrow","rightarrow","leftarrow","rightarrow","leftarrow","leftarrow","leftarrow"],"horizon":10,"forced_choices":["leftarrow","rightarrow","leftarrow","leftarrow"],"right_color":"orange","left_color":"lightblue","left_mu":40,"right_mu":32,"left_numbers":[26,52,28,34,45,35,23,52,39,48],"right_numbers":[28,30,30,29,35,38,28,37,35,24],"points_earned":355,"phase":"task","trial_type":"horizons-task","trial_index":74,"time_elapsed":953062,"internal_node_id":"0.0-70.0","task_version":"0.2"},{"response_times":[618.8550000078976,447.21000001300126,721.9550000154413,915.0249999947846,1434.8699999973178],"keys_pressed":["rightarrow","leftarrow","leftarrow","leftarrow","rightarrow"],"horizon":5,"forced_choices":["rightarrow","leftarrow","leftarrow","leftarrow"],"right_color":"orange","left_color":"lightblue","left_mu":40,"right_mu":44,"left_numbers":[29,38,44,44,32],"right_numbers":[49,43,40,41,35],"points_earned":210,"phase":"task","trial_type":"horizons-task","trial_index":75,"time_elapsed":958702,"internal_node_id":"0.0-71.0","task_version":"0.2"},{"response_times":[607.3200000100769,382.4799999711104,555.4700000211596,347.1750000026077,881.5900000045076],"keys_pressed":["leftarrow","rightarrow","rightarrow","leftarrow","rightarrow"],"horizon":5,"forced_choices":["leftarrow","rightarrow","rightarrow","leftarrow"],"right_color":"lightblue","left_color":"orange","left_mu":60,"right_mu":48,"left_numbers":[50,52,52,46,69],"right_numbers":[61,34,53,55,40],"points_earned":223,"phase":"task","trial_type":"horizons-task","trial_index":76,"time_elapsed":962979,"internal_node_id":"0.0-72.0","task_version":"0.2"},{"response_times":[604.239999956917,414.7450000164099,539.3749999930151,431.9499999983236,1320.7099999999627,722.040000022389,201.4849999686703,217.88499999092892,207.89000001968816,185.2550000185147],"keys_pressed":["leftarrow","leftarrow","leftarrow","rightarrow","rightarrow","rightarrow","leftarrow","leftarrow","leftarrow","leftarrow"],"horizon":10,"forced_choices":["leftarrow","leftarrow","leftarrow","rightarrow"],"right_color":"orange","left_color":"lightblue","left_mu":40,"right_mu":20,"left_numbers":[38,45,45,39,51,35,54,34,34,32],"right_numbers":[21,27,24,31,18,31,13,39,20,20],"points_earned":362,"phase":"task","trial_type":"horizons-task","trial_index":77,"time_elapsed":969330,"internal_node_id":"0.0-73.0","task_version":"0.2"},{"response_times":[633.6699999519624,448.1000000378117,480.0950000062585,696.5000000200234,508.365000016056],"keys_pressed":["rightarrow","leftarrow","leftarrow","rightarrow","leftarrow"],"horizon":5,"forced_choices":["rightarrow","leftarrow","leftarrow","rightarrow"],"right_color":"orange","left_color":"lightblue","left_mu":40,"right_mu":20,"left_numbers":[57,36,32,37,39],"right_numbers":[17,18,22,17,21],"points_earned":141,"phase":"task","trial_type":"horizons-task","trial_index":78,"time_elapsed":973602,"internal_node_id":"0.0-74.0","task_version":"0.2"},{"response_times":[589.4100000150502,655.8049999875948,503.774999990128,1198.6649999744259,1000.1800000318326],"keys_pressed":["rightarrow","rightarrow","rightarrow","leftarrow","rightarrow"],"horizon":5,"forced_choices":["rightarrow","rightarrow","rightarrow","leftarrow"],"right_color":"orange","left_color":"lightblue","left_mu":60,"right_mu":64,"left_numbers":[75,67,52,61,58],"right_numbers":[68,61,65,61,63],"points_earned":318,"phase":"task","trial_type":"horizons-task","trial_index":79,"time_elapsed":979056,"internal_node_id":"0.0-75.0","task_version":"0.2"},{"response_times":[693.5899999807589,574.5699999970384,607.625000004191,448.2049999642186,869.13500004448,368.11499996110797,471.02499997708946,218.14000001177192,202.92999997036532,190.47500001033768],"keys_pressed":["leftarrow","rightarrow","leftarrow","leftarrow","rightarrow","leftarrow","leftarrow","leftarrow","leftarrow","leftarrow"],"horizon":10,"forced_choices":["leftarrow","rightarrow","leftarrow","leftarrow"],"right_color":"lightblue","left_color":"orange","left_mu":60,"right_mu":48,"left_numbers":[61,53,42,69,73,63,50,46,56,73],"right_numbers":[50,49,49,59,53,55,43,40,40,55],"points_earned":562,"phase":"task","trial_type":"horizons-task","trial_index":80,"time_elapsed":985205,"internal_node_id":"0.0-76.0","task_version":"0.2"},{"response_times":[628.2549999887124,355.63500004354864,550.7849999703467,519.1950000007637,354.64000003412366,264.68999998178333,218.11000001616776,209.88500001840293,206.60999999381602,204.27499996731058],"keys_pressed":["rightarrow","leftarrow","rightarrow","leftarrow","leftarrow","leftarrow","leftarrow","leftarrow","leftarrow","leftarrow"],"horizon":10,"forced_choices":["rightarrow","leftarrow","rightarrow","leftarrow"],"right_color":"lightblue","left_color":"orange","left_mu":60,"right_mu":52,"left_numbers":[41,63,56,62,56,61,68,57,77,51],"right_numbers":[40,44,39,52,58,50,53,48,44,62],"points_earned":574,"phase":"task","trial_type":"horizons-task","trial_index":81,"time_elapsed":990222,"internal_node_id":"0.0-77.0","task_version":"0.2"},{"response_times":[571.6700000339188,431.1699999962002,664.4850000157021,481.1699999845587,494.3650000495836,560.704999952577,228.42499997932464,191.42500002635643,201.15000003715977,191.24000001465902],"keys_pressed":["leftarrow","rightarrow","rightarrow","rightarrow","leftarrow","leftarrow","leftarrow","leftarrow","leftarrow","leftarrow"],"horizon":10,"forced_choices":["leftarrow","rightarrow","rightarrow","rightarrow"],"right_color":"lightblue","left_color":"orange","left_mu":40,"right_mu":10,"left_numbers":[32,46,35,47,40,35,50,38,33,34],"right_numbers":[22,13,11,9,24,7,19,1,0,8],"points_earned":295,"phase":"task","trial_type":"horizons-task","trial_index":82,"time_elapsed":995743,"internal_node_id":"0.0-78.0","task_version":"0.2"},{"response_times":[577.869999979157,388.1899999687448,762.5100000295788,708.1550000002608,773.3449999941513,278.4150000079535,172.73500002920628,202.57000002311543,198.91000003553927,172.82999999588355],"keys_pressed":["rightarrow","rightarrow","leftarrow","rightarrow","rightarrow","rightarrow","rightarrow","rightarrow","rightarrow","rightarrow"],"horizon":10,"forced_choices":["rightarrow","rightarrow","leftarrow","rightarrow"],"right_color":"orange","left_color":"lightblue","left_mu":40,"right_mu":70,"left_numbers":[25,36,32,27,33,45,31,44,42,38],"right_numbers":[67,71,67,69,59,59,83,70,72,90],"points_earned":672,"phase":"task","trial_type":"horizons-task","trial_index":83,"time_elapsed":1001483,"internal_node_id":"0.0-79.0","task_version":"0.2"},{"response_times":[601.3900000252761,464.0500000095926,477.07500000251457,598.9899999694899,410.1249999948777],"keys_pressed":["rightarrow","leftarrow","leftarrow","leftarrow","rightarrow"],"horizon":5,"forced_choices":["rightarrow","leftarrow","leftarrow","leftarrow"],"right_color":"orange","left_color":"lightblue","left_mu":40,"right_mu":52,"left_numbers":[44,40,37,29,50],"right_numbers":[54,68,54,55,66],"points_earned":226,"phase":"task","trial_type":"horizons-task","trial_index":84,"time_elapsed":1005538,"internal_node_id":"0.0-80.0","task_version":"0.2"},{"response_times":[707.6600000145845,434.67500002589077,508.5099999560043,434.4600000185892,770.2149999677204],"keys_pressed":["rightarrow","leftarrow","leftarrow","rightarrow","rightarrow"],"horizon":5,"forced_choices":["rightarrow","leftarrow","leftarrow","rightarrow"],"right_color":"orange","left_color":"lightblue","left_mu":40,"right_mu":60,"left_numbers":[37,40,40,42,52],"right_numbers":[73,71,78,70,54],"points_earned":277,"phase":"task","trial_type":"horizons-task","trial_index":85,"time_elapsed":1009897,"internal_node_id":"0.0-81.0","task_version":"0.2"},{"response_times":[582.6499999966472,369.55499998293817,580.2200000034645,377.93499999679625,1080.3949999972247],"keys_pressed":["leftarrow","rightarrow","leftarrow","rightarrow","leftarrow"],"horizon":5,"forced_choices":["leftarrow","rightarrow","leftarrow","rightarrow"],"right_color":"lightblue","left_color":"orange","left_mu":40,"right_mu":28,"left_numbers":[33,45,30,43,59],"right_numbers":[35,23,26,18,24],"points_earned":163,"phase":"task","trial_type":"horizons-task","trial_index":86,"time_elapsed":1014393,"internal_node_id":"0.0-82.0","task_version":"0.2"},{"response_times":[589.8049999959767,399.70000000903383,372.21000000135973,899.8100000317208,242.78000002959743],"keys_pressed":["rightarrow","leftarrow","rightarrow","leftarrow","leftarrow"],"horizon":5,"forced_choices":["rightarrow","leftarrow","rightarrow","leftarrow"],"right_color":"lightblue","left_color":"orange","left_mu":60,"right_mu":52,"left_numbers":[69,50,51,45,52],"right_numbers":[58,47,47,65,52],"points_earned":252,"phase":"task","trial_type":"horizons-task","trial_index":87,"time_elapsed":1018403,"internal_node_id":"0.0-83.0","task_version":"0.2"},{"response_times":[542.1799999894574,487.6199999707751,483.185000019148,413.66999997990206,756.8200000096112,246.0549999959767,196.9999999855645,185.24999998044223,187.73999996483326,179.50500000733882],"keys_pressed":["rightarrow","leftarrow","leftarrow","rightarrow","rightarrow","rightarrow","rightarrow","rightarrow","rightarrow","rightarrow"],"horizon":10,"forced_choices":["rightarrow","leftarrow","leftarrow","rightarrow"],"right_color":"orange","left_color":"lightblue","left_mu":40,"right_mu":52,"left_numbers":[45,41,36,45,29,46,36,65,38,36],"right_numbers":[63,46,66,55,59,34,55,57,50,47],"points_earned":497,"phase":"task","trial_type":"horizons-task","trial_index":88,"time_elapsed":1023588,"internal_node_id":"0.0-84.0","task_version":"0.2"},{"response_times":[552.8449999983422,410.585000005085,507.2449999861419,462.5600000144914,219.97500001452863],"keys_pressed":["leftarrow","rightarrow","leftarrow","leftarrow","leftarrow"],"horizon":5,"forced_choices":["leftarrow","rightarrow","leftarrow","leftarrow"],"right_color":"lightblue","left_color":"orange","left_mu":60,"right_mu":48,"left_numbers":[62,53,64,62,46],"right_numbers":[61,38,41,53,56],"points_earned":272,"phase":"task","trial_type":"horizons-task","trial_index":89,"time_elapsed":1027245,"internal_node_id":"0.0-85.0","task_version":"0.2"},{"response_times":[541.1200000089593,427.70000000018626,558.0850000260398,961.1700000241399,372.92500003241],"keys_pressed":["leftarrow","rightarrow","leftarrow","rightarrow","leftarrow"],"horizon":5,"forced_choices":["leftarrow","rightarrow","leftarrow","rightarrow"],"right_color":"lightblue","left_color":"orange","left_mu":40,"right_mu":10,"left_numbers":[41,50,43,44,32],"right_numbers":[14,5,8,2,1],"points_earned":123,"phase":"task","trial_type":"horizons-task","trial_index":90,"time_elapsed":1031610,"internal_node_id":"0.0-86.0","task_version":"0.2"},{"response_times":[524.2549999966286,357.7899999800138,572.8699999745004,539.6900000050664,224.38999998848885,179.71000005491078,172.8249999578111,186.62499997299165,178.50000003818423,138.15499999327585],"keys_pressed":["rightarrow","leftarrow","rightarrow","rightarrow","rightarrow","rightarrow","rightarrow","rightarrow","rightarrow","rightarrow"],"horizon":10,"forced_choices":["rightarrow","leftarrow","rightarrow","rightarrow"],"right_color":"lightblue","left_color":"orange","left_mu":60,"right_mu":80,"left_numbers":[74,57,59,47,54,68,69,59,55,69],"right_numbers":[82,81,89,88,81,84,86,85,74,75],"points_earned":801,"phase":"task","trial_type":"horizons-task","trial_index":91,"time_elapsed":1036783,"internal_node_id":"0.0-87.0","task_version":"0.2"},{"rt":27813.43999999808,"responses":{"age":"21","gender-categorical":"Male","gender-free-response":"","ethnicity":"Not Hispanic or Latino","race":["White"],"language":"Yes","fluency":"Very well"},"survey":"demographics","trial_type":"survey-demo","trial_index":92,"time_elapsed":1064602,"internal_node_id":"0.0-88.0","task_version":"0.2"},{"rt":18659.14000000339,"responses":{"difficulty":"4","fun":"4","clarity":"5","strategy":"no","feedback":""},"survey":"debrief","trial_type":"survey-debrief","trial_index":93,"time_elapsed":1083272,"internal_node_id":"0.0-89.0","task_version":"0.2","interactions":"[{\"event\":\"blur\",\"trial\":1,\"time\":46663},{\"event\":\"focus\",\"trial\":1,\"time\":50259},{\"event\":\"blur\",\"trial\":24,\"time\":391925},{\"event\":\"focus\",\"trial\":24,\"time\":424275},{\"event\":\"blur\",\"trial\":42,\"time\":534844},{\"event\":\"focus\",\"trial\":43,\"time\":560575},{\"event\":\"blur\",\"trial\":51,\"time\":603494},{\"event\":\"focus\",\"trial\":51,\"time\":714476},{\"event\":\"blur\",\"trial\":60,\"time\":766519},{\"event\":\"focus\",\"trial\":60,\"time\":780596},{\"event\":\"blur\",\"trial\":62,\"time\":798465},{\"event\":\"focus\",\"trial\":63,\"time\":883570},{\"event\":\"blur\",\"trial\":66,\"time\":902789},{\"event\":\"focus\",\"trial\":67,\"time\":906582},{\"event\":\"blur\",\"trial\":91,\"time\":1036077},{\"event\":\"focus\",\"trial\":92,\"time\":1048293}]"}]