[{"view_history":"[{\"page_index\":0,\"viewing_time\":1610.5199999874458}]","rt":1610.869999974966,"trial_type":"instructions","trial_index":0,"time_elapsed":1618,"internal_node_id":"0.0-0.0","task_version":"0.2"},{"item_order":[11,10,5,4,3,1,6,2,7,8,0,9,12],"responses":{"Q12":"0","Q11":"1","Q06":"1","Q05":"2","Q04":"3","Q02":"3","Q07":"1","Q03":"0","Q08":"2","Q09":"1","Q01":"0","Q10":"0","Q13":"4"},"radio_events":[3516.6450000251643,7364.245000004303,9964.395000017248,14292.365000001155,17724.29500002181,19956.475000013597,21700.305000005756,23916.505000030156,34396.025000023656,37364.30500005372,39652.2100000293,42116.100000042934,44836.26000001095,47780.14000004623],"key_events":[],"mouse_events":[0.8950000046752393,3516.6450000251643,7364.245000004303,9964.395000017248,12828.310000011697,14292.365000001155,17724.29500002181,19956.475000013597,21700.305000005756,23332.25500001572,23916.505000030156,34396.025000023656,37364.30500005372,39652.2100000293,42116.100000042934,44836.26000001095,47780.14000004623,50684.24500001129],"rt":50686.68500002241,"survey":"ius12","trial_type":"survey-template","trial_index":1,"time_elapsed":52308,"internal_node_id":"0.0-1.0","task_version":"0.2"},{"item_order":[0,6,15,2,3,9,4,7,11,5,13,14,1,10,12,8],"responses":{"Q01":"1","Q07":"0","Q16":"5","Q03":"0","Q04":"3","Q10":"0","Q05":"0","Q08":"5","Q12":"0","Q06":"3","Q14":"1","Q15":"1","Q02":"1","Q11":"2","Q13":"2","Q09":"3"},"radio_events":[3873.265000001993,8017.195000022184,10921.395000012126,16465.365000010934,21953.385000000708,26113.400000031106,28801.124999998137,31857.294999994338,38089.32000002824,41417.13000001619,45401.339999982156,47137.26500002667,49977.19499998493,56489.24000002444,58441.244999994524,61921.21000000043],"key_events":[],"mouse_events":[3873.265000001993,8017.195000022184,10921.395000012126,15545.374999986961,16465.365000010934,21953.385000000708,26113.400000031106,28801.124999998137,31857.294999994338,38089.32000002824,41417.13000001619,45401.339999982156,47137.26500002667,49977.19499998493,56489.24000002444,58441.244999994524,61921.21000000043,63273.325000016484],"rt":63276.140000030864,"survey":"nfc","trial_type":"survey-template","trial_index":2,"time_elapsed":115590,"internal_node_id":"0.0-2.0","task_version":"0.2"},{"item_order":[7,4,5,1,9,10,0,6,14,16,13,3,11,2,8,15,12],"responses":{"Q08":"0","Q05":"1","Q06":"1","Q02":"0","Q10":"1","Q11":"1","Q01":"1","Q07":"1","Q15":"0","Q17":"0","Q14":"1","Q04":"1","Q12":"1","Q03":"1","Q09":"1","Q16":"2","Q13":"1"},"radio_events":[8200.704999966547,9464.76000000257,10920.70000001695,12776.529999973718,14936.694999982137,17824.68499999959,21984.594999987166,25144.68999998644,26448.58500000555,29488.629999978002,34840.40499996627,37048.7800000119,39360.60999997426,41592.56499999901,45064.65999997454,48448.62500001909,50976.3549999916],"key_events":[],"mouse_events":[6488.574999966659,8200.704999966547,9464.76000000257,10920.70000001695,12776.529999973718,14936.694999982137,17824.68499999959,21984.594999987166,25144.68999998644,26448.58500000555,29488.629999978002,34344.70499999588,34840.40499996627,37048.7800000119,39360.60999997426,41592.56499999901,45064.65999997454,48448.62500001909,50976.3549999916,53216.539999993984],"rt":53218.99999998277,"survey":"pswq","trial_type":"survey-template","trial_index":3,"time_elapsed":168812,"internal_node_id":"0.0-3.0","task_version":"0.2"},{"view_history":"[{\"page_index\":0,\"viewing_time\":3634.829999995418},{\"page_index\":1,\"viewing_time\":3599.9750000191852},{\"page_index\":2,\"viewing_time\":4824.034999997821},{\"page_index\":3,\"viewing_time\":6991.984999971464},{\"page_index\":4,\"viewing_time\":4135.965000023134},{\"page_index\":5,\"viewing_time\":2792.0499999891035},{\"page_index\":6,\"viewing_time\":3559.944999986328},{\"page_index\":7,\"viewing_time\":6207.645000016782},{\"page_index\":8,\"viewing_time\":4968.449999985751},{\"page_index\":9,\"viewing_time\":6735.860000015236}]","rt":47451.455000031274,"trial_type":"instructions","trial_index":4,"time_elapsed":216266,"internal_node_id":"0.0-4.0-0.0","task_version":"0.2"},{"response_times":[512.894999992568,483.5800000000745,451.30499999504536,581.4200000022538,2402.6600000215694],"keys_pressed":["rightarrow","leftarrow","rightarrow","rightarrow","leftarrow"],"horizon":5,"forced_choices":["rightarrow","leftarrow","rightarrow","rightarrow"],"right_color":"lightblue","left_color":"orange","left_mu":40,"right_mu":20,"left_numbers":[34,42,47,39,40],"right_numbers":[14,7,7,24,16],"points_earned":127,"phase":"practice","trial_type":"horizons-task","trial_index":5,"time_elapsed":222206,"internal_node_id":"0.0-4.0-1.0","task_version":"0.2"},{"response_times":[1722.8349999641068,496.8449999578297,485.39500002516434,690.6650000018999,2364.0850000083447,713.8600000180304,514.6449999883771,470.62500001629815,449.39500000327826,385.4000000283122],"keys_pressed":["leftarrow","leftarrow","rightarrow","rightarrow","rightarrow","rightarrow","rightarrow","rightarrow","rightarrow","rightarrow"],"horizon":10,"forced_choices":["leftarrow","leftarrow","rightarrow","rightarrow"],"right_color":"orange","left_color":"lightblue","left_mu":60,"right_mu":70,"left_numbers":[51,56,59,54,48,53,57,63,60,55],"right_numbers":[73,75,65,52,63,62,75,72,72,57],"points_earned":625,"phase":"practice","trial_type":"horizons-task","trial_index":6,"time_elapsed":232003,"internal_node_id":"0.0-4.0-2.0","task_version":"0.2"},{"view_history":"[{\"page_index\":0,\"viewing_time\":1653.4400000236928},{\"page_index\":1,\"viewing_time\":2848.394999979064},{\"page_index\":2,\"viewing_time\":2591.6100000031292},{\"page_index\":3,\"viewing_time\":2243.3100000489503}]","rt":9337.055000010878,"trial_type":"instructions","trial_index":7,"time_elapsed":241341,"internal_node_id":"0.0-4.0-3.0","task_version":"0.2"},{"responses":["true","false","true"],"num_errors":0,"rt":6923.345000017434,"trial_type":"horizons-comprehension","trial_index":8,"time_elapsed":248266,"internal_node_id":"0.0-4.0-4.0","task_version":"0.2"},{"trial_type":"call-function","trial_index":9,"time_elapsed":248269,"internal_node_id":"0.0-5.0","task_version":"0.2"},{"view_history":"[{\"page_index\":0,\"viewing_time\":915.1699999929406},{\"page_index\":1,\"viewing_time\":3286.6650000214577}]","rt":4202.15000002645,"trial_type":"instructions","trial_index":10,"time_elapsed":252471,"internal_node_id":"0.0-6.0","task_version":"0.2"},{"response_times":[1752.9400000348687,429.09499997040257,409.78499996708706,406.3650000025518,1107.5849999906495,735.4899999918416,521.0150000057183,697.9999999748543,533.8800000026822,451.2500000419095],"keys_pressed":["leftarrow","leftarrow","rightarrow","rightarrow","leftarrow","leftarrow","leftarrow","leftarrow","leftarrow","leftarrow"],"horizon":10,"forced_choices":["leftarrow","leftarrow","rightarrow","rightarrow"],"right_color":"lightblue","left_color":"orange","left_mu":40,"right_mu":32,"left_numbers":[47,43,39,37,30,34,34,51,35,50],"right_numbers":[25,47,29,22,34,35,39,26,36,26],"points_earned":375,"phase":"task","trial_type":"horizons-task","trial_index":11,"time_elapsed":261023,"internal_node_id":"0.0-7.0","task_version":"0.2"},{"response_times":[964.0899999649264,414.04500004136935,670.7099999766797,469.2700000014156,1878.809999965597,371.5749999973923,324.7550000087358,299.58500002976507,304.1650000377558,333.2100000116043],"keys_pressed":["leftarrow","rightarrow","leftarrow","rightarrow","rightarrow","rightarrow","rightarrow","rightarrow","rightarrow","rightarrow"],"horizon":10,"forced_choices":["leftarrow","rightarrow","leftarrow","rightarrow"],"right_color":"lightblue","left_color":"orange","left_mu":60,"right_mu":68,"left_numbers":[67,56,57,71,57,65,52,55,58,65],"right_numbers":[73,80,74,54,66,67,69,66,74,65],"points_earned":665,"phase":"task","trial_type":"horizons-task","trial_index":12,"time_elapsed":268555,"internal_node_id":"0.0-8.0","task_version":"0.2"},{"response_times":[826.0449999943376,394.08499997807667,490.13500002911314,449.0499999956228,1216.0600000061095,324.0800000494346,311.2350000301376,287.0450000045821,303.12999995658174,304.3199999956414],"keys_pressed":["leftarrow","rightarrow","rightarrow","leftarrow","rightarrow","rightarrow","rightarrow","rightarrow","rightarrow","rightarrow"],"horizon":10,"forced_choices":["leftarrow","rightarrow","rightarrow","leftarrow"],"right_color":"orange","left_color":"lightblue","left_mu":60,"right_mu":80,"left_numbers":[49,69,54,63,62,73,47,63,70,60],"right_numbers":[77,78,80,80,82,84,84,84,79,84],"points_earned":767,"phase":"task","trial_type":"horizons-task","trial_index":13,"time_elapsed":274963,"internal_node_id":"0.0-9.0","task_version":"0.2"},{"response_times":[523.3350000344217,495.8950000000186,382.35999998869374,413.4599999524653,2091.5299999760464],"keys_pressed":["leftarrow","leftarrow","rightarrow","rightarrow","leftarrow"],"horizon":5,"forced_choices":["leftarrow","leftarrow","rightarrow","rightarrow"],"right_color":"lightblue","left_color":"orange","left_mu":40,"right_mu":48,"left_numbers":[53,41,44,30,24],"right_numbers":[49,42,42,50,59],"points_earned":210,"phase":"task","trial_type":"horizons-task","trial_index":14,"time_elapsed":280371,"internal_node_id":"0.0-10.0","task_version":"0.2"},{"response_times":[720.2549999929033,422.95999999623746,379.590000025928,437.52000003587455,1517.325000022538],"keys_pressed":["leftarrow","leftarrow","rightarrow","rightarrow","leftarrow"],"horizon":5,"forced_choices":["leftarrow","leftarrow","rightarrow","rightarrow"],"right_color":"lightblue","left_color":"orange","left_mu":40,"right_mu":32,"left_numbers":[55,44,44,40,38],"right_numbers":[42,20,44,46,35],"points_earned":227,"phase":"task","trial_type":"horizons-task","trial_index":15,"time_elapsed":285352,"internal_node_id":"0.0-11.0","task_version":"0.2"},{"response_times":[534.7749999491498,405.7899999897927,359.98500004643574,433.24000004213303,2191.4200000464916,450.5500000086613,322.10499997017905,349.05499999877065,348.1700000120327,321.04000000981614],"keys_pressed":["rightarrow","leftarrow","rightarrow","leftarrow","leftarrow","leftarrow","leftarrow","leftarrow","leftarrow","leftarrow"],"horizon":10,"forced_choices":["rightarrow","leftarrow","rightarrow","leftarrow"],"right_color":"lightblue","left_color":"orange","left_mu":40,"right_mu":28,"left_numbers":[51,34,42,42,38,41,38,50,52,43],"right_numbers":[33,21,20,36,21,43,25,33,43,27],"points_earned":391,"phase":"task","trial_type":"horizons-task","trial_index":16,"time_elapsed":292571,"internal_node_id":"0.0-12.0","task_version":"0.2"},{"response_times":[521.9799999613315,337.5649999943562,472.26000000955537,359.519999998156,2745.56999997003,301.36000004131347,288.05500001180917,253.2200000132434,360.5700000189245,451.77499996498227],"keys_pressed":["rightarrow","leftarrow","leftarrow","rightarrow","rightarrow","rightarrow","rightarrow","rightarrow","rightarrow","rightarrow"],"horizon":10,"forced_choices":["rightarrow","leftarrow","leftarrow","rightarrow"],"right_color":"lightblue","left_color":"orange","left_mu":60,"right_mu":56,"left_numbers":[59,54,58,50,64,75,63,78,52,73],"right_numbers":[62,64,63,56,82,55,35,79,58,59],"points_earned":598,"phase":"task","trial_type":"horizons-task","trial_index":17,"time_elapsed":300165,"internal_node_id":"0.0-13.0","task_version":"0.2"},{"response_times":[597.1699999645352,347.829999984242,480.18999997293577,636.0200000344776,2527.8249999973923,538.170000014361,2016.2750000017695,561.844999960158,520.0549999717623,420.8850000286475],"keys_pressed":["leftarrow","rightarrow","rightarrow","rightarrow","rightarrow","rightarrow","leftarrow","rightarrow","leftarrow","rightarrow"],"horizon":10,"forced_choices":["leftarrow","rightarrow","rightarrow","rightarrow"],"right_color":"orange","left_color":"lightblue","left_mu":40,"right_mu":52,"left_numbers":[39,33,34,45,38,34,36,59,43,39],"right_numbers":[49,33,62,60,31,65,55,57,54,44],"points_earned":470,"phase":"task","trial_type":"horizons-task","trial_index":18,"time_elapsed":310314,"internal_node_id":"0.0-14.0","task_version":"0.2"},{"response_times":[543.5649999999441,309.7999999881722,348.35499996552244,542.905000038445,3075.315000023693,243.47499996656552,247.66499997349456,1580.6849999935366,264.9600000004284,251.10999995376915],"keys_pressed":["leftarrow","rightarrow","leftarrow","leftarrow","rightarrow","rightarrow","rightarrow","leftarrow","leftarrow","leftarrow"],"horizon":10,"forced_choices":["leftarrow","rightarrow","leftarrow","leftarrow"],"right_color":"lightblue","left_color":"orange","left_mu":40,"right_mu":48,"left_numbers":[39,39,42,54,47,47,47,47,45,47],"right_numbers":[40,44,35,59,30,50,68,49,35,42],"points_earned":466,"phase":"task","trial_type":"horizons-task","trial_index":19,"time_elapsed":319224,"internal_node_id":"0.0-15.0","task_version":"0.2"},{"response_times":[755.1900000544265,348.2949999743141,435.7949999975972,739.3250000313856,3264.7299999953248],"keys_pressed":["rightarrow","leftarrow","leftarrow","rightarrow","rightarrow"],"horizon":5,"forced_choices":["rightarrow","leftarrow","leftarrow","rightarrow"],"right_color":"orange","left_color":"lightblue","left_mu":40,"right_mu":36,"left_numbers":[41,33,43,35,40],"right_numbers":[35,42,43,43,33],"points_earned":187,"phase":"task","trial_type":"horizons-task","trial_index":20,"time_elapsed":326269,"internal_node_id":"0.0-16.0","task_version":"0.2"},{"response_times":[609.2899999930523,481.995000038296,407.1600000024773,390.1649999897927,1877.5449999957345,574.979999975767,458.2749999826774,529.3149999924935,426.45999998785555,1042.235000000801],"keys_pressed":["leftarrow","leftarrow","rightarrow","leftarrow","leftarrow","leftarrow","leftarrow","leftarrow","leftarrow","rightarrow"],"horizon":10,"forced_choices":["leftarrow","leftarrow","rightarrow","leftarrow"],"right_color":"lightblue","left_color":"orange","left_mu":60,"right_mu":48,"left_numbers":[59,61,50,69,45,55,60,41,60,54],"right_numbers":[46,53,51,45,53,42,64,39,56,51],"points_earned":552,"phase":"task","trial_type":"horizons-task","trial_index":21,"time_elapsed":334569,"internal_node_id":"0.0-17.0","task_version":"0.2"},{"response_times":[595.4199999687262,376.36499997461215,336.5599999669939,395.3800000017509,2991.8000000179745,216.7149999877438,241.6399999638088,384.78000002214685,1026.6199999605305,166.45999997854233],"keys_pressed":["leftarrow","leftarrow","rightarrow","rightarrow","leftarrow","leftarrow","rightarrow","rightarrow","rightarrow","rightarrow"],"horizon":10,"forced_choices":["leftarrow","leftarrow","rightarrow","rightarrow"],"right_color":"lightblue","left_color":"orange","left_mu":40,"right_mu":48,"left_numbers":[42,46,23,39,41,29,36,33,26,47],"right_numbers":[43,48,34,48,36,38,66,52,51,54],"points_earned":463,"phase":"task","trial_type":"horizons-task","trial_index":22,"time_elapsed":342804,"internal_node_id":"0.0-18.0","task_version":"0.2"},{"response_times":[389.8449999978766,373.1450000195764,490.5199999921024,385.5549999861978,1579.5199999702163,349.0299999830313,433.8049999787472,535.2999999886379,305.5150000145659,397.8749999660067],"keys_pressed":["leftarrow","leftarrow","leftarrow","rightarrow","leftarrow","leftarrow","leftarrow","leftarrow","leftarrow","leftarrow"],"horizon":10,"forced_choices":["leftarrow","leftarrow","leftarrow","rightarrow"],"right_color":"lightblue","left_color":"orange","left_mu":60,"right_mu":64,"left_numbers":[61,59,57,82,58,66,58,43,65,71],"right_numbers":[58,65,64,56,58,57,79,66,54,64],"points_earned":594,"phase":"task","trial_type":"horizons-task","trial_index":23,"time_elapsed":349547,"internal_node_id":"0.0-19.0","task_version":"0.2"},{"response_times":[624.039999966044,406.3000000314787,362.56999999750406,427.4000000441447,889.5200000260957,225.0249999924563,209.80000001145527,193.74000001698732,190.10000000707805,228.36000000825152],"keys_pressed":["rightarrow","rightarrow","leftarrow","rightarrow","rightarrow","rightarrow","rightarrow","rightarrow","rightarrow","rightarrow"],"horizon":10,"forced_choices":["rightarrow","rightarrow","leftarrow","rightarrow"],"right_color":"orange","left_color":"lightblue","left_mu":60,"right_mu":72,"left_numbers":[49,42,38,57,46,60,60,60,58,52],"right_numbers":[79,75,74,75,69,61,77,73,68,72],"points_earned":687,"phase":"task","trial_type":"horizons-task","trial_index":24,"time_elapsed":354806,"internal_node_id":"0.0-20.0","task_version":"0.2"},{"response_times":[557.5650000246242,336.8949999567121,390.66999999340624,741.7349999886937,1340.4650000156835,217.13499998440966,246.32500001462176,795.7399999722838,546.0549999843352,848.1349999783561],"keys_pressed":["leftarrow","rightarrow","leftarrow","rightarrow","leftarrow","leftarrow","leftarrow","leftarrow","leftarrow","rightarrow"],"horizon":10,"forced_choices":["leftarrow","rightarrow","leftarrow","rightarrow"],"right_color":"orange","left_color":"lightblue","left_mu":40,"right_mu":44,"left_numbers":[44,47,56,47,33,49,39,40,37,44],"right_numbers":[48,44,40,40,64,48,51,34,43,41],"points_earned":423,"phase":"task","trial_type":"horizons-task","trial_index":25,"time_elapsed":362329,"internal_node_id":"0.0-21.0","task_version":"0.2"},{"response_times":[657.6449999702163,356.43500002333894,448.35000002058223,507.69999995827675,1031.124999979511],"keys_pressed":["leftarrow","rightarrow","rightarrow","rightarrow","rightarrow"],"horizon":5,"forced_choices":["leftarrow","rightarrow","rightarrow","rightarrow"],"right_color":"orange","left_color":"lightblue","left_mu":40,"right_mu":52,"left_numbers":[44,17,53,43,40],"right_numbers":[53,45,55,68,63],"points_earned":275,"phase":"task","trial_type":"horizons-task","trial_index":26,"time_elapsed":366833,"internal_node_id":"0.0-22.0","task_version":"0.2"},{"response_times":[594.8350000544451,330.1099999807775,442.69999995594844,386.83500001206994,1416.9200000469573],"keys_pressed":["rightarrow","leftarrow","leftarrow","rightarrow","leftarrow"],"horizon":5,"forced_choices":["rightarrow","leftarrow","leftarrow","rightarrow"],"right_color":"lightblue","left_color":"orange","left_mu":40,"right_mu":10,"left_numbers":[44,49,34,44,35],"right_numbers":[0,12,11,7,18],"points_earned":125,"phase":"task","trial_type":"horizons-task","trial_index":27,"time_elapsed":371506,"internal_node_id":"0.0-23.0","task_version":"0.2"},{"response_times":[549.6249999850988,503.1500000040978,420.9549999795854,485.4300000006333,537.2250000364147],"keys_pressed":["rightarrow","rightarrow","leftarrow","rightarrow","rightarrow"],"horizon":5,"forced_choices":["rightarrow","rightarrow","leftarrow","rightarrow"],"right_color":"orange","left_color":"lightblue","left_mu":60,"right_mu":72,"left_numbers":[58,53,65,61,81],"right_numbers":[78,70,71,87,79],"points_earned":379,"phase":"task","trial_type":"horizons-task","trial_index":28,"time_elapsed":375505,"internal_node_id":"0.0-24.0","task_version":"0.2"},{"response_times":[473.3450000057928,350.0099999946542,351.2549999868497,367.9499999852851,987.314999976661],"keys_pressed":["rightarrow","leftarrow","rightarrow","rightarrow","rightarrow"],"horizon":5,"forced_choices":["rightarrow","leftarrow","rightarrow","rightarrow"],"right_color":"orange","left_color":"lightblue","left_mu":60,"right_mu":52,"left_numbers":[69,48,66,66,62],"right_numbers":[61,57,58,73,44],"points_earned":284,"phase":"task","trial_type":"horizons-task","trial_index":29,"time_elapsed":379549,"internal_node_id":"0.0-25.0","task_version":"0.2"},{"response_times":[408.5849999682978,375.54999999701977,351.42999998060986,484.32500002672896,1637.6900000032037],"keys_pressed":["rightarrow","leftarrow","rightarrow","rightarrow","leftarrow"],"horizon":5,"forced_choices":["rightarrow","leftarrow","rightarrow","rightarrow"],"right_color":"orange","left_color":"lightblue","left_mu":60,"right_mu":30,"left_numbers":[50,55,60,55,48],"right_numbers":[40,36,38,24,24],"points_earned":205,"phase":"task","trial_type":"horizons-task","trial_index":30,"time_elapsed":384310,"internal_node_id":"0.0-26.0","task_version":"0.2"},{"response_times":[443.0549999815412,338.98000000044703,369.3999999668449,661.3000000361353,537.914999993518],"keys_pressed":["leftarrow","rightarrow","leftarrow","rightarrow","rightarrow"],"horizon":5,"forced_choices":["leftarrow","rightarrow","leftarrow","rightarrow"],"right_color":"orange","left_color":"lightblue","left_mu":60,"right_mu":72,"left_numbers":[43,54,64,48,46],"right_numbers":[65,77,71,77,70],"points_earned":331,"phase":"task","trial_type":"horizons-task","trial_index":31,"time_elapsed":388163,"internal_node_id":"0.0-27.0","task_version":"0.2"},{"response_times":[859.7899999585934,427.8749999939464,618.8299999921583,717.9599999799393,1530.5400000070222,363.69999998714775,336.28499996848404,314.69000002834946,301.0249999933876,296.75000003771856],"keys_pressed":["rightarrow","rightarrow","rightarrow","leftarrow","rightarrow","rightarrow","rightarrow","rightarrow","rightarrow","rightarrow"],"horizon":10,"forced_choices":["rightarrow","rightarrow","rightarrow","leftarrow"],"right_color":"orange","left_color":"lightblue","left_mu":60,"right_mu":90,"left_numbers":[64,60,61,70,56,59,79,72,62,55],"right_numbers":[80,105,84,86,96,84,79,96,85,92],"points_earned":871,"phase":"task","trial_type":"horizons-task","trial_index":32,"time_elapsed":395432,"internal_node_id":"0.0-28.0","task_version":"0.2"},{"response_times":[628.3999999868684,570.1550000230782,637.215000053402,661.0149999614805,899.1900000255555,309.23999997321516,263.56499997200444,267.1599999885075,285.6150000006892,271.14999998593703],"keys_pressed":["rightarrow","rightarrow","leftarrow","leftarrow","rightarrow","rightarrow","rightarrow","rightarrow","rightarrow","rightarrow"],"horizon":10,"forced_choices":["rightarrow","rightarrow","leftarrow","leftarrow"],"right_color":"orange","left_color":"lightblue","left_mu":60,"right_mu":90,"left_numbers":[54,54,57,63,63,47,57,52,63,55],"right_numbers":[100,99,81,92,83,96,94,88,82,76],"points_earned":838,"phase":"task","trial_type":"horizons-task","trial_index":33,"time_elapsed":401729,"internal_node_id":"0.0-29.0","task_version":"0.2"},{"response_times":[486.05999996652827,349.564999982249,394.3849999923259,407.9899999778718,1364.0449999948032],"keys_pressed":["leftarrow","rightarrow","rightarrow","leftarrow","leftarrow"],"horizon":5,"forced_choices":["leftarrow","rightarrow","rightarrow","leftarrow"],"right_color":"lightblue","left_color":"orange","left_mu":60,"right_mu":64,"left_numbers":[75,76,62,58,60],"right_numbers":[74,54,59,61,79],"points_earned":306,"phase":"task","trial_type":"horizons-task","trial_index":34,"time_elapsed":406233,"internal_node_id":"0.0-30.0","task_version":"0.2"},{"response_times":[458.43999995850027,331.98499999707565,339.83499999158084,345.7449999987148,1277.0799999707378],"keys_pressed":["leftarrow","rightarrow","leftarrow","rightarrow","rightarrow"],"horizon":5,"forced_choices":["leftarrow","rightarrow","leftarrow","rightarrow"],"right_color":"lightblue","left_color":"orange","left_mu":60,"right_mu":68,"left_numbers":[55,62,46,68,55],"right_numbers":[48,74,63,66,63],"points_earned":304,"phase":"task","trial_type":"horizons-task","trial_index":35,"time_elapsed":410490,"internal_node_id":"0.0-31.0","task_version":"0.2"},{"response_times":[502.09499994525686,346.1850000312552,483.68499998468906,428.08000004151836,535.0900000194088],"keys_pressed":["leftarrow","rightarrow","rightarrow","rightarrow","rightarrow"],"horizon":5,"forced_choices":["leftarrow","rightarrow","rightarrow","rightarrow"],"right_color":"orange","left_color":"lightblue","left_mu":60,"right_mu":80,"left_numbers":[59,76,60,56,65],"right_numbers":[74,83,74,76,93],"points_earned":385,"phase":"task","trial_type":"horizons-task","trial_index":36,"time_elapsed":414287,"internal_node_id":"0.0-32.0","task_version":"0.2"},{"response_times":[657.0900000515394,346.5950000099838,438.45499999588355,1089.2349999630824,800.4899999941699],"keys_pressed":["rightarrow","leftarrow","rightarrow","leftarrow","leftarrow"],"horizon":5,"forced_choices":["rightarrow","leftarrow","rightarrow","leftarrow"],"right_color":"orange","left_color":"lightblue","left_mu":60,"right_mu":30,"left_numbers":[71,63,59,64,54],"right_numbers":[28,26,32,35,35],"points_earned":241,"phase":"task","trial_type":"horizons-task","trial_index":37,"time_elapsed":419121,"internal_node_id":"0.0-33.0","task_version":"0.2"},{"response_times":[541.6599999880418,449.32499999413267,431.1949999537319,443.87499999720603,1742.824999964796,427.4250000016764,331.46499999566004,310.1199999800883,777.1499999798834,435.76500000199303],"keys_pressed":["rightarrow","rightarrow","rightarrow","leftarrow","rightarrow","rightarrow","rightarrow","rightarrow","leftarrow","rightarrow"],"horizon":10,"forced_choices":["rightarrow","rightarrow","rightarrow","leftarrow"],"right_color":"lightblue","left_color":"orange","left_mu":40,"right_mu":60,"left_numbers":[43,48,42,42,39,39,46,60,32,41],"right_numbers":[69,63,69,63,56,73,64,60,60,56],"points_earned":584,"phase":"task","trial_type":"horizons-task","trial_index":38,"time_elapsed":426514,"internal_node_id":"0.0-34.0","task_version":"0.2"},{"response_times":[616.8150000157766,427.4800000130199,480.0849999883212,473.7600000225939,1047.084999969229],"keys_pressed":["leftarrow","leftarrow","rightarrow","leftarrow","leftarrow"],"horizon":5,"forced_choices":["leftarrow","leftarrow","rightarrow","leftarrow"],"right_color":"lightblue","left_color":"orange","left_mu":60,"right_mu":48,"left_numbers":[62,61,63,59,52],"right_numbers":[41,31,36,62,55],"points_earned":270,"phase":"task","trial_type":"horizons-task","trial_index":39,"time_elapsed":431063,"internal_node_id":"0.0-35.0","task_version":"0.2"},{"response_times":[603.4299999591894,365.80500000854954,401.9899999839254,667.8899999824353,834.7249999642372],"keys_pressed":["leftarrow","rightarrow","leftarrow","leftarrow","rightarrow"],"horizon":5,"forced_choices":["leftarrow","rightarrow","leftarrow","leftarrow"],"right_color":"lightblue","left_color":"orange","left_mu":40,"right_mu":32,"left_numbers":[38,46,32,41,36],"right_numbers":[33,42,37,25,49],"points_earned":202,"phase":"task","trial_type":"horizons-task","trial_index":40,"time_elapsed":435439,"internal_node_id":"0.0-36.0","task_version":"0.2"},{"response_times":[709.694999968633,411.5899999742396,463.43500004149973,510.4750000173226,1283.7699999799952],"keys_pressed":["rightarrow","rightarrow","rightarrow","leftarrow","rightarrow"],"horizon":5,"forced_choices":["rightarrow","rightarrow","rightarrow","leftarrow"],"right_color":"lightblue","left_color":"orange","left_mu":40,"right_mu":60,"left_numbers":[37,59,66,37,43],"right_numbers":[66,57,46,53,56],"points_earned":262,"phase":"task","trial_type":"horizons-task","trial_index":41,"time_elapsed":440320,"internal_node_id":"0.0-37.0","task_version":"0.2"},{"response_times":[535.3100000065751,370.03499997081235,389.54499998362735,491.6850000154227,1138.6300000012852],"keys_pressed":["rightarrow","rightarrow","leftarrow","rightarrow","leftarrow"],"horizon":5,"forced_choices":["rightarrow","rightarrow","leftarrow","rightarrow"],"right_color":"lightblue","left_color":"orange","left_mu":60,"right_mu":40,"left_numbers":[58,52,52,61,61],"right_numbers":[30,34,36,35,49],"points_earned":212,"phase":"task","trial_type":"horizons-task","trial_index":42,"time_elapsed":444748,"internal_node_id":"0.0-38.0","task_version":"0.2"},{"response_times":[695.1899999985471,365.3100000228733,422.90499998489395,721.5449999785051,579.8450000002049],"keys_pressed":["rightarrow","rightarrow","leftarrow","leftarrow","rightarrow"],"horizon":5,"forced_choices":["rightarrow","rightarrow","leftarrow","leftarrow"],"right_color":"orange","left_color":"lightblue","left_mu":40,"right_mu":70,"left_numbers":[30,27,46,41,46],"right_numbers":[79,72,77,65,78],"points_earned":316,"phase":"task","trial_type":"horizons-task","trial_index":43,"time_elapsed":449035,"internal_node_id":"0.0-39.0","task_version":"0.2"},{"response_times":[533.1899999873713,419.3899999954738,386.85999996960163,689.8800000199117,570.0949999736622],"keys_pressed":["leftarrow","leftarrow","rightarrow","leftarrow","leftarrow"],"horizon":5,"forced_choices":["leftarrow","leftarrow","rightarrow","leftarrow"],"right_color":"orange","left_color":"lightblue","left_mu":40,"right_mu":20,"left_numbers":[36,39,39,42,41],"right_numbers":[19,9,27,31,12],"points_earned":185,"phase":"task","trial_type":"horizons-task","trial_index":44,"time_elapsed":453136,"internal_node_id":"0.0-40.0","task_version":"0.2"},{"response_times":[685.9199999598786,356.679999968037,491.10000004293397,617.1750000212342,842.3450000118464,227.55000001052395,198.25000001583248,240.07499997969717,223.34500000579283,469.2149999900721],"keys_pressed":["rightarrow","leftarrow","leftarrow","leftarrow","rightarrow","rightarrow","rightarrow","rightarrow","rightarrow","rightarrow"],"horizon":10,"forced_choices":["rightarrow","leftarrow","leftarrow","leftarrow"],"right_color":"orange","left_color":"lightblue","left_mu":40,"right_mu":70,"left_numbers":[34,17,32,37,32,41,36,34,39,43],"right_numbers":[81,61,69,63,72,71,76,80,71,98],"points_earned":635,"phase":"task","trial_type":"horizons-task","trial_index":45,"time_elapsed":458990,"internal_node_id":"0.0-41.0","task_version":"0.2"},{"response_times":[556.7049999954179,370.75999996159226,541.1000000312924,648.6700000241399,762.7400000346825,317.7700000233017,260.2700000279583,318.12500004889444,393.48999998765066,307.2099999990314],"keys_pressed":["rightarrow","leftarrow","leftarrow","rightarrow","leftarrow","leftarrow","leftarrow","leftarrow","leftarrow","leftarrow"],"horizon":10,"forced_choices":["rightarrow","leftarrow","leftarrow","rightarrow"],"right_color":"orange","left_color":"lightblue","left_mu":40,"right_mu":20,"left_numbers":[45,41,39,39,38,39,36,44,39,42],"right_numbers":[26,25,19,32,16,33,16,28,18,19],"points_earned":376,"phase":"task","trial_type":"horizons-task","trial_index":46,"time_elapsed":464970,"internal_node_id":"0.0-42.0","task_version":"0.2"},{"response_times":[571.0849999450147,313.7749999877997,416.4049999671988,419.60500000277534,1632.370000006631,233.1899999990128,200.98000002326444,202.60000001871958,196.64499995997176,196.3349999859929],"keys_pressed":["rightarrow","leftarrow","leftarrow","rightarrow","leftarrow","leftarrow","leftarrow","leftarrow","leftarrow","leftarrow"],"horizon":10,"forced_choices":["rightarrow","leftarrow","leftarrow","rightarrow"],"right_color":"lightblue","left_color":"orange","left_mu":40,"right_mu":10,"left_numbers":[32,24,32,38,40,51,22,61,44,55],"right_numbers":[13,12,13,18,10,5,11,3,0,7],"points_earned":360,"phase":"task","trial_type":"horizons-task","trial_index":47,"time_elapsed":470855,"internal_node_id":"0.0-43.0","task_version":"0.2"},{"response_times":[489.78500004159287,428.795000014361,418.42000000178814,457.1849999483675,1048.7300000386313,532.9449999844655,767.6099999807775,461.99999999953434,278.4949999768287,453.8499999907799],"keys_pressed":["leftarrow","leftarrow","rightarrow","leftarrow","leftarrow","leftarrow","rightarrow","leftarrow","leftarrow","leftarrow"],"horizon":10,"forced_choices":["leftarrow","leftarrow","rightarrow","leftarrow"],"right_color":"orange","left_color":"lightblue","left_mu":40,"right_mu":20,"left_numbers":[36,29,35,34,41,33,33,43,36,32],"right_numbers":[18,26,15,13,14,10,19,13,22,17],"points_earned":318,"phase":"task","trial_type":"horizons-task","trial_index":48,"time_elapsed":477695,"internal_node_id":"0.0-44.0","task_version":"0.2"},{"response_times":[504.2550000362098,332.799999974668,505.6050000130199,383.3450000383891,807.2999999858439],"keys_pressed":["rightarrow","leftarrow","leftarrow","rightarrow","leftarrow"],"horizon":5,"forced_choices":["rightarrow","leftarrow","leftarrow","rightarrow"],"right_color":"orange","left_color":"lightblue","left_mu":40,"right_mu":20,"left_numbers":[45,21,33,29,43],"right_numbers":[12,21,17,19,20],"points_earned":128,"phase":"task","trial_type":"horizons-task","trial_index":49,"time_elapsed":481730,"internal_node_id":"0.0-45.0","task_version":"0.2"},{"response_times":[499.8100000084378,330.6300000404008,375.7099999929778,363.48500003805384,996.8450000160374,236.32000002544373,234.88499998347834,204.93000000715256,211.71500004129484,248.54500003857538],"keys_pressed":["rightarrow","leftarrow","rightarrow","leftarrow","leftarrow","leftarrow","leftarrow","leftarrow","leftarrow","leftarrow"],"horizon":10,"forced_choices":["rightarrow","leftarrow","rightarrow","leftarrow"],"right_color":"lightblue","left_color":"orange","left_mu":60,"right_mu":40,"left_numbers":[63,73,62,62,59,56,77,66,64,64],"right_numbers":[43,38,48,37,40,33,16,40,45,49],"points_earned":612,"phase":"task","trial_type":"horizons-task","trial_index":50,"time_elapsed":486935,"internal_node_id":"0.0-46.0","task_version":"0.2"},{"view_history":"[{\"page_index\":0,\"viewing_time\":19371.340000012424},{\"page_index\":1,\"viewing_time\":1456.5699999802746}]","rt":20828.284999995958,"trial_type":"instructions","trial_index":51,"time_elapsed":507764,"internal_node_id":"0.0-47.0","task_version":"0.2"},{"response_times":[544.5600000093691,322.7300000144169,344.57499999552965,376.3949999702163,1164.325000019744,290.5950000276789,325.89000003645197,285.70000000763685,315.9349999623373,273.97499996004626],"keys_pressed":["rightarrow","leftarrow","rightarrow","rightarrow","leftarrow","leftarrow","leftarrow","leftarrow","leftarrow","leftarrow"],"horizon":10,"forced_choices":["rightarrow","leftarrow","rightarrow","rightarrow"],"right_color":"orange","left_color":"lightblue","left_mu":60,"right_mu":30,"left_numbers":[55,52,55,62,54,37,71,60,63,62],"right_numbers":[22,20,37,42,15,24,30,40,32,24],"points_earned":500,"phase":"task","trial_type":"horizons-task","trial_index":52,"time_elapsed":513515,"internal_node_id":"0.0-48.0","task_version":"0.2"},{"response_times":[503.39999998686835,316.54500000877306,366.7550000245683,408.060000045225,425.8599999593571,214.83499999158084,198.15499999094754,185.55499997455627,182.41499998839572,220.5299999914132],"keys_pressed":["rightarrow","leftarrow","rightarrow","leftarrow","leftarrow","leftarrow","leftarrow","leftarrow","leftarrow","leftarrow"],"horizon":10,"forced_choices":["rightarrow","leftarrow","rightarrow","leftarrow"],"right_color":"orange","left_color":"lightblue","left_mu":60,"right_mu":30,"left_numbers":[69,66,66,55,62,58,80,43,50,46],"right_numbers":[31,24,23,35,27,29,22,31,31,26],"points_earned":514,"phase":"task","trial_type":"horizons-task","trial_index":53,"time_elapsed":518041,"internal_node_id":"0.0-49.0","task_version":"0.2"},{"response_times":[508.78500001272187,429.04999997699633,423.6549999914132,683.9150000014342,1699.655000003986],"keys_pressed":["rightarrow","rightarrow","leftarrow","leftarrow","rightarrow"],"horizon":5,"forced_choices":["rightarrow","rightarrow","leftarrow","leftarrow"],"right_color":"lightblue","left_color":"orange","left_mu":40,"right_mu":60,"left_numbers":[35,36,35,51,44],"right_numbers":[51,47,57,47,60],"points_earned":244,"phase":"task","trial_type":"horizons-task","trial_index":54,"time_elapsed":523288,"internal_node_id":"0.0-50.0","task_version":"0.2"},{"response_times":[480.1599999773316,360.1949999574572,516.3700000266545,416.37999995145947,1775.7950000232086,257.6450000051409,233.40999998617917,322.43499998003244,277.71500003291294,412.35499997856095],"keys_pressed":["leftarrow","rightarrow","rightarrow","leftarrow","leftarrow","leftarrow","leftarrow","leftarrow","leftarrow","leftarrow"],"horizon":10,"forced_choices":["leftarrow","rightarrow","rightarrow","leftarrow"],"right_color":"orange","left_color":"lightblue","left_mu":60,"right_mu":52,"left_numbers":[68,55,43,49,53,75,55,56,63,59],"right_numbers":[48,49,52,42,49,55,42,45,64,62],"points_earned":579,"phase":"task","trial_type":"horizons-task","trial_index":55,"time_elapsed":529844,"internal_node_id":"0.0-51.0","task_version":"0.2"},{"response_times":[502.8949999832548,410.2600000333041,643.8750000088476,593.5999999637716,727.05499996664,396.9199999701232,380.04499999806285,467.58500003488734,1571.8699999852106,366.00499995984137],"keys_pressed":["leftarrow","leftarrow","rightarrow","leftarrow","leftarrow","leftarrow","rightarrow","rightarrow","rightarrow","leftarrow"],"horizon":10,"forced_choices":["leftarrow","leftarrow","rightarrow","leftarrow"],"right_color":"orange","left_color":"lightblue","left_mu":40,"right_mu":36,"left_numbers":[45,32,52,42,31,47,46,41,48,45],"right_numbers":[45,45,37,54,35,39,40,43,42,38],"points_earned":404,"phase":"task","trial_type":"horizons-task","trial_index":56,"time_elapsed":537406,"internal_node_id":"0.0-52.0","task_version":"0.2"},{"response_times":[705.9899999876507,338.23500003200024,549.6299999649636,472.4949999945238,725.0399999902584],"keys_pressed":["leftarrow","rightarrow","rightarrow","leftarrow","leftarrow"],"horizon":5,"forced_choices":["leftarrow","rightarrow","rightarrow","leftarrow"],"right_color":"orange","left_color":"lightblue","left_mu":60,"right_mu":52,"left_numbers":[59,64,62,70,61],"right_numbers":[48,43,50,46,48],"points_earned":283,"phase":"task","trial_type":"horizons-task","trial_index":57,"time_elapsed":541699,"internal_node_id":"0.0-53.0","task_version":"0.2"},{"response_times":[770.4050000174902,426.8550000269897,504.2600000160746,477.62999997939914,902.3299999535084,234.6549999783747,219.57999997539446,204.62500001303852,214.40000005532056,240.80999998841435],"keys_pressed":["rightarrow","rightarrow","leftarrow","leftarrow","rightarrow","rightarrow","rightarrow","rightarrow","rightarrow","rightarrow"],"horizon":10,"forced_choices":["rightarrow","rightarrow","leftarrow","leftarrow"],"right_color":"lightblue","left_color":"orange","left_mu":40,"right_mu":60,"left_numbers":[33,51,49,40,51,38,54,27,31,40],"right_numbers":[56,51,64,48,50,61,58,59,53,62],"points_earned":539,"phase":"task","trial_type":"horizons-task","trial_index":58,"time_elapsed":547397,"internal_node_id":"0.0-54.0","task_version":"0.2"},{"response_times":[604.3549999594688,341.5099999983795,483.92500000773,522.7450000238605,478.74499997124076],"keys_pressed":["rightarrow","leftarrow","leftarrow","leftarrow","leftarrow"],"horizon":5,"forced_choices":["rightarrow","leftarrow","leftarrow","leftarrow"],"right_color":"lightblue","left_color":"orange","left_mu":60,"right_mu":68,"left_numbers":[67,52,69,59,72],"right_numbers":[60,69,82,61,68],"points_earned":312,"phase":"task","trial_type":"horizons-task","trial_index":59,"time_elapsed":551330,"internal_node_id":"0.0-55.0","task_version":"0.2"},{"response_times":[512.3900000471622,447.2799999639392,844.8649999918416,491.1749999737367,592.5050000078045],"keys_pressed":["rightarrow","leftarrow","rightarrow","leftarrow","leftarrow"],"horizon":5,"forced_choices":["rightarrow","leftarrow","rightarrow","leftarrow"],"right_color":"lightblue","left_color":"orange","left_mu":60,"right_mu":40,"left_numbers":[75,59,61,57,67],"right_numbers":[35,43,31,37,30],"points_earned":249,"phase":"task","trial_type":"horizons-task","trial_index":60,"time_elapsed":555721,"internal_node_id":"0.0-56.0","task_version":"0.2"},{"response_times":[1717.6600000238977,455.6200000224635,547.4050000193529,732.3249999899417,402.4449999560602],"keys_pressed":["rightarrow","rightarrow","leftarrow","leftarrow","rightarrow"],"horizon":5,"forced_choices":["rightarrow","rightarrow","leftarrow","leftarrow"],"right_color":"orange","left_color":"lightblue","left_mu":60,"right_mu":90,"left_numbers":[57,68,44,62,61],"right_numbers":[91,82,84,95,86],"points_earned":365,"phase":"task","trial_type":"horizons-task","trial_index":61,"time_elapsed":561078,"internal_node_id":"0.0-57.0","task_version":"0.2"},{"response_times":[535.2299999794923,347.5099999923259,443.7700000125915,477.8499999665655,586.3450000179,827.0799999590963,682.2449999745004,572.4000000045635,500.02999999560416,345.31999996397644],"keys_pressed":["leftarrow","rightarrow","rightarrow","rightarrow","leftarrow","leftarrow","rightarrow","rightarrow","leftarrow","leftarrow"],"horizon":10,"forced_choices":["leftarrow","rightarrow","rightarrow","rightarrow"],"right_color":"lightblue","left_color":"orange","left_mu":40,"right_mu":28,"left_numbers":[46,44,47,30,25,38,50,41,62,38],"right_numbers":[24,41,22,44,38,27,41,27,22,31],"points_earned":384,"phase":"task","trial_type":"horizons-task","trial_index":62,"time_elapsed":567900,"internal_node_id":"0.0-58.0","task_version":"0.2"},{"response_times":[480.1799999549985,423.21000003721565,484.0499999700114,499.50000003445894,671.4300000458024],"keys_pressed":["leftarrow","leftarrow","leftarrow","rightarrow","leftarrow"],"horizon":5,"forced_choices":["leftarrow","leftarrow","leftarrow","rightarrow"],"right_color":"lightblue","left_color":"orange","left_mu":60,"right_mu":56,"left_numbers":[62,53,62,54,66],"right_numbers":[51,52,56,55,46],"points_earned":298,"phase":"task","trial_type":"horizons-task","trial_index":63,"time_elapsed":571960,"internal_node_id":"0.0-59.0","task_version":"0.2"},{"response_times":[556.8700000294484,367.19499999890104,543.9099999493919,696.639999980107,459.0199999511242],"keys_pressed":["leftarrow","rightarrow","rightarrow","rightarrow","leftarrow"],"horizon":5,"forced_choices":["leftarrow","rightarrow","rightarrow","rightarrow"],"right_color":"lightblue","left_color":"orange","left_mu":40,"right_mu":28,"left_numbers":[29,34,30,35,35],"right_numbers":[32,29,34,31,20],"points_earned":158,"phase":"task","trial_type":"horizons-task","trial_index":64,"time_elapsed":576086,"internal_node_id":"0.0-60.0","task_version":"0.2"},{"response_times":[459.11499997600913,362.22500004805624,394.82499996665865,829.4050000258721,1645.1349999988452],"keys_pressed":["leftarrow","rightarrow","leftarrow","rightarrow","rightarrow"],"horizon":5,"forced_choices":["leftarrow","rightarrow","leftarrow","rightarrow"],"right_color":"orange","left_color":"lightblue","left_mu":40,"right_mu":44,"left_numbers":[38,37,51,41,29],"right_numbers":[29,47,42,44,36],"points_earned":216,"phase":"task","trial_type":"horizons-task","trial_index":65,"time_elapsed":581279,"internal_node_id":"0.0-61.0","task_version":"0.2"},{"response_times":[517.2600000514649,341.9899999862537,360.14000000432134,574.350000009872,938.5950000141747,271.31000004010275,283.3799999789335,267.30499998666346,296.8500000424683,266.55500003835186],"keys_pressed":["rightarrow","leftarrow","rightarrow","rightarrow","leftarrow","leftarrow","leftarrow","leftarrow","leftarrow","leftarrow"],"horizon":10,"forced_choices":["rightarrow","leftarrow","rightarrow","rightarrow"],"right_color":"orange","left_color":"lightblue","left_mu":60,"right_mu":52,"left_numbers":[62,62,56,37,60,63,76,69,60,58],"right_numbers":[48,45,41,54,42,54,59,57,45,55],"points_earned":591,"phase":"task","trial_type":"horizons-task","trial_index":66,"time_elapsed":586899,"internal_node_id":"0.0-62.0","task_version":"0.2"},{"response_times":[641.8200000189245,320.2049999963492,619.4499999983236,382.30499997735023,1531.5350000164472,248.810000019148,339.8500000475906,417.22000000299886,433.8800000259653,199.99500003177673],"keys_pressed":["rightarrow","leftarrow","leftarrow","rightarrow","rightarrow","rightarrow","leftarrow","leftarrow","rightarrow","rightarrow"],"horizon":10,"forced_choices":["rightarrow","leftarrow","leftarrow","rightarrow"],"right_color":"orange","left_color":"lightblue","left_mu":40,"right_mu":36,"left_numbers":[55,33,35,43,27,36,30,28,35,37],"right_numbers":[42,38,40,47,34,33,35,33,28,38],"points_earned":348,"phase":"task","trial_type":"horizons-task","trial_index":67,"time_elapsed":593537,"internal_node_id":"0.0-63.0","task_version":"0.2"},{"response_times":[501.3749999925494,372.8199999895878,369.0099999657832,385.1450000074692,1375.6749999593012,220.75500001665205,210.47499997075647,201.06999995186925,190.4050000011921,427.0000000251457],"keys_pressed":["leftarrow","rightarrow","leftarrow","rightarrow","rightarrow","rightarrow","rightarrow","rightarrow","rightarrow","rightarrow"],"horizon":10,"forced_choices":["leftarrow","rightarrow","leftarrow","rightarrow"],"right_color":"orange","left_color":"lightblue","left_mu":60,"right_mu":72,"left_numbers":[58,57,55,52,68,56,65,53,47,48],"right_numbers":[78,58,59,82,77,73,85,57,79,69],"points_earned":693,"phase":"task","trial_type":"horizons-task","trial_index":68,"time_elapsed":599293,"internal_node_id":"0.0-64.0","task_version":"0.2"},{"response_times":[556.5650000353344,328.4500000299886,348.5849999706261,408.0200000316836,537.2300000162795],"keys_pressed":["rightarrow","leftarrow","rightarrow","leftarrow","leftarrow"],"horizon":5,"forced_choices":["rightarrow","leftarrow","rightarrow","leftarrow"],"right_color":"lightblue","left_color":"orange","left_mu":40,"right_mu":28,"left_numbers":[39,38,39,31,49],"right_numbers":[39,20,18,33,24],"points_earned":175,"phase":"task","trial_type":"horizons-task","trial_index":69,"time_elapsed":602974,"internal_node_id":"0.0-65.0","task_version":"0.2"},{"response_times":[611.510000017006,332.11999997729436,492.5950000179,430.9249999932945,919.9849999858998],"keys_pressed":["rightarrow","leftarrow","leftarrow","leftarrow","leftarrow"],"horizon":5,"forced_choices":["rightarrow","leftarrow","leftarrow","leftarrow"],"right_color":"orange","left_color":"lightblue","left_mu":40,"right_mu":70,"left_numbers":[46,34,42,50,43],"right_numbers":[63,63,82,64,62],"points_earned":232,"phase":"task","trial_type":"horizons-task","trial_index":70,"time_elapsed":607263,"internal_node_id":"0.0-66.0","task_version":"0.2"},{"response_times":[481.50499997427687,476.7199999769218,550.8100000442937,882.5200000428595,531.299999973271],"keys_pressed":["rightarrow","rightarrow","leftarrow","rightarrow","leftarrow"],"horizon":5,"forced_choices":["rightarrow","rightarrow","leftarrow","rightarrow"],"right_color":"orange","left_color":"lightblue","left_mu":40,"right_mu":44,"left_numbers":[41,36,55,49,42],"right_numbers":[33,50,46,36,56],"points_earned":216,"phase":"task","trial_type":"horizons-task","trial_index":71,"time_elapsed":611688,"internal_node_id":"0.0-67.0","task_version":"0.2"},{"response_times":[463.0100000067614,437.2150000417605,427.7449999935925,430.88999995961785,825.9250000119209],"keys_pressed":["leftarrow","leftarrow","rightarrow","rightarrow","leftarrow"],"horizon":5,"forced_choices":["leftarrow","leftarrow","rightarrow","rightarrow"],"right_color":"orange","left_color":"lightblue","left_mu":40,"right_mu":52,"left_numbers":[55,44,27,51,33],"right_numbers":[52,58,42,47,59],"points_earned":221,"phase":"task","trial_type":"horizons-task","trial_index":72,"time_elapsed":615775,"internal_node_id":"0.0-68.0","task_version":"0.2"},{"response_times":[578.5299999988638,440.9250000026077,412.00000001117587,389.580000017304,1159.0250000008382,250.96999999368563,219.58999999333173,204.7650000313297,215.87499999441206,246.69499997980893],"keys_pressed":["rightarrow","rightarrow","leftarrow","rightarrow","leftarrow","leftarrow","leftarrow","leftarrow","leftarrow","leftarrow"],"horizon":10,"forced_choices":["rightarrow","rightarrow","leftarrow","rightarrow"],"right_color":"lightblue","left_color":"orange","left_mu":60,"right_mu":40,"left_numbers":[57,55,68,67,63,63,63,57,50,68],"right_numbers":[31,27,57,41,30,32,40,45,53,27],"points_earned":531,"phase":"task","trial_type":"horizons-task","trial_index":73,"time_elapsed":621395,"internal_node_id":"0.0-69.0","task_version":"0.2"},{"response_times":[534.0699999942444,362.6850000000559,432.71500000264496,574.0400000358932,882.9750000149943],"keys_pressed":["rightarrow","leftarrow","leftarrow","leftarrow","leftarrow"],"horizon":5,"forced_choices":["rightarrow","leftarrow","leftarrow","leftarrow"],"right_color":"lightblue","left_color":"orange","left_mu":40,"right_mu":10,"left_numbers":[47,38,28,41,34],"right_numbers":[2,0,3,10,12],"points_earned":143,"phase":"task","trial_type":"horizons-task","trial_index":74,"time_elapsed":625684,"internal_node_id":"0.0-70.0","task_version":"0.2"},{"response_times":[662.4000000301749,333.6699999636039,421.79499997291714,389.33999999426305,723.4799999860115,256.1349999741651,203.08499998645857,201.71500003198162,187.25000001722947,192.58999999146909],"keys_pressed":["rightarrow","leftarrow","leftarrow","leftarrow","leftarrow","leftarrow","leftarrow","leftarrow","leftarrow","leftarrow"],"horizon":10,"forced_choices":["rightarrow","leftarrow","leftarrow","leftarrow"],"right_color":"lightblue","left_color":"orange","left_mu":40,"right_mu":10,"left_numbers":[39,38,35,31,43,30,32,38,39,36],"right_numbers":[12,19,20,12,18,14,13,10,14,10],"points_earned":334,"phase":"task","trial_type":"horizons-task","trial_index":75,"time_elapsed":630758,"internal_node_id":"0.0-71.0","task_version":"0.2"},{"response_times":[566.3499999791384,333.11499998671934,472.79999998863786,660.8600000035949,1020.250000001397,380.32999995630234,386.83999999193475,616.6199999861419,1555.8149999706075,301.99000000720844],"keys_pressed":["leftarrow","rightarrow","rightarrow","leftarrow","rightarrow","rightarrow","leftarrow","leftarrow","leftarrow","rightarrow"],"horizon":10,"forced_choices":["leftarrow","rightarrow","rightarrow","leftarrow"],"right_color":"lightblue","left_color":"orange","left_mu":60,"right_mu":64,"left_numbers":[59,63,65,64,67,53,54,58,61,51],"right_numbers":[54,74,63,57,52,47,62,59,57,61],"points_earned":593,"phase":"task","trial_type":"horizons-task","trial_index":76,"time_elapsed":638556,"internal_node_id":"0.0-72.0","task_version":"0.2"},{"response_times":[676.6150000039488,344.90500000538304,320.670000044629,481.29500000504777,2770.5800000112504],"keys_pressed":["leftarrow","rightarrow","leftarrow","leftarrow","rightarrow"],"horizon":5,"forced_choices":["leftarrow","rightarrow","leftarrow","leftarrow"],"right_color":"lightblue","left_color":"orange","left_mu":40,"right_mu":48,"left_numbers":[39,46,49,28,39],"right_numbers":[61,30,39,45,49],"points_earned":195,"phase":"task","trial_type":"horizons-task","trial_index":77,"time_elapsed":644652,"internal_node_id":"0.0-73.0","task_version":"0.2"},{"response_times":[406.29000001354143,337.52999996067956,355.005000019446,367.85999999847263,880.9000000474043,192.87999998778105,168.61500003142282,174.79000001912937,170.21499999100342,161.76500002620742],"keys_pressed":["leftarrow","rightarrow","leftarrow","rightarrow","leftarrow","leftarrow","leftarrow","leftarrow","leftarrow","leftarrow"],"horizon":10,"forced_choices":["leftarrow","rightarrow","leftarrow","rightarrow"],"right_color":"lightblue","left_color":"orange","left_mu":60,"right_mu":48,"left_numbers":[59,54,71,64,52,60,56,63,54,67],"right_numbers":[49,54,35,44,57,51,51,44,67,57],"points_earned":580,"phase":"task","trial_type":"horizons-task","trial_index":78,"time_elapsed":649371,"internal_node_id":"0.0-74.0","task_version":"0.2"},{"response_times":[516.5200000046752,361.53999995440245,390.52999997511506,713.820000004489,2508.5850000032224,626.2700000079349,611.8199999909848,444.72500000847504,491.35499994736165,536.069999972824],"keys_pressed":["leftarrow","rightarrow","leftarrow","leftarrow","leftarrow","rightarrow","rightarrow","leftarrow","leftarrow","rightarrow"],"horizon":10,"forced_choices":["leftarrow","rightarrow","leftarrow","leftarrow"],"right_color":"lightblue","left_color":"orange","left_mu":40,"right_mu":32,"left_numbers":[39,57,46,32,33,30,49,53,44,50],"right_numbers":[39,35,21,36,32,37,27,32,36,27],"points_earned":373,"phase":"task","trial_type":"horizons-task","trial_index":79,"time_elapsed":658074,"internal_node_id":"0.0-75.0","task_version":"0.2"},{"response_times":[573.5599999898113,325.89500001631677,441.8399999849498,392.24000001559034,481.2999999849126],"keys_pressed":["leftarrow","rightarrow","rightarrow","leftarrow","rightarrow"],"horizon":5,"forced_choices":["leftarrow","rightarrow","rightarrow","leftarrow"],"right_color":"orange","left_color":"lightblue","left_mu":60,"right_mu":80,"left_numbers":[69,57,41,59,69],"right_numbers":[69,78,78,78,76],"points_earned":360,"phase":"task","trial_type":"horizons-task","trial_index":80,"time_elapsed":661791,"internal_node_id":"0.0-76.0","task_version":"0.2"},{"response_times":[462.935000017751,421.5200000326149,391.98499999474734,378.78999998793006,541.9399999664165],"keys_pressed":["leftarrow","leftarrow","leftarrow","rightarrow","leftarrow"],"horizon":5,"forced_choices":["leftarrow","leftarrow","leftarrow","rightarrow"],"right_color":"lightblue","left_color":"orange","left_mu":60,"right_mu":64,"left_numbers":[63,57,67,56,69],"right_numbers":[54,56,65,47,54],"points_earned":303,"phase":"task","trial_type":"horizons-task","trial_index":81,"time_elapsed":665490,"internal_node_id":"0.0-77.0","task_version":"0.2"},{"response_times":[554.7650000080466,417.6300000399351,452.22000003559515,479.6100000385195,3037.8149999887682,712.740000046324,527.1599999978207,1445.9400000050664,476.68999998131767,440.1800000341609],"keys_pressed":["leftarrow","leftarrow","leftarrow","rightarrow","leftarrow","rightarrow","rightarrow","rightarrow","leftarrow","leftarrow"],"horizon":10,"forced_choices":["leftarrow","leftarrow","leftarrow","rightarrow"],"right_color":"lightblue","left_color":"orange","left_mu":60,"right_mu":56,"left_numbers":[58,66,54,67,56,65,65,50,56,59],"right_numbers":[73,60,49,57,54,57,59,41,47,62],"points_earned":563,"phase":"task","trial_type":"horizons-task","trial_index":82,"time_elapsed":675538,"internal_node_id":"0.0-78.0","task_version":"0.2"},{"response_times":[482.97999997157604,483.88000001432374,445.9349999669939,498.7599999876693,1567.6799999782816,229.2499999748543,208.96999997785315,702.2149999975227,327.6649999897927,275.5699999979697],"keys_pressed":["rightarrow","rightarrow","leftarrow","leftarrow","rightarrow","rightarrow","rightarrow","rightarrow","rightarrow","rightarrow"],"horizon":10,"forced_choices":["rightarrow","rightarrow","leftarrow","leftarrow"],"right_color":"orange","left_color":"lightblue","left_mu":40,"right_mu":70,"left_numbers":[44,43,37,35,33,39,51,37,38,46],"right_numbers":[72,54,84,74,68,72,85,86,66,70],"points_earned":645,"phase":"task","trial_type":"horizons-task","trial_index":83,"time_elapsed":682263,"internal_node_id":"0.0-79.0","task_version":"0.2"},{"response_times":[543.9100000075996,329.54499998595566,414.4700000179,350.4199999733828,1071.224999963306],"keys_pressed":["rightarrow","leftarrow","leftarrow","rightarrow","leftarrow"],"horizon":5,"forced_choices":["rightarrow","leftarrow","leftarrow","rightarrow"],"right_color":"lightblue","left_color":"orange","left_mu":60,"right_mu":56,"left_numbers":[67,56,58,68,42],"right_numbers":[48,56,37,56,54],"points_earned":260,"phase":"task","trial_type":"horizons-task","trial_index":84,"time_elapsed":686475,"internal_node_id":"0.0-80.0","task_version":"0.2"},{"response_times":[583.1900000339374,423.95500000566244,389.22499999171123,479.79499999200925,2847.4500000011176,574.2700000409968,460.30499995686114,556.3899999833666,443.4499999624677,444.4499999517575],"keys_pressed":["rightarrow","rightarrow","leftarrow","rightarrow","rightarrow","leftarrow","leftarrow","rightarrow","leftarrow","rightarrow"],"horizon":10,"forced_choices":["rightarrow","rightarrow","leftarrow","rightarrow"],"right_color":"orange","left_color":"lightblue","left_mu":40,"right_mu":44,"left_numbers":[38,36,43,42,47,50,35,40,46,40],"right_numbers":[40,40,38,49,47,34,43,47,53,44],"points_earned":441,"phase":"task","trial_type":"horizons-task","trial_index":85,"time_elapsed":695180,"internal_node_id":"0.0-81.0","task_version":"0.2"},{"response_times":[496.27000000327826,334.70499998657033,446.69499999145046,590.3899999684654,615.3250000206754,199.58000001497567,194.83500003116205,530.3749999729916,249.3350000004284,394.0300000249408],"keys_pressed":["leftarrow","rightarrow","rightarrow","rightarrow","rightarrow","rightarrow","rightarrow","rightarrow","rightarrow","rightarrow"],"horizon":10,"forced_choices":["leftarrow","rightarrow","rightarrow","rightarrow"],"right_color":"orange","left_color":"lightblue","left_mu":60,"right_mu":80,"left_numbers":[52,69,55,55,51,64,70,64,68,59],"right_numbers":[82,71,74,95,82,96,78,74,87,88],"points_earned":797,"phase":"task","trial_type":"horizons-task","trial_index":86,"time_elapsed":700735,"internal_node_id":"0.0-82.0","task_version":"0.2"},{"response_times":[604.8200000077486,398.31000001868233,444.91999997990206,433.7449999875389,1166.190000018105],"keys_pressed":["leftarrow","leftarrow","rightarrow","leftarrow","leftarrow"],"horizon":5,"forced_choices":["leftarrow","leftarrow","rightarrow","leftarrow"],"right_color":"orange","left_color":"lightblue","left_mu":40,"right_mu":36,"left_numbers":[45,47,52,48,45],"right_numbers":[38,49,35,37,20],"points_earned":220,"phase":"task","trial_type":"horizons-task","trial_index":87,"time_elapsed":705285,"internal_node_id":"0.0-83.0","task_version":"0.2"},{"response_times":[548.1649999856018,329.61499999510124,362.5649999594316,539.4250000244938,793.1099999696016],"keys_pressed":["leftarrow","rightarrow","leftarrow","rightarrow","leftarrow"],"horizon":5,"forced_choices":["leftarrow","rightarrow","leftarrow","rightarrow"],"right_color":"lightblue","left_color":"orange","left_mu":60,"right_mu":48,"left_numbers":[64,61,62,43,63],"right_numbers":[46,52,37,54,56],"points_earned":295,"phase":"task","trial_type":"horizons-task","trial_index":88,"time_elapsed":709360,"internal_node_id":"0.0-84.0","task_version":"0.2"},{"response_times":[511.5349999978207,447.83999997889623,385.57500002207235,430.7050000061281,544.8549999855459,378.3849999890663,321.9999999855645,527.6349999476224,276.1649999883957,705.2050000056624],"keys_pressed":["leftarrow","leftarrow","rightarrow","rightarrow","rightarrow","rightarrow","rightarrow","rightarrow","rightarrow","rightarrow"],"horizon":10,"forced_choices":["leftarrow","leftarrow","rightarrow","rightarrow"],"right_color":"orange","left_color":"lightblue","left_mu":40,"right_mu":52,"left_numbers":[51,51,47,47,34,38,44,42,41,47],"right_numbers":[37,41,63,57,58,48,64,47,56,51],"points_earned":546,"phase":"task","trial_type":"horizons-task","trial_index":89,"time_elapsed":715392,"internal_node_id":"0.0-85.0","task_version":"0.2"},{"response_times":[453.1100000021979,361.2600000342354,459.6000000019558,643.1999999913387,1143.5950000304729,364.3700000247918,473.52499997941777,541.9249999686144,337.6149999676272,235.86000001523644],"keys_pressed":["rightarrow","leftarrow","leftarrow","leftarrow","leftarrow","rightarrow","rightarrow","rightarrow","rightarrow","rightarrow"],"horizon":10,"forced_choices":["rightarrow","leftarrow","leftarrow","leftarrow"],"right_color":"lightblue","left_color":"orange","left_mu":60,"right_mu":68,"left_numbers":[37,59,69,66,57,58,77,59,57,82],"right_numbers":[58,69,63,59,73,61,77,84,68,60],"points_earned":659,"phase":"task","trial_type":"horizons-task","trial_index":90,"time_elapsed":721909,"internal_node_id":"0.0-86.0","task_version":"0.2"},{"response_times":[710.3750000242144,441.7000000248663,501.7399999778718,555.3499999805354,529.0699999895878],"keys_pressed":["rightarrow","rightarrow","rightarrow","leftarrow","rightarrow"],"horizon":5,"forced_choices":["rightarrow","rightarrow","rightarrow","leftarrow"],"right_color":"orange","left_color":"lightblue","left_mu":60,"right_mu":90,"left_numbers":[68,68,50,61,55],"right_numbers":[101,88,96,95,78],"points_earned":424,"phase":"task","trial_type":"horizons-task","trial_index":91,"time_elapsed":726150,"internal_node_id":"0.0-87.0","task_version":"0.2"},{"rt":14785.18999996595,"responses":{"age":"33","gender-categorical":"Male","gender-free-response":"","ethnicity":"Not Hispanic or Latino","race":["White"],"language":"Yes","fluency":"Very well"},"survey":"demographics","trial_type":"survey-demo","trial_index":92,"time_elapsed":740938,"internal_node_id":"0.0-88.0","task_version":"0.2"},{"rt":29587.980000011157,"responses":{"difficulty":"4","fun":"4","clarity":"5","strategy":"Just relied on the information I had, not speculation.","feedback":"This was enjoyable, thank you."},"survey":"debrief","trial_type":"survey-debrief","trial_index":93,"time_elapsed":770530,"internal_node_id":"0.0-89.0","task_version":"0.2","interactions":"[{\"event\":\"blur\",\"trial\":51,\"time\":503825},{\"event\":\"focus\",\"trial\":51,\"time\":504739}]"}]