[{"view_history":"[{\"page_index\":0,\"viewing_time\":4274}]","rt":4278,"trial_type":"instructions","trial_index":0,"time_elapsed":4298,"internal_node_id":"0.0-0.0","task_version":"0.2"},{"item_order":[8,0,2,10,3,12,4,15,14,7,1,5,13,9,6,11],"responses":{"Q09":"4","Q01":"5","Q03":"3","Q11":"5","Q04":"4","Q13":"3","Q05":"5","Q16":"5","Q15":"5","Q08":"5","Q02":"5","Q06":"5","Q14":"5","Q10":"5","Q07":"5","Q12":"4"},"radio_events":[6028,8279,12565,17154,20032,24453,26318,29080,30864,32897,36896,37823,40608,41004,43199,51014.00000000001,53467,55170,57281,58585],"key_events":[],"mouse_events":[0,6028,8279,11834,12565,17154,20032,24453,26318,29080,30864,32897,36896,37823,38456,40020,40608,41004,43199,49766,50460,51014.00000000001,53467,55170,57281,58150,58585,59447],"rt":59462,"survey":"nfc","trial_type":"survey-template","trial_index":1,"time_elapsed":63767,"internal_node_id":"0.0-1.0","task_version":"0.2"},{"item_order":[4,7,8,3,10,9,6,11,12,5,2,1,0],"responses":{"Q05":"4","Q08":"4","Q09":"4","Q04":"4","Q11":"4","Q10":"4","Q07":"4","Q12":"4","Q13":"4","Q06":"4","Q03":"4","Q02":"4","Q01":"4"},"radio_events":[5786,11753,13370,14333,17747,19569,20797,22154,25789,28035,29141.000000000015,32158,34312,35367,36806,38411],"key_events":[],"mouse_events":[5786,11753,13370,13975,14333,17747,19569,20797,22154,25789,28035,29141.000000000015,32158,33060,34312,35367,36806,37785,38411,38850],"rt":38858,"survey":"ius12","trial_type":"survey-template","trial_index":2,"time_elapsed":102631,"internal_node_id":"0.0-2.0","task_version":"0.2"},{"item_order":[3,15,5,12,9,8,6,13,4,0,16,1,14,11,10,7,2],"responses":{"Q04":"4","Q16":"4","Q06":"4","Q13":"4","Q10":"4","Q09":"4","Q07":"4","Q14":"4","Q05":"4","Q01":"3","Q17":"0","Q02":"4","Q15":"4","Q12":"4","Q11":"1","Q08":"4","Q03":"4"},"radio_events":[3756,6994,8174.000000000015,9510,10500,12160,14673,25857.999999999985,28198,31350,37508,39686,43412,44257,45546,46023,72610,77504,78844],"key_events":[],"mouse_events":[3756,6994,8174.000000000015,9510,10500,12160,14673,25857.999999999985,28198,31350,37508,39686,43412,44257,45546,46023,70263,72610,76683,77504,78844,79628],"rt":79638,"survey":"pswq","trial_type":"survey-template","trial_index":3,"time_elapsed":182274,"internal_node_id":"0.0-3.0","task_version":"0.2"},{"view_history":"[{\"page_index\":0,\"viewing_time\":14797},{\"page_index\":1,\"viewing_time\":5423},{\"page_index\":2,\"viewing_time\":11469},{\"page_index\":3,\"viewing_time\":2340},{\"page_index\":2,\"viewing_time\":459},{\"page_index\":3,\"viewing_time\":7188.000000000029},{\"page_index\":4,\"viewing_time\":5275.999999999971},{\"page_index\":5,\"viewing_time\":5153},{\"page_index\":6,\"viewing_time\":11103},{\"page_index\":7,\"viewing_time\":9235.00000000003},{\"page_index\":8,\"viewing_time\":19477.99999999997},{\"page_index\":9,\"viewing_time\":12909}]","rt":104831,"trial_type":"instructions","trial_index":4,"time_elapsed":287110,"internal_node_id":"0.0-4.0-0.0","task_version":"0.2"},{"response_times":[1350,753,646,720.0000000000582,6034.999999999942],"keys_pressed":["rightarrow","leftarrow","rightarrow","rightarrow","rightarrow"],"horizon":5,"forced_choices":["rightarrow","leftarrow","rightarrow","rightarrow"],"right_color":"lightblue","left_color":"orange","left_mu":40,"right_mu":20,"left_numbers":[40,47,55,46,42],"right_numbers":[33,6,8,20,9],"points_earned":117,"phase":"practice","trial_type":"horizons-task","trial_index":5,"time_elapsed":298121,"internal_node_id":"0.0-4.0-1.0","task_version":"0.2"},{"response_times":[1761,756,608,924,4042,4455,1862,7391,1633,2284],"keys_pressed":["leftarrow","leftarrow","rightarrow","rightarrow","rightarrow","rightarrow","rightarrow","rightarrow","leftarrow","leftarrow"],"horizon":10,"forced_choices":["leftarrow","leftarrow","rightarrow","rightarrow"],"right_color":"orange","left_color":"lightblue","left_mu":60,"right_mu":70,"left_numbers":[64,59,66,70,53,40,47,62,62,53],"right_numbers":[73,63,71,75,58,71,67,57,62,71],"points_earned":637,"phase":"practice","trial_type":"horizons-task","trial_index":6,"time_elapsed":325341,"internal_node_id":"0.0-4.0-2.0","task_version":"0.2"},{"view_history":"[{\"page_index\":0,\"viewing_time\":1983},{\"page_index\":1,\"viewing_time\":2755},{\"page_index\":2,\"viewing_time\":4171},{\"page_index\":3,\"viewing_time\":4292}]","rt":13202,"trial_type":"instructions","trial_index":7,"time_elapsed":338545,"internal_node_id":"0.0-4.0-3.0","task_version":"0.2"},{"responses":["true","false","true"],"num_errors":0,"rt":10125,"trial_type":"horizons-comprehension","trial_index":8,"time_elapsed":348671,"internal_node_id":"0.0-4.0-4.0","task_version":"0.2"},{"trial_type":"call-function","trial_index":9,"time_elapsed":348675,"internal_node_id":"0.0-5.0","task_version":"0.2"},{"view_history":"[{\"page_index\":0,\"viewing_time\":1029},{\"page_index\":1,\"viewing_time\":4956}]","rt":5986.000000000058,"trial_type":"instructions","trial_index":10,"time_elapsed":354662,"internal_node_id":"0.0-6.0","task_version":"0.2"},{"response_times":[1125,458,463,419,3372.999999999942,2117,1579,1857,1222,3661],"keys_pressed":["leftarrow","rightarrow","rightarrow","rightarrow","rightarrow","leftarrow","leftarrow","rightarrow","rightarrow","leftarrow"],"horizon":10,"forced_choices":["leftarrow","rightarrow","rightarrow","rightarrow"],"right_color":"lightblue","left_color":"orange","left_mu":60,"right_mu":56,"left_numbers":[68,54,53,61,61,47,71,60,58,82],"right_numbers":[47,45,44,49,57,50,65,45,64,49],"points_earned":572,"phase":"task","trial_type":"horizons-task","trial_index":11,"time_elapsed":372445,"internal_node_id":"0.0-7.0","task_version":"0.2"},{"response_times":[974,483,519,449,2327,2462,701,1008,1076,1357],"keys_pressed":["rightarrow","leftarrow","leftarrow","rightarrow","leftarrow","leftarrow","rightarrow","rightarrow","rightarrow","leftarrow"],"horizon":10,"forced_choices":["rightarrow","leftarrow","leftarrow","rightarrow"],"right_color":"orange","left_color":"lightblue","left_mu":40,"right_mu":44,"left_numbers":[27,43,27,41,49,34,46,43,39,53],"right_numbers":[45,47,47,41,47,27,47,46,52,39],"points_earned":437,"phase":"task","trial_type":"horizons-task","trial_index":12,"time_elapsed":385309,"internal_node_id":"0.0-8.0","task_version":"0.2"},{"response_times":[1091,430,435,425,4335],"keys_pressed":["leftarrow","rightarrow","rightarrow","leftarrow","rightarrow"],"horizon":5,"forced_choices":["leftarrow","rightarrow","rightarrow","leftarrow"],"right_color":"lightblue","left_color":"orange","left_mu":60,"right_mu":56,"left_numbers":[49,72,57,67,57],"right_numbers":[61,63,56,64,57],"points_earned":292,"phase":"task","trial_type":"horizons-task","trial_index":13,"time_elapsed":393529,"internal_node_id":"0.0-9.0","task_version":"0.2"},{"response_times":[1034,502,432,420,1333.0000000000582],"keys_pressed":["leftarrow","leftarrow","rightarrow","rightarrow","leftarrow"],"horizon":5,"forced_choices":["leftarrow","leftarrow","rightarrow","rightarrow"],"right_color":"orange","left_color":"lightblue","left_mu":40,"right_mu":32,"left_numbers":[41,50,44,31,34],"right_numbers":[31,21,47,22,18],"points_earned":194,"phase":"task","trial_type":"horizons-task","trial_index":14,"time_elapsed":398755,"internal_node_id":"0.0-10.0","task_version":"0.2"},{"response_times":[613,420,391,465.0000000000582,5762,3858.999999999942,1740,1687,1611,689],"keys_pressed":["leftarrow","rightarrow","leftarrow","rightarrow","rightarrow","leftarrow","leftarrow","rightarrow","leftarrow","rightarrow"],"horizon":10,"forced_choices":["leftarrow","rightarrow","leftarrow","rightarrow"],"right_color":"lightblue","left_color":"orange","left_mu":60,"right_mu":68,"left_numbers":[53,58,80,60,58,61,64,58,55,54],"right_numbers":[57,79,55,72,71,66,79,71,70,73],"points_earned":679,"phase":"task","trial_type":"horizons-task","trial_index":15,"time_elapsed":417498,"internal_node_id":"0.0-11.0","task_version":"0.2"},{"response_times":[917,838,506,478,2426,1472,1039.0000000000582,692.9999999999418,790.0000000000582,873.9999999999418],"keys_pressed":["leftarrow","leftarrow","rightarrow","leftarrow","rightarrow","rightarrow","leftarrow","rightarrow","rightarrow","rightarrow"],"horizon":10,"forced_choices":["leftarrow","leftarrow","rightarrow","leftarrow"],"right_color":"orange","left_color":"lightblue","left_mu":40,"right_mu":70,"left_numbers":[43,37,51,36,40,32,44,28,35,34],"right_numbers":[73,66,62,62,72,63,65,77,72,76],"points_earned":582,"phase":"task","trial_type":"horizons-task","trial_index":16,"time_elapsed":429035,"internal_node_id":"0.0-12.0","task_version":"0.2"},{"response_times":[1102,441,382.0000000000582,354.9999999999418,1544],"keys_pressed":["leftarrow","leftarrow","rightarrow","leftarrow","leftarrow"],"horizon":5,"forced_choices":["leftarrow","leftarrow","rightarrow","leftarrow"],"right_color":"lightblue","left_color":"orange","left_mu":60,"right_mu":72,"left_numbers":[62,59,60,63,57],"right_numbers":[70,53,73,62,71],"points_earned":314,"phase":"task","trial_type":"horizons-task","trial_index":17,"time_elapsed":434363,"internal_node_id":"0.0-13.0","task_version":"0.2"},{"response_times":[1542,495.0000000000582,522.9999999999418,886,1238],"keys_pressed":["rightarrow","leftarrow","leftarrow","leftarrow","rightarrow"],"horizon":5,"forced_choices":["rightarrow","leftarrow","leftarrow","leftarrow"],"right_color":"orange","left_color":"lightblue","left_mu":60,"right_mu":64,"left_numbers":[72,64,55,44,65],"right_numbers":[64,52,54,63,65],"points_earned":292,"phase":"task","trial_type":"horizons-task","trial_index":18,"time_elapsed":440552,"internal_node_id":"0.0-14.0","task_version":"0.2"},{"response_times":[598,400,346,473.0000000000582,1580.9999999999418,836,777,1052,737,828],"keys_pressed":["leftarrow","rightarrow","leftarrow","rightarrow","leftarrow","rightarrow","leftarrow","leftarrow","rightarrow","leftarrow"],"horizon":10,"forced_choices":["leftarrow","rightarrow","leftarrow","rightarrow"],"right_color":"lightblue","left_color":"orange","left_mu":40,"right_mu":28,"left_numbers":[46,33,28,34,30,44,47,41,33,41],"right_numbers":[22,37,33,27,12,19,31,38,10,34],"points_earned":326,"phase":"task","trial_type":"horizons-task","trial_index":19,"time_elapsed":449686,"internal_node_id":"0.0-15.0","task_version":"0.2"},{"response_times":[971,85.99999999994179,676.0000000000582,428.9999999999418,869,1532,587,665,601,576],"keys_pressed":["rightarrow","rightarrow","rightarrow","leftarrow","rightarrow","leftarrow","rightarrow","rightarrow","rightarrow","rightarrow"],"horizon":10,"forced_choices":["rightarrow","rightarrow","rightarrow","leftarrow"],"right_color":"lightblue","left_color":"orange","left_mu":40,"right_mu":60,"left_numbers":[41,34,47,44,36,49,41,41,47,44],"right_numbers":[64,68,66,52,51,64,69,57,70,49],"points_earned":587,"phase":"task","trial_type":"horizons-task","trial_index":20,"time_elapsed":458184,"internal_node_id":"0.0-16.0","task_version":"0.2"},{"response_times":[961,384,692,305.0000000000582,1305],"keys_pressed":["leftarrow","rightarrow","rightarrow","leftarrow","leftarrow"],"horizon":5,"forced_choices":["leftarrow","rightarrow","rightarrow","leftarrow"],"right_color":"lightblue","left_color":"orange","left_mu":60,"right_mu":30,"left_numbers":[67,53,57,61,56],"right_numbers":[26,20,45,18,25],"points_earned":249,"phase":"task","trial_type":"horizons-task","trial_index":21,"time_elapsed":463335,"internal_node_id":"0.0-17.0","task_version":"0.2"},{"response_times":[1006,702,491,523.0000000000582,1103.9999999999418],"keys_pressed":["leftarrow","leftarrow","leftarrow","rightarrow","leftarrow"],"horizon":5,"forced_choices":["leftarrow","leftarrow","leftarrow","rightarrow"],"right_color":"orange","left_color":"lightblue","left_mu":40,"right_mu":48,"left_numbers":[60,35,35,38,27],"right_numbers":[44,41,42,44,43],"points_earned":201,"phase":"task","trial_type":"horizons-task","trial_index":22,"time_elapsed":468664,"internal_node_id":"0.0-18.0","task_version":"0.2"},{"response_times":[911,404,667,403.0000000000582,1915.9999999999418,1273,584,1248,950.0000000000582,1863],"keys_pressed":["rightarrow","leftarrow","leftarrow","rightarrow","leftarrow","leftarrow","rightarrow","rightarrow","rightarrow","leftarrow"],"horizon":10,"forced_choices":["rightarrow","leftarrow","leftarrow","rightarrow"],"right_color":"lightblue","left_color":"orange","left_mu":60,"right_mu":52,"left_numbers":[50,60,49,63,63,49,59,55,54,68],"right_numbers":[49,45,44,40,54,35,60,53,63,57],"points_earned":554,"phase":"task","trial_type":"horizons-task","trial_index":23,"time_elapsed":480390,"internal_node_id":"0.0-19.0","task_version":"0.2"},{"response_times":[709,370,679,599.0000000000582,1272.9999999999418],"keys_pressed":["rightarrow","leftarrow","leftarrow","leftarrow","leftarrow"],"horizon":5,"forced_choices":["rightarrow","leftarrow","leftarrow","leftarrow"],"right_color":"orange","left_color":"lightblue","left_mu":40,"right_mu":32,"left_numbers":[43,45,34,34,45],"right_numbers":[27,41,28,34,27],"points_earned":185,"phase":"task","trial_type":"horizons-task","trial_index":24,"time_elapsed":485524,"internal_node_id":"0.0-20.0","task_version":"0.2"},{"response_times":[505,420.0000000000582,359.9999999999418,493,1246,639,742,553,685,420],"keys_pressed":["leftarrow","rightarrow","leftarrow","leftarrow","leftarrow","rightarrow","leftarrow","leftarrow","leftarrow","leftarrow"],"horizon":10,"forced_choices":["leftarrow","rightarrow","leftarrow","leftarrow"],"right_color":"lightblue","left_color":"orange","left_mu":40,"right_mu":36,"left_numbers":[31,38,36,42,45,34,45,41,46,50],"right_numbers":[34,46,37,30,24,21,30,43,32,32],"points_earned":403,"phase":"task","trial_type":"horizons-task","trial_index":25,"time_elapsed":493092,"internal_node_id":"0.0-21.0","task_version":"0.2"},{"response_times":[598,552,424,440,507,781,709,270,613,474],"keys_pressed":["leftarrow","leftarrow","rightarrow","leftarrow","rightarrow","rightarrow","rightarrow","leftarrow","rightarrow","rightarrow"],"horizon":10,"forced_choices":["leftarrow","leftarrow","rightarrow","leftarrow"],"right_color":"lightblue","left_color":"orange","left_mu":40,"right_mu":52,"left_numbers":[50,54,40,32,18,49,42,39,33,30],"right_numbers":[66,68,63,59,54,56,49,40,53,56],"points_earned":506,"phase":"task","trial_type":"horizons-task","trial_index":26,"time_elapsed":499965,"internal_node_id":"0.0-22.0","task_version":"0.2"},{"response_times":[549.0000000000582,421.9999999999418,504,701,451],"keys_pressed":["rightarrow","rightarrow","leftarrow","leftarrow","rightarrow"],"horizon":5,"forced_choices":["rightarrow","rightarrow","leftarrow","leftarrow"],"right_color":"lightblue","left_color":"orange","left_mu":40,"right_mu":10,"left_numbers":[36,34,46,44,40],"right_numbers":[20,0,18,11,0],"points_earned":110,"phase":"task","trial_type":"horizons-task","trial_index":27,"time_elapsed":504097,"internal_node_id":"0.0-23.0","task_version":"0.2"},{"response_times":[565,514.0000000000582,440,385.9999999999418,1425],"keys_pressed":["rightarrow","rightarrow","leftarrow","rightarrow","leftarrow"],"horizon":5,"forced_choices":["rightarrow","rightarrow","leftarrow","rightarrow"],"right_color":"lightblue","left_color":"orange","left_mu":40,"right_mu":10,"left_numbers":[37,41,33,27,39],"right_numbers":[17,21,14,10,14],"points_earned":120,"phase":"task","trial_type":"horizons-task","trial_index":28,"time_elapsed":508931,"internal_node_id":"0.0-24.0","task_version":"0.2"},{"response_times":[543.0000000000582,429.9999999999418,595,365,2535,715,1015,608.0000000000582,510,626],"keys_pressed":["rightarrow","rightarrow","leftarrow","rightarrow","rightarrow","leftarrow","leftarrow","leftarrow","rightarrow","leftarrow"],"horizon":10,"forced_choices":["rightarrow","rightarrow","leftarrow","rightarrow"],"right_color":"lightblue","left_color":"orange","left_mu":40,"right_mu":28,"left_numbers":[37,33,35,50,39,29,33,45,46,40],"right_numbers":[24,17,28,32,24,24,33,35,23,19],"points_earned":302,"phase":"task","trial_type":"horizons-task","trial_index":29,"time_elapsed":518378,"internal_node_id":"0.0-25.0","task_version":"0.2"},{"response_times":[487.9999999999418,413.9999999999418,419.0000000001164,948,399.9999999999418,471,444,388,407.0000000000582,348.9999999999418],"keys_pressed":["rightarrow","leftarrow","rightarrow","leftarrow","rightarrow","rightarrow","rightarrow","rightarrow","rightarrow","rightarrow"],"horizon":10,"forced_choices":["rightarrow","leftarrow","rightarrow","leftarrow"],"right_color":"orange","left_color":"lightblue","left_mu":40,"right_mu":70,"left_numbers":[40,31,46,41,43,36,25,33,29,40],"right_numbers":[72,61,77,59,76,72,66,75,60,60],"points_earned":630,"phase":"task","trial_type":"horizons-task","trial_index":30,"time_elapsed":524611,"internal_node_id":"0.0-26.0","task_version":"0.2"},{"response_times":[814,383,647,462,1270,460,493,397.9999999998836,389.9999999998836,554],"keys_pressed":["leftarrow","rightarrow","rightarrow","rightarrow","leftarrow","leftarrow","leftarrow","leftarrow","rightarrow","leftarrow"],"horizon":10,"forced_choices":["leftarrow","rightarrow","rightarrow","rightarrow"],"right_color":"orange","left_color":"lightblue","left_mu":40,"right_mu":20,"left_numbers":[51,51,30,46,40,55,34,47,32,44],"right_numbers":[15,19,31,10,30,30,15,13,16,14],"points_earned":347,"phase":"task","trial_type":"horizons-task","trial_index":31,"time_elapsed":531989,"internal_node_id":"0.0-27.0","task_version":"0.2"},{"response_times":[629,465,749,506,469,426,357,339,373,316],"keys_pressed":["leftarrow","leftarrow","rightarrow","rightarrow","rightarrow","rightarrow","rightarrow","rightarrow","rightarrow","rightarrow"],"horizon":10,"forced_choices":["leftarrow","leftarrow","rightarrow","rightarrow"],"right_color":"lightblue","left_color":"orange","left_mu":40,"right_mu":60,"left_numbers":[39,34,26,39,28,41,36,42,40,55],"right_numbers":[47,60,62,61,60,59,43,57,54,54],"points_earned":523,"phase":"task","trial_type":"horizons-task","trial_index":32,"time_elapsed":538124,"internal_node_id":"0.0-28.0","task_version":"0.2"},{"response_times":[584,573,394,379,3616.0000000001164],"keys_pressed":["rightarrow","rightarrow","leftarrow","rightarrow","rightarrow"],"horizon":5,"forced_choices":["rightarrow","rightarrow","leftarrow","rightarrow"],"right_color":"lightblue","left_color":"orange","left_mu":40,"right_mu":28,"left_numbers":[39,43,32,32,25],"right_numbers":[44,17,29,19,27],"points_earned":139,"phase":"task","trial_type":"horizons-task","trial_index":33,"time_elapsed":545176,"internal_node_id":"0.0-29.0","task_version":"0.2"},{"response_times":[929,380,501,767,442.0000000001164,966.9999999998836,757,1103.0000000001164,722.9999999998836,341],"keys_pressed":["leftarrow","rightarrow","rightarrow","leftarrow","rightarrow","leftarrow","rightarrow","rightarrow","rightarrow","leftarrow"],"horizon":10,"forced_choices":["leftarrow","rightarrow","rightarrow","leftarrow"],"right_color":"lightblue","left_color":"orange","left_mu":60,"right_mu":56,"left_numbers":[64,56,52,46,62,57,54,55,56,65],"right_numbers":[58,69,45,67,60,66,66,55,61,59],"points_earned":588,"phase":"task","trial_type":"horizons-task","trial_index":34,"time_elapsed":553590,"internal_node_id":"0.0-30.0","task_version":"0.2"},{"response_times":[84,685,618,554,1089,449,349,261,209,204],"keys_pressed":["rightarrow","leftarrow","leftarrow","rightarrow","rightarrow","rightarrow","rightarrow","rightarrow","rightarrow","rightarrow"],"horizon":10,"forced_choices":["rightarrow","leftarrow","leftarrow","rightarrow"],"right_color":"orange","left_color":"lightblue","left_mu":60,"right_mu":90,"left_numbers":[65,38,60,63,62,69,51,70,53,55],"right_numbers":[88,88,76,87,88,95,79,90,89,94],"points_earned":808,"phase":"task","trial_type":"horizons-task","trial_index":35,"time_elapsed":559597,"internal_node_id":"0.0-31.0","task_version":"0.2"},{"response_times":[2192,397,348,706,448,710,388,406,329,414],"keys_pressed":["leftarrow","rightarrow","leftarrow","leftarrow","rightarrow","leftarrow","leftarrow","leftarrow","rightarrow","rightarrow"],"horizon":10,"forced_choices":["leftarrow","rightarrow","leftarrow","leftarrow"],"right_color":"orange","left_color":"lightblue","left_mu":60,"right_mu":90,"left_numbers":[66,55,46,60,55,57,63,45,61,58],"right_numbers":[101,75,81,92,84,75,79,99,85,86],"points_earned":667,"phase":"task","trial_type":"horizons-task","trial_index":36,"time_elapsed":567440,"internal_node_id":"0.0-32.0","task_version":"0.2"},{"response_times":[483.9999999998836,421,627,435,363],"keys_pressed":["rightarrow","leftarrow","leftarrow","rightarrow","rightarrow"],"horizon":5,"forced_choices":["rightarrow","leftarrow","leftarrow","rightarrow"],"right_color":"orange","left_color":"lightblue","left_mu":40,"right_mu":48,"left_numbers":[36,16,38,44,35],"right_numbers":[61,52,62,35,32],"points_earned":182,"phase":"task","trial_type":"horizons-task","trial_index":37,"time_elapsed":571276,"internal_node_id":"0.0-33.0","task_version":"0.2"},{"response_times":[499,1122.0000000001164,731.9999999998836,386,739],"keys_pressed":["leftarrow","rightarrow","leftarrow","rightarrow","leftarrow"],"horizon":5,"forced_choices":["leftarrow","rightarrow","leftarrow","rightarrow"],"right_color":"lightblue","left_color":"orange","left_mu":40,"right_mu":28,"left_numbers":[44,43,49,27,24],"right_numbers":[34,28,23,21,23],"points_earned":166,"phase":"task","trial_type":"horizons-task","trial_index":38,"time_elapsed":576261,"internal_node_id":"0.0-34.0","task_version":"0.2"},{"response_times":[2159.9999999998836,533,526,484,840],"keys_pressed":["rightarrow","rightarrow","rightarrow","leftarrow","leftarrow"],"horizon":5,"forced_choices":["rightarrow","rightarrow","rightarrow","leftarrow"],"right_color":"orange","left_color":"lightblue","left_mu":60,"right_mu":48,"left_numbers":[65,54,61,65,57],"right_numbers":[44,47,37,57,47],"points_earned":250,"phase":"task","trial_type":"horizons-task","trial_index":39,"time_elapsed":582312,"internal_node_id":"0.0-35.0","task_version":"0.2"},{"response_times":[2049,472,481,433,698.0000000001164,610.9999999998836,546,377,409,291],"keys_pressed":["rightarrow","rightarrow","leftarrow","rightarrow","rightarrow","leftarrow","rightarrow","rightarrow","rightarrow","rightarrow"],"horizon":10,"forced_choices":["rightarrow","rightarrow","leftarrow","rightarrow"],"right_color":"orange","left_color":"lightblue","left_mu":40,"right_mu":44,"left_numbers":[56,24,31,36,31,23,21,32,33,33],"right_numbers":[45,41,51,37,32,49,58,43,49,31],"points_earned":390,"phase":"task","trial_type":"horizons-task","trial_index":40,"time_elapsed":590185,"internal_node_id":"0.0-36.0","task_version":"0.2"},{"response_times":[1386,458,498,421,459,599,277,189,173,162],"keys_pressed":["rightarrow","rightarrow","leftarrow","rightarrow","leftarrow","leftarrow","leftarrow","leftarrow","leftarrow","leftarrow"],"horizon":10,"forced_choices":["rightarrow","rightarrow","leftarrow","rightarrow"],"right_color":"lightblue","left_color":"orange","left_mu":40,"right_mu":10,"left_numbers":[27,47,42,29,40,52,40,31,39,33],"right_numbers":[0,15,21,1,6,6,13,2,11,0],"points_earned":293,"phase":"task","trial_type":"horizons-task","trial_index":41,"time_elapsed":596312,"internal_node_id":"0.0-37.0","task_version":"0.2"},{"response_times":[893,398,353,636,387,315,276,270.0000000001164,352.9999999998836,359],"keys_pressed":["rightarrow","leftarrow","rightarrow","rightarrow","rightarrow","rightarrow","rightarrow","rightarrow","rightarrow","rightarrow"],"horizon":10,"forced_choices":["rightarrow","leftarrow","rightarrow","rightarrow"],"right_color":"lightblue","left_color":"orange","left_mu":60,"right_mu":68,"left_numbers":[56,61,57,67,57,67,58,43,67,74],"right_numbers":[50,76,70,67,60,79,67,64,80,65],"points_earned":663,"phase":"task","trial_type":"horizons-task","trial_index":42,"time_elapsed":602057,"internal_node_id":"0.0-38.0","task_version":"0.2"},{"response_times":[617,373.0000000001164,289.9999999998836,555,786],"keys_pressed":["rightarrow","leftarrow","rightarrow","rightarrow","rightarrow"],"horizon":5,"forced_choices":["rightarrow","leftarrow","rightarrow","rightarrow"],"right_color":"lightblue","left_color":"orange","left_mu":60,"right_mu":68,"left_numbers":[52,60,48,81,61],"right_numbers":[83,66,60,77,63],"points_earned":343,"phase":"task","trial_type":"horizons-task","trial_index":43,"time_elapsed":606183,"internal_node_id":"0.0-39.0","task_version":"0.2"},{"response_times":[431.0000000001164,279.9999999998836,616,614,382,607,384,368,620,456],"keys_pressed":["rightarrow","leftarrow","leftarrow","leftarrow","rightarrow","leftarrow","leftarrow","rightarrow","leftarrow","leftarrow"],"horizon":10,"forced_choices":["rightarrow","leftarrow","leftarrow","leftarrow"],"right_color":"orange","left_color":"lightblue","left_mu":40,"right_mu":32,"left_numbers":[33,52,37,44,37,36,41,40,42,35],"right_numbers":[45,41,23,44,31,28,47,16,29,25],"points_earned":379,"phase":"task","trial_type":"horizons-task","trial_index":44,"time_elapsed":612450,"internal_node_id":"0.0-40.0","task_version":"0.2"},{"response_times":[1227,505,471,427,736],"keys_pressed":["rightarrow","rightarrow","rightarrow","leftarrow","rightarrow"],"horizon":5,"forced_choices":["rightarrow","rightarrow","rightarrow","leftarrow"],"right_color":"lightblue","left_color":"orange","left_mu":40,"right_mu":60,"left_numbers":[50,38,30,47,27],"right_numbers":[56,58,65,56,50],"points_earned":276,"phase":"task","trial_type":"horizons-task","trial_index":45,"time_elapsed":617320,"internal_node_id":"0.0-41.0","task_version":"0.2"},{"response_times":[552.9999999998836,530,370,584,431],"keys_pressed":["leftarrow","leftarrow","rightarrow","leftarrow","rightarrow"],"horizon":5,"forced_choices":["leftarrow","leftarrow","rightarrow","leftarrow"],"right_color":"orange","left_color":"lightblue","left_mu":40,"right_mu":70,"left_numbers":[24,43,43,33,33],"right_numbers":[71,58,68,80,69],"points_earned":237,"phase":"task","trial_type":"horizons-task","trial_index":46,"time_elapsed":621294,"internal_node_id":"0.0-42.0","task_version":"0.2"},{"response_times":[6529,511,1337,376.0000000001164,394,372.9999999998836,296,198,147,256],"keys_pressed":["rightarrow","leftarrow","rightarrow","leftarrow","rightarrow","rightarrow","rightarrow","rightarrow","rightarrow","rightarrow"],"horizon":10,"forced_choices":["rightarrow","leftarrow","rightarrow","leftarrow"],"right_color":"lightblue","left_color":"orange","left_mu":40,"right_mu":52,"left_numbers":[40,47,37,34,35,45,26,59,40,48],"right_numbers":[45,52,49,52,54,40,48,56,53,57],"points_earned":483,"phase":"task","trial_type":"horizons-task","trial_index":47,"time_elapsed":633219,"internal_node_id":"0.0-43.0","task_version":"0.2"},{"response_times":[617,435,571,394,88,48,433,487.0000000001164,728.9999999998836,643],"keys_pressed":["leftarrow","rightarrow","rightarrow","rightarrow","leftarrow","rightarrow","rightarrow","leftarrow","rightarrow","leftarrow"],"horizon":10,"forced_choices":["leftarrow","rightarrow","rightarrow","rightarrow"],"right_color":"lightblue","left_color":"orange","left_mu":60,"right_mu":52,"left_numbers":[54,67,60,44,54,67,68,64,61,71],"right_numbers":[50,61,48,57,44,59,47,62,50,54],"points_earned":565,"phase":"task","trial_type":"horizons-task","trial_index":48,"time_elapsed":639170,"internal_node_id":"0.0-44.0","task_version":"0.2"},{"response_times":[771,624,627.0000000001164,704.9999999998836,427],"keys_pressed":["rightarrow","rightarrow","leftarrow","leftarrow","rightarrow"],"horizon":5,"forced_choices":["rightarrow","rightarrow","leftarrow","leftarrow"],"right_color":"lightblue","left_color":"orange","left_mu":60,"right_mu":72,"left_numbers":[70,50,52,66,54],"right_numbers":[70,66,72,80,58],"points_earned":312,"phase":"task","trial_type":"horizons-task","trial_index":49,"time_elapsed":643829,"internal_node_id":"0.0-45.0","task_version":"0.2"},{"response_times":[583,464,392,580,608],"keys_pressed":["leftarrow","rightarrow","leftarrow","rightarrow","rightarrow"],"horizon":5,"forced_choices":["leftarrow","rightarrow","leftarrow","rightarrow"],"right_color":"orange","left_color":"lightblue","left_mu":60,"right_mu":80,"left_numbers":[50,74,78,65,59],"right_numbers":[75,87,88,83,80],"points_earned":378,"phase":"task","trial_type":"horizons-task","trial_index":50,"time_elapsed":647961,"internal_node_id":"0.0-46.0","task_version":"0.2"},{"view_history":"[{\"page_index\":0,\"viewing_time\":6611},{\"page_index\":1,\"viewing_time\":1372.0000000001164}]","rt":7984,"trial_type":"instructions","trial_index":51,"time_elapsed":655946,"internal_node_id":"0.0-47.0","task_version":"0.2"},{"response_times":[904.9999999998836,570,1248,684,548,508,358,275.0000000001164,205.99999999988358,175],"keys_pressed":["rightarrow","rightarrow","leftarrow","leftarrow","rightarrow","leftarrow","leftarrow","leftarrow","leftarrow","leftarrow"],"horizon":10,"forced_choices":["rightarrow","rightarrow","leftarrow","leftarrow"],"right_color":"lightblue","left_color":"orange","left_mu":40,"right_mu":10,"left_numbers":[47,54,28,29,37,32,43,28,41,27],"right_numbers":[14,17,25,0,0,4,0,6,8,22],"points_earned":259,"phase":"task","trial_type":"horizons-task","trial_index":52,"time_elapsed":662930,"internal_node_id":"0.0-48.0","task_version":"0.2"},{"response_times":[487,317,613.0000000001164,493.9999999998836,445,624,1254.0000000001164,599.9999999998836,1204,655],"keys_pressed":["rightarrow","leftarrow","leftarrow","leftarrow","rightarrow","rightarrow","rightarrow","leftarrow","rightarrow","leftarrow"],"horizon":10,"forced_choices":["rightarrow","leftarrow","leftarrow","leftarrow"],"right_color":"orange","left_color":"lightblue","left_mu":60,"right_mu":64,"left_numbers":[48,54,56,47,67,62,55,63,51,56],"right_numbers":[72,56,70,68,55,51,69,63,53,56],"points_earned":576,"phase":"task","trial_type":"horizons-task","trial_index":53,"time_elapsed":671128,"internal_node_id":"0.0-49.0","task_version":"0.2"},{"response_times":[810.0000000001164,380.9999999998836,528.0000000001164,495.9999999998836,561,419.0000000001164,390.9999999998836,550,405.0000000001164,303],"keys_pressed":["leftarrow","rightarrow","rightarrow","leftarrow","leftarrow","leftarrow","rightarrow","leftarrow","leftarrow","rightarrow"],"horizon":10,"forced_choices":["leftarrow","rightarrow","rightarrow","leftarrow"],"right_color":"lightblue","left_color":"orange","left_mu":60,"right_mu":30,"left_numbers":[56,57,54,63,54,47,64,71,54,52],"right_numbers":[26,25,28,29,17,20,32,35,33,24],"points_earned":454,"phase":"task","trial_type":"horizons-task","trial_index":54,"time_elapsed":677477,"internal_node_id":"0.0-50.0","task_version":"0.2"},{"response_times":[529,442.0000000001164,346,472.9999999998836,792,475,344,231,196,248],"keys_pressed":["leftarrow","rightarrow","leftarrow","rightarrow","leftarrow","leftarrow","leftarrow","leftarrow","leftarrow","leftarrow"],"horizon":10,"forced_choices":["leftarrow","rightarrow","leftarrow","rightarrow"],"right_color":"orange","left_color":"lightblue","left_mu":60,"right_mu":48,"left_numbers":[55,56,62,67,85,52,62,55,66,67],"right_numbers":[51,57,52,33,34,54,57,58,47,50],"points_earned":594,"phase":"task","trial_type":"horizons-task","trial_index":55,"time_elapsed":683058,"internal_node_id":"0.0-51.0","task_version":"0.2"},{"response_times":[518,293,709,499,845],"keys_pressed":["rightarrow","leftarrow","leftarrow","leftarrow","leftarrow"],"horizon":5,"forced_choices":["rightarrow","leftarrow","leftarrow","leftarrow"],"right_color":"orange","left_color":"lightblue","left_mu":60,"right_mu":40,"left_numbers":[55,62,47,75,72],"right_numbers":[44,47,27,54,45],"points_earned":300,"phase":"task","trial_type":"horizons-task","trial_index":56,"time_elapsed":687427,"internal_node_id":"0.0-52.0","task_version":"0.2"},{"response_times":[614.0000000001164,389,397,532,486],"keys_pressed":["rightarrow","leftarrow","rightarrow","leftarrow","rightarrow"],"horizon":5,"forced_choices":["rightarrow","leftarrow","rightarrow","leftarrow"],"right_color":"lightblue","left_color":"orange","left_mu":40,"right_mu":52,"left_numbers":[39,40,43,41,56],"right_numbers":[43,55,49,64,43],"points_earned":216,"phase":"task","trial_type":"horizons-task","trial_index":57,"time_elapsed":691355,"internal_node_id":"0.0-53.0","task_version":"0.2"},{"response_times":[2123,407,605,642,998],"keys_pressed":["leftarrow","rightarrow","rightarrow","rightarrow","leftarrow"],"horizon":5,"forced_choices":["leftarrow","rightarrow","rightarrow","rightarrow"],"right_color":"lightblue","left_color":"orange","left_mu":60,"right_mu":56,"left_numbers":[60,70,62,66,53],"right_numbers":[55,56,46,57,45],"points_earned":272,"phase":"task","trial_type":"horizons-task","trial_index":58,"time_elapsed":697635,"internal_node_id":"0.0-54.0","task_version":"0.2"},{"response_times":[1479,414,415,461,337],"keys_pressed":["rightarrow","leftarrow","rightarrow","rightarrow","rightarrow"],"horizon":5,"forced_choices":["rightarrow","leftarrow","rightarrow","rightarrow"],"right_color":"orange","left_color":"lightblue","left_mu":60,"right_mu":80,"left_numbers":[67,57,70,59,57],"right_numbers":[74,83,88,94,76],"points_earned":389,"phase":"task","trial_type":"horizons-task","trial_index":59,"time_elapsed":702247,"internal_node_id":"0.0-55.0","task_version":"0.2"},{"response_times":[977.0000000001164,521.9999999998836,520,498,658],"keys_pressed":["leftarrow","leftarrow","leftarrow","rightarrow","leftarrow"],"horizon":5,"forced_choices":["leftarrow","leftarrow","leftarrow","rightarrow"],"right_color":"lightblue","left_color":"orange","left_mu":60,"right_mu":30,"left_numbers":[69,54,55,57,56],"right_numbers":[37,31,29,16,24],"points_earned":250,"phase":"task","trial_type":"horizons-task","trial_index":60,"time_elapsed":706931,"internal_node_id":"0.0-56.0","task_version":"0.2"},{"response_times":[692,439,692.0000000001164,940.9999999998836,3799],"keys_pressed":["rightarrow","leftarrow","leftarrow","rightarrow","rightarrow"],"horizon":5,"forced_choices":["rightarrow","leftarrow","leftarrow","rightarrow"],"right_color":"orange","left_color":"lightblue","left_mu":40,"right_mu":44,"left_numbers":[46,44,28,40,49],"right_numbers":[48,36,39,35,43],"points_earned":198,"phase":"task","trial_type":"horizons-task","trial_index":61,"time_elapsed":715000,"internal_node_id":"0.0-57.0","task_version":"0.2"},{"response_times":[891.9999999998836,422,571,440,929.0000000001164,533.9999999998836,509.0000000001164,197.99999999988358,461.0000000001164,498.9999999998836],"keys_pressed":["leftarrow","rightarrow","rightarrow","leftarrow","rightarrow","leftarrow","rightarrow","leftarrow","leftarrow","leftarrow"],"horizon":10,"forced_choices":["leftarrow","rightarrow","rightarrow","leftarrow"],"right_color":"lightblue","left_color":"orange","left_mu":40,"right_mu":36,"left_numbers":[42,46,47,38,45,42,46,37,44,42],"right_numbers":[23,44,34,28,32,31,27,36,52,26],"points_earned":382,"phase":"task","trial_type":"horizons-task","trial_index":62,"time_elapsed":721962,"internal_node_id":"0.0-58.0","task_version":"0.2"},{"response_times":[524,611.0000000001164,385,408.9999999998836,441,834,301,294,217,210],"keys_pressed":["leftarrow","leftarrow","rightarrow","leftarrow","rightarrow","rightarrow","rightarrow","rightarrow","rightarrow","rightarrow"],"horizon":10,"forced_choices":["leftarrow","leftarrow","rightarrow","leftarrow"],"right_color":"lightblue","left_color":"orange","left_mu":60,"right_mu":72,"left_numbers":[52,56,59,65,49,56,67,64,67,78],"right_numbers":[61,68,60,73,76,73,73,77,84,70],"points_earned":686,"phase":"task","trial_type":"horizons-task","trial_index":63,"time_elapsed":727693,"internal_node_id":"0.0-59.0","task_version":"0.2"},{"response_times":[607,415,327,399,1040.0000000001164],"keys_pressed":["leftarrow","rightarrow","leftarrow","rightarrow","leftarrow"],"horizon":5,"forced_choices":["leftarrow","rightarrow","leftarrow","rightarrow"],"right_color":"orange","left_color":"lightblue","left_mu":60,"right_mu":48,"left_numbers":[46,47,56,57,67],"right_numbers":[31,58,45,44,54],"points_earned":271,"phase":"task","trial_type":"horizons-task","trial_index":64,"time_elapsed":731987,"internal_node_id":"0.0-60.0","task_version":"0.2"},{"response_times":[611,481,497,615,399,656.0000000001164,82,485,329,393],"keys_pressed":["rightarrow","rightarrow","leftarrow","leftarrow","rightarrow","leftarrow","rightarrow","rightarrow","rightarrow","rightarrow"],"horizon":10,"forced_choices":["rightarrow","rightarrow","leftarrow","leftarrow"],"right_color":"orange","left_color":"lightblue","left_mu":60,"right_mu":64,"left_numbers":[63,74,65,55,67,65,60,68,73,41],"right_numbers":[82,67,78,59,78,67,70,70,68,54],"points_earned":674,"phase":"task","trial_type":"horizons-task","trial_index":65,"time_elapsed":738042,"internal_node_id":"0.0-61.0","task_version":"0.2"},{"response_times":[507,383,378.0000000001164,822.9999999998836,877],"keys_pressed":["leftarrow","rightarrow","leftarrow","leftarrow","leftarrow"],"horizon":5,"forced_choices":["leftarrow","rightarrow","leftarrow","leftarrow"],"right_color":"lightblue","left_color":"orange","left_mu":40,"right_mu":36,"left_numbers":[47,37,43,39,39],"right_numbers":[33,29,53,43,35],"points_earned":197,"phase":"task","trial_type":"horizons-task","trial_index":66,"time_elapsed":742515,"internal_node_id":"0.0-62.0","task_version":"0.2"},{"response_times":[490,426.0000000001164,336.9999999998836,427,690],"keys_pressed":["leftarrow","leftarrow","rightarrow","leftarrow","rightarrow"],"horizon":5,"forced_choices":["leftarrow","leftarrow","rightarrow","leftarrow"],"right_color":"lightblue","left_color":"orange","left_mu":40,"right_mu":52,"left_numbers":[48,38,49,36,45],"right_numbers":[43,45,60,55,56],"points_earned":238,"phase":"task","trial_type":"horizons-task","trial_index":67,"time_elapsed":746389,"internal_node_id":"0.0-63.0","task_version":"0.2"},{"response_times":[511,535,385,418,458,586,169,473,323.0000000001164,395.9999999998836],"keys_pressed":["rightarrow","rightarrow","rightarrow","leftarrow","rightarrow","leftarrow","leftarrow","rightarrow","leftarrow","leftarrow"],"horizon":10,"forced_choices":["rightarrow","rightarrow","rightarrow","leftarrow"],"right_color":"orange","left_color":"lightblue","left_mu":60,"right_mu":48,"left_numbers":[51,63,68,58,78,54,73,54,51,57],"right_numbers":[56,45,52,49,36,52,64,39,39,55],"points_earned":521,"phase":"task","trial_type":"horizons-task","trial_index":68,"time_elapsed":752149,"internal_node_id":"0.0-64.0","task_version":"0.2"},{"response_times":[703,586,395,638,1222],"keys_pressed":["rightarrow","rightarrow","leftarrow","leftarrow","rightarrow"],"horizon":5,"forced_choices":["rightarrow","rightarrow","leftarrow","leftarrow"],"right_color":"orange","left_color":"lightblue","left_mu":60,"right_mu":64,"left_numbers":[62,67,52,50,66],"right_numbers":[65,62,71,70,62],"points_earned":291,"phase":"task","trial_type":"horizons-task","trial_index":69,"time_elapsed":757199,"internal_node_id":"0.0-65.0","task_version":"0.2"},{"response_times":[655.9999999998836,375,434,356,222,283,202,155,373.0000000001164,176.99999999988358],"keys_pressed":["rightarrow","leftarrow","rightarrow","rightarrow","rightarrow","rightarrow","rightarrow","rightarrow","rightarrow","rightarrow"],"horizon":10,"forced_choices":["rightarrow","leftarrow","rightarrow","rightarrow"],"right_color":"orange","left_color":"lightblue","left_mu":60,"right_mu":80,"left_numbers":[75,39,64,61,48,60,61,50,58,53],"right_numbers":[74,87,64,67,74,88,76,75,71,107],"points_earned":735,"phase":"task","trial_type":"horizons-task","trial_index":70,"time_elapsed":761940,"internal_node_id":"0.0-66.0","task_version":"0.2"},{"response_times":[368,274,430,943.0000000001164,208.99999999988358],"keys_pressed":["rightarrow","leftarrow","rightarrow","leftarrow","rightarrow"],"horizon":5,"forced_choices":["rightarrow","leftarrow","rightarrow","leftarrow"],"right_color":"orange","left_color":"lightblue","left_mu":40,"right_mu":70,"left_numbers":[30,48,35,39,54],"right_numbers":[69,68,65,67,71],"points_earned":292,"phase":"task","trial_type":"horizons-task","trial_index":71,"time_elapsed":765667,"internal_node_id":"0.0-67.0","task_version":"0.2"},{"response_times":[497,235,409,479,1416.0000000001164],"keys_pressed":["leftarrow","rightarrow","leftarrow","rightarrow","rightarrow"],"horizon":5,"forced_choices":["leftarrow","rightarrow","leftarrow","rightarrow"],"right_color":"lightblue","left_color":"orange","left_mu":60,"right_mu":68,"left_numbers":[66,60,57,58,71],"right_numbers":[71,64,78,68,70],"points_earned":325,"phase":"task","trial_type":"horizons-task","trial_index":72,"time_elapsed":770210,"internal_node_id":"0.0-68.0","task_version":"0.2"},{"response_times":[540.9999999998836,560.0000000001164,367.9999999998836,404,466],"keys_pressed":["rightarrow","rightarrow","leftarrow","rightarrow","rightarrow"],"horizon":5,"forced_choices":["rightarrow","rightarrow","leftarrow","rightarrow"],"right_color":"orange","left_color":"lightblue","left_mu":40,"right_mu":44,"left_numbers":[39,42,33,51,44],"right_numbers":[41,42,40,50,54],"points_earned":220,"phase":"task","trial_type":"horizons-task","trial_index":73,"time_elapsed":774054,"internal_node_id":"0.0-69.0","task_version":"0.2"},{"response_times":[392,560,401.0000000001164,362.9999999998836,396,509,428,275.0000000001164,245.99999999988358,334],"keys_pressed":["leftarrow","leftarrow","rightarrow","rightarrow","leftarrow","leftarrow","leftarrow","leftarrow","leftarrow","leftarrow"],"horizon":10,"forced_choices":["leftarrow","leftarrow","rightarrow","rightarrow"],"right_color":"orange","left_color":"lightblue","left_mu":40,"right_mu":20,"left_numbers":[22,43,39,41,33,51,43,33,41,39],"right_numbers":[17,18,19,14,21,31,25,4,21,18],"points_earned":338,"phase":"task","trial_type":"horizons-task","trial_index":74,"time_elapsed":779463,"internal_node_id":"0.0-70.0","task_version":"0.2"},{"response_times":[499,401,220,679,304],"keys_pressed":["leftarrow","rightarrow","leftarrow","leftarrow","rightarrow"],"horizon":5,"forced_choices":["leftarrow","rightarrow","leftarrow","leftarrow"],"right_color":"orange","left_color":"lightblue","left_mu":60,"right_mu":90,"left_numbers":[57,58,42,60,57],"right_numbers":[99,86,81,84,84],"points_earned":329,"phase":"task","trial_type":"horizons-task","trial_index":75,"time_elapsed":783069,"internal_node_id":"0.0-71.0","task_version":"0.2"},{"response_times":[404,585,299,686,474],"keys_pressed":["leftarrow","leftarrow","rightarrow","rightarrow","leftarrow"],"horizon":5,"forced_choices":["leftarrow","leftarrow","rightarrow","rightarrow"],"right_color":"orange","left_color":"lightblue","left_mu":40,"right_mu":20,"left_numbers":[36,53,43,49,50],"right_numbers":[33,22,23,20,28],"points_earned":182,"phase":"task","trial_type":"horizons-task","trial_index":76,"time_elapsed":787061,"internal_node_id":"0.0-72.0","task_version":"0.2"},{"response_times":[349,592,422,463,508,591,543,357,334,240.00000000011642],"keys_pressed":["leftarrow","leftarrow","leftarrow","rightarrow","leftarrow","rightarrow","leftarrow","leftarrow","leftarrow","leftarrow"],"horizon":10,"forced_choices":["leftarrow","leftarrow","leftarrow","rightarrow"],"right_color":"lightblue","left_color":"orange","left_mu":60,"right_mu":30,"left_numbers":[61,44,62,60,51,46,58,65,54,68],"right_numbers":[24,48,37,32,30,27,14,21,41,38],"points_earned":522,"phase":"task","trial_type":"horizons-task","trial_index":77,"time_elapsed":792966,"internal_node_id":"0.0-73.0","task_version":"0.2"},{"response_times":[597,371,588,495.9999999998836,971,360,163,310,169,462],"keys_pressed":["rightarrow","leftarrow","leftarrow","leftarrow","leftarrow","leftarrow","leftarrow","leftarrow","leftarrow","leftarrow"],"horizon":10,"forced_choices":["rightarrow","leftarrow","leftarrow","leftarrow"],"right_color":"orange","left_color":"lightblue","left_mu":60,"right_mu":40,"left_numbers":[65,53,53,59,59,55,31,67,72,49],"right_numbers":[32,48,35,46,34,47,34,36,52,34],"points_earned":530,"phase":"task","trial_type":"horizons-task","trial_index":78,"time_elapsed":798960,"internal_node_id":"0.0-74.0","task_version":"0.2"},{"response_times":[541,319,659.0000000001164,372.9999999998836,381,423,260,122,531,460],"keys_pressed":["rightarrow","leftarrow","leftarrow","rightarrow","rightarrow","rightarrow","rightarrow","leftarrow","rightarrow","leftarrow"],"horizon":10,"forced_choices":["rightarrow","leftarrow","leftarrow","rightarrow"],"right_color":"orange","left_color":"lightblue","left_mu":40,"right_mu":48,"left_numbers":[48,37,36,44,45,48,42,60,36,28],"right_numbers":[52,50,43,47,37,51,43,39,50,45],"points_earned":441,"phase":"task","trial_type":"horizons-task","trial_index":79,"time_elapsed":804535,"internal_node_id":"0.0-75.0","task_version":"0.2"},{"response_times":[619,543,323,702,680,486.9999999998836,719.0000000001164,178,493.9999999998836,579],"keys_pressed":["leftarrow","leftarrow","rightarrow","rightarrow","leftarrow","rightarrow","rightarrow","leftarrow","rightarrow","leftarrow"],"horizon":10,"forced_choices":["leftarrow","leftarrow","rightarrow","rightarrow"],"right_color":"orange","left_color":"lightblue","left_mu":40,"right_mu":32,"left_numbers":[25,40,23,33,19,36,40,52,34,33],"right_numbers":[43,29,27,32,25,27,37,31,36,28],"points_earned":328,"phase":"task","trial_type":"horizons-task","trial_index":80,"time_elapsed":811366,"internal_node_id":"0.0-76.0","task_version":"0.2"},{"response_times":[587,364,276,363,868],"keys_pressed":["rightarrow","leftarrow","rightarrow","leftarrow","leftarrow"],"horizon":5,"forced_choices":["rightarrow","leftarrow","rightarrow","leftarrow"],"right_color":"orange","left_color":"lightblue","left_mu":60,"right_mu":40,"left_numbers":[45,52,75,63,62],"right_numbers":[45,21,56,44,45],"points_earned":278,"phase":"task","trial_type":"horizons-task","trial_index":81,"time_elapsed":815330,"internal_node_id":"0.0-77.0","task_version":"0.2"},{"response_times":[573.0000000001164,554.9999999998836,381,693,1055],"keys_pressed":["leftarrow","leftarrow","rightarrow","rightarrow","rightarrow"],"horizon":5,"forced_choices":["leftarrow","leftarrow","rightarrow","rightarrow"],"right_color":"lightblue","left_color":"orange","left_mu":40,"right_mu":60,"left_numbers":[49,45,47,28,36],"right_numbers":[58,62,67,51,63],"points_earned":275,"phase":"task","trial_type":"horizons-task","trial_index":82,"time_elapsed":820092,"internal_node_id":"0.0-78.0","task_version":"0.2"},{"response_times":[531,282,230,485,574,368.0000000001164,207.99999999988358,406,337,226],"keys_pressed":["leftarrow","leftarrow","leftarrow","rightarrow","rightarrow","rightarrow","leftarrow","rightarrow","leftarrow","rightarrow"],"horizon":10,"forced_choices":["leftarrow","leftarrow","leftarrow","rightarrow"],"right_color":"orange","left_color":"lightblue","left_mu":40,"right_mu":48,"left_numbers":[31,24,32,34,40,53,27,39,40,45],"right_numbers":[46,40,61,51,53,41,55,43,43,47],"points_earned":389,"phase":"task","trial_type":"horizons-task","trial_index":83,"time_elapsed":825244,"internal_node_id":"0.0-79.0","task_version":"0.2"},{"response_times":[445,349.0000000001164,504.9999999998836,441.0000000001164,833.9999999998836],"keys_pressed":["rightarrow","leftarrow","leftarrow","rightarrow","rightarrow"],"horizon":5,"forced_choices":["rightarrow","leftarrow","leftarrow","rightarrow"],"right_color":"lightblue","left_color":"orange","left_mu":60,"right_mu":52,"left_numbers":[70,59,45,60,49],"right_numbers":[53,38,63,64,49],"points_earned":270,"phase":"task","trial_type":"horizons-task","trial_index":84,"time_elapsed":829327,"internal_node_id":"0.0-80.0","task_version":"0.2"},{"response_times":[470.0000000001164,425.9999999998836,704.0000000001164,841.9999999998836,517],"keys_pressed":["leftarrow","rightarrow","rightarrow","rightarrow","leftarrow"],"horizon":5,"forced_choices":["leftarrow","rightarrow","rightarrow","rightarrow"],"right_color":"lightblue","left_color":"orange","left_mu":60,"right_mu":52,"left_numbers":[70,65,66,48,49],"right_numbers":[57,51,50,56,49],"points_earned":276,"phase":"task","trial_type":"horizons-task","trial_index":85,"time_elapsed":833792,"internal_node_id":"0.0-81.0","task_version":"0.2"},{"response_times":[567,567,477,507,476,1198,238,587.0000000001164,399.9999999998836,283],"keys_pressed":["rightarrow","rightarrow","leftarrow","leftarrow","rightarrow","rightarrow","leftarrow","rightarrow","rightarrow","rightarrow"],"horizon":10,"forced_choices":["rightarrow","rightarrow","leftarrow","leftarrow"],"right_color":"lightblue","left_color":"orange","left_mu":60,"right_mu":72,"left_numbers":[48,57,69,50,52,68,60,60,63,49],"right_numbers":[62,70,72,69,73,84,68,79,76,68],"points_earned":691,"phase":"task","trial_type":"horizons-task","trial_index":86,"time_elapsed":840598,"internal_node_id":"0.0-82.0","task_version":"0.2"},{"response_times":[430,216,411,365,538.0000000001164,492.9999999998836,428,429.0000000001164,103.99999999988358,673],"keys_pressed":["rightarrow","leftarrow","rightarrow","leftarrow","leftarrow","rightarrow","leftarrow","rightarrow","leftarrow","leftarrow"],"horizon":10,"forced_choices":["rightarrow","leftarrow","rightarrow","leftarrow"],"right_color":"orange","left_color":"lightblue","left_mu":60,"right_mu":40,"left_numbers":[57,69,58,52,65,54,47,46,70,52],"right_numbers":[43,44,28,55,30,44,44,43,51,39],"points_earned":513,"phase":"task","trial_type":"horizons-task","trial_index":87,"time_elapsed":846191,"internal_node_id":"0.0-83.0","task_version":"0.2"},{"response_times":[548,309.0000000001164,914,819,1451],"keys_pressed":["leftarrow","rightarrow","rightarrow","rightarrow","leftarrow"],"horizon":5,"forced_choices":["leftarrow","rightarrow","rightarrow","rightarrow"],"right_color":"orange","left_color":"lightblue","left_mu":40,"right_mu":20,"left_numbers":[32,29,32,33,37],"right_numbers":[14,15,23,27,31],"points_earned":134,"phase":"task","trial_type":"horizons-task","trial_index":88,"time_elapsed":851742,"internal_node_id":"0.0-84.0","task_version":"0.2"},{"response_times":[536,410,597.0000000001164,519.9999999998836,680],"keys_pressed":["rightarrow","leftarrow","leftarrow","rightarrow","rightarrow"],"horizon":5,"forced_choices":["rightarrow","leftarrow","leftarrow","rightarrow"],"right_color":"orange","left_color":"lightblue","left_mu":60,"right_mu":90,"left_numbers":[57,54,53,75,63],"right_numbers":[96,93,85,83,111],"points_earned":397,"phase":"task","trial_type":"horizons-task","trial_index":89,"time_elapsed":855990,"internal_node_id":"0.0-85.0","task_version":"0.2"},{"response_times":[642,409,339,371.0000000001164,397.9999999998836,338.0000000001164,439.9999999998836,214,249,372],"keys_pressed":["leftarrow","rightarrow","leftarrow","rightarrow","leftarrow","rightarrow","rightarrow","leftarrow","rightarrow","rightarrow"],"horizon":10,"forced_choices":["leftarrow","rightarrow","leftarrow","rightarrow"],"right_color":"orange","left_color":"lightblue","left_mu":60,"right_mu":80,"left_numbers":[60,76,66,63,64,58,51,60,55,65],"right_numbers":[79,91,82,80,97,65,95,76,73,69],"points_earned":723,"phase":"task","trial_type":"horizons-task","trial_index":90,"time_elapsed":861266,"internal_node_id":"0.0-86.0","task_version":"0.2"},{"response_times":[552,411,589,368,544],"keys_pressed":["leftarrow","rightarrow","rightarrow","leftarrow","leftarrow"],"horizon":5,"forced_choices":["leftarrow","rightarrow","rightarrow","leftarrow"],"right_color":"lightblue","left_color":"orange","left_mu":40,"right_mu":36,"left_numbers":[48,49,31,48,41],"right_numbers":[35,41,36,27,25],"points_earned":214,"phase":"task","trial_type":"horizons-task","trial_index":91,"time_elapsed":865235,"internal_node_id":"0.0-87.0","task_version":"0.2"},{"rt":24102.000000000116,"responses":{"age":"21","gender-categorical":"Female","gender-free-response":"","ethnicity":"Not Hispanic or Latino","race":["Rather not say"],"language":"Yes","fluency":"Very well"},"survey":"demographics","trial_type":"survey-demo","trial_index":92,"time_elapsed":889343,"internal_node_id":"0.0-88.0","task_version":"0.2"},{"rt":41179,"responses":{"difficulty":"3","fun":"5","clarity":"5","strategy":"I chose the side with the highest numbers possible","feedback":"No"},"survey":"debrief","trial_type":"survey-debrief","trial_index":93,"time_elapsed":930526,"internal_node_id":"0.0-89.0","task_version":"0.2","interactions":"[]"}]