[{"view_history":"[{\"page_index\":0,\"viewing_time\":3903.100000228733}]","rt":3905.269999988377,"trial_type":"instructions","trial_index":0,"time_elapsed":3925,"internal_node_id":"0.0-0.0","task_version":"0.2"},{"item_order":[1,10,4,9,3,5,11,6,2,7,0,8,12],"responses":{"Q02":"3","Q11":"1","Q05":"4","Q10":"0","Q04":"3","Q06":"0","Q12":"0","Q07":"0","Q03":"0","Q08":"2","Q01":"0","Q09":"1","Q13":"4"},"radio_events":[6589.859999716282,12321.544999722391,18238.639999646693,22552.25499998778,27613.024999853224,31436.08499970287,35031.91999997944,41758.80499975756,42727.68499981612,46851.064999587834,49031.19000000879,53352.04499959946,55999.099999666214],"key_events":[],"mouse_events":[0.6899996660649776,4222.889999859035,6589.859999716282,12321.544999722391,18238.639999646693,22552.25499998778,26430.02499965951,27613.024999853224,31436.08499970287,35031.91999997944,39439.58000000566,41758.80499975756,42727.68499981612,46851.064999587834,49031.19000000879,53352.04499959946,55999.099999666214,58240.02999998629],"rt":58246.264999732375,"survey":"ius12","trial_type":"survey-template","trial_index":1,"time_elapsed":62184,"internal_node_id":"0.0-1.0","task_version":"0.2"},{"item_order":[11,13,12,15,0,10,4,5,3,9,6,8,1,7,2,14],"responses":{"Q12":"4","Q14":"0","Q13":"4","Q16":"5","Q01":"4","Q11":"4","Q05":"1","Q06":"3","Q04":"4","Q10":"5","Q07":"3","Q09":"3","Q02":"2","Q08":"2","Q03":"4","Q15":"4"},"radio_events":[6121.8499997630715,13539.76000007242,16853.844999801368,23961.80999977514,27342.114999890327,34816.449999809265,39288.73000014573,45568.36999999359,51928.425000049174,56875.83999987692,60742.63500003144,67481.59499978647,74084.27499979734,80895.71999991313,85512.46999995783,88386.7250001058],"key_events":[],"mouse_events":[6121.8499997630715,13539.76000007242,16853.844999801368,20851.319999899715,23961.80999977514,27342.114999890327,34816.449999809265,39288.73000014573,45568.36999999359,51928.425000049174,56875.83999987692,60742.63500003144,67481.59499978647,74084.27499979734,80895.71999991313,85512.46999995783,88386.7250001058,89208.1749998033],"rt":89211.13000018522,"survey":"nfc","trial_type":"survey-template","trial_index":2,"time_elapsed":151404,"internal_node_id":"0.0-2.0","task_version":"0.2"},{"item_order":[8,14,0,12,10,11,3,1,6,5,2,9,7,4,16,15,13],"responses":{"Q09":"3","Q15":"2","Q01":"4","Q13":"3","Q11":"0","Q12":"1","Q04":"2","Q02":"0","Q07":"1","Q06":"3","Q03":"3","Q10":"4","Q08":"2","Q05":"3","Q17":"0","Q16":"3","Q14":"0"},"radio_events":[4756.399999838322,8704.579999670386,14842.84000005573,19670.504999812692,24504.249999765307,26831.47000009194,30205.36999963224,31721.254999749362,33647.97500008717,40429.05999999493,45451.7349996604,48584.594999905676,51921.00000008941,56492.22499970347,59716.304999776185,65153.849999886006,67024.92500003427],"key_events":[],"mouse_events":[4756.399999838322,8704.579999670386,14842.84000005573,19670.504999812692,24504.249999765307,26831.47000009194,30205.36999963224,31721.254999749362,33647.97500008717,38414.67999992892,40429.05999999493,45451.7349996604,48584.594999905676,51921.00000008941,56492.22499970347,59716.304999776185,65153.849999886006,67024.92500003427,68234.67499995604],"rt":68239.19999971986,"survey":"pswq","trial_type":"survey-template","trial_index":3,"time_elapsed":219647,"internal_node_id":"0.0-3.0","task_version":"0.2"},{"view_history":"[{\"page_index\":0,\"viewing_time\":4873.299999628216},{\"page_index\":1,\"viewing_time\":4247.644999995828},{\"page_index\":2,\"viewing_time\":8583.010000176728},{\"page_index\":3,\"viewing_time\":8727.080000098795},{\"page_index\":4,\"viewing_time\":6733.574999962002},{\"page_index\":5,\"viewing_time\":3760.515000205487},{\"page_index\":6,\"viewing_time\":7473.079999908805},{\"page_index\":7,\"viewing_time\":7425.879999995232},{\"page_index\":8,\"viewing_time\":10918.74000011012},{\"page_index\":9,\"viewing_time\":6344.854999799281}]","rt":69087.92499965057,"trial_type":"instructions","trial_index":4,"time_elapsed":288736,"internal_node_id":"0.0-4.0-0.0","task_version":"0.2"},{"response_times":[1007.6199998147786,942.7649998106062,609.6899998374283,729.0050000883639,7553.385000210255],"keys_pressed":["rightarrow","leftarrow","rightarrow","rightarrow","leftarrow"],"horizon":5,"forced_choices":["rightarrow","leftarrow","rightarrow","rightarrow"],"right_color":"lightblue","left_color":"orange","left_mu":40,"right_mu":20,"left_numbers":[34,35,37,41,46],"right_numbers":[34,7,22,30,2],"points_earned":167,"phase":"practice","trial_type":"horizons-task","trial_index":5,"time_elapsed":301089,"internal_node_id":"0.0-4.0-1.0","task_version":"0.2"},{"response_times":[1166.3449998013675,665.6399997882545,461.600000038743,618.650000076741,873.6899998039007,41.76500020548701,3312.0900001376867,2691.09999993816,4040.9099999815226,905.985000077635],"keys_pressed":["leftarrow","leftarrow","rightarrow","rightarrow","leftarrow","rightarrow","leftarrow","rightarrow","leftarrow","rightarrow"],"horizon":10,"forced_choices":["leftarrow","leftarrow","rightarrow","rightarrow"],"right_color":"orange","left_color":"lightblue","left_mu":60,"right_mu":70,"left_numbers":[47,62,63,64,58,58,59,61,57,59],"right_numbers":[72,66,63,55,56,56,69,72,66,71],"points_earned":600,"phase":"practice","trial_type":"horizons-task","trial_index":6,"time_elapsed":317370,"internal_node_id":"0.0-4.0-2.0","task_version":"0.2"},{"view_history":"[{\"page_index\":0,\"viewing_time\":1591.174999717623},{\"page_index\":1,\"viewing_time\":2646.8700002878904},{\"page_index\":2,\"viewing_time\":3912.2099997475743},{\"page_index\":3,\"viewing_time\":2249.920000322163}]","rt":10400.42999992147,"trial_type":"instructions","trial_index":7,"time_elapsed":327772,"internal_node_id":"0.0-4.0-3.0","task_version":"0.2"},{"responses":["true","false","true"],"num_errors":0,"rt":13918.165000155568,"trial_type":"horizons-comprehension","trial_index":8,"time_elapsed":341694,"internal_node_id":"0.0-4.0-4.0","task_version":"0.2"},{"trial_type":"call-function","trial_index":9,"time_elapsed":341701,"internal_node_id":"0.0-5.0","task_version":"0.2"},{"view_history":"[{\"page_index\":0,\"viewing_time\":1861.1099999397993},{\"page_index\":1,\"viewing_time\":4343.804999720305}]","rt":6205.579999834299,"trial_type":"instructions","trial_index":10,"time_elapsed":347908,"internal_node_id":"0.0-6.0","task_version":"0.2"},{"response_times":[1192.6449998281896,1779.2549999430776,901.564999949187,921.8099997378886,1617.6849999465048],"keys_pressed":["leftarrow","leftarrow","rightarrow","rightarrow","leftarrow"],"horizon":5,"forced_choices":["leftarrow","leftarrow","rightarrow","rightarrow"],"right_color":"lightblue","left_color":"orange","left_mu":40,"right_mu":20,"left_numbers":[34,42,22,39,44],"right_numbers":[9,32,27,22,26],"points_earned":169,"phase":"task","trial_type":"horizons-task","trial_index":11,"time_elapsed":355837,"internal_node_id":"0.0-7.0","task_version":"0.2"},{"response_times":[1322.035000193864,818.2699996978045,636.5800001658499,769.5800000801682,3425.505000166595],"keys_pressed":["rightarrow","rightarrow","leftarrow","rightarrow","leftarrow"],"horizon":5,"forced_choices":["rightarrow","rightarrow","leftarrow","rightarrow"],"right_color":"orange","left_color":"lightblue","left_mu":60,"right_mu":68,"left_numbers":[62,62,69,69,57],"right_numbers":[55,68,66,50,70],"points_earned":299,"phase":"task","trial_type":"horizons-task","trial_index":12,"time_elapsed":364311,"internal_node_id":"0.0-8.0","task_version":"0.2"},{"response_times":[804.5049998909235,958.5000001825392,756.3900002278388,729.2700000107288,3128.0600000172853,2156.6449999809265,863.965000025928,2067.784999962896,4962.744999676943,1081.114999949932],"keys_pressed":["leftarrow","rightarrow","rightarrow","leftarrow","leftarrow","leftarrow","rightarrow","rightarrow","leftarrow","leftarrow"],"horizon":10,"forced_choices":["leftarrow","rightarrow","rightarrow","leftarrow"],"right_color":"orange","left_color":"lightblue","left_mu":60,"right_mu":56,"left_numbers":[71,49,63,55,58,56,54,51,67,59],"right_numbers":[65,43,53,52,48,56,29,67,56,57],"points_earned":558,"phase":"task","trial_type":"horizons-task","trial_index":13,"time_elapsed":383323,"internal_node_id":"0.0-9.0","task_version":"0.2"},{"response_times":[1025.000000372529,580.4050001315773,740.7900001853704,636.1650000326335,2186.025000177324,1602.3450000211596,1232.9350002110004,517.2700001858175,424.4700004346669,1334.8399996757507],"keys_pressed":["rightarrow","leftarrow","leftarrow","leftarrow","rightarrow","rightarrow","leftarrow","leftarrow","leftarrow","leftarrow"],"horizon":10,"forced_choices":["rightarrow","leftarrow","leftarrow","leftarrow"],"right_color":"orange","left_color":"lightblue","left_mu":40,"right_mu":28,"left_numbers":[34,43,40,46,37,46,41,41,34,49],"right_numbers":[42,9,34,17,33,17,29,27,32,31],"points_earned":386,"phase":"task","trial_type":"horizons-task","trial_index":14,"time_elapsed":395108,"internal_node_id":"0.0-10.0","task_version":"0.2"},{"response_times":[854.5349999330938,474.8499998822808,1194.1649997606874,1835.8149998821318,3261.905000079423],"keys_pressed":["rightarrow","leftarrow","leftarrow","leftarrow","rightarrow"],"horizon":5,"forced_choices":["rightarrow","leftarrow","leftarrow","leftarrow"],"right_color":"orange","left_color":"lightblue","left_mu":40,"right_mu":70,"left_numbers":[52,47,39,46,39],"right_numbers":[64,92,73,70,68],"points_earned":264,"phase":"task","trial_type":"horizons-task","trial_index":15,"time_elapsed":404244,"internal_node_id":"0.0-11.0","task_version":"0.2"},{"response_times":[754.9700001254678,561.419999692589,455.70999989286065,694.3899998441339,2367.585000116378],"keys_pressed":["rightarrow","leftarrow","rightarrow","rightarrow","rightarrow"],"horizon":5,"forced_choices":["rightarrow","leftarrow","rightarrow","rightarrow"],"right_color":"lightblue","left_color":"orange","left_mu":60,"right_mu":90,"left_numbers":[50,49,66,49,57],"right_numbers":[94,104,102,85,79],"points_earned":409,"phase":"task","trial_type":"horizons-task","trial_index":16,"time_elapsed":410582,"internal_node_id":"0.0-12.0","task_version":"0.2"},{"response_times":[609.3450002372265,593.7050003558397,467.17000007629395,588.4099998511374,1847.1599998883903,2081.5249998122454,668.6199996620417,601.2700004503131,599.1949997842312,3127.5249999016523],"keys_pressed":["leftarrow","leftarrow","leftarrow","rightarrow","rightarrow","rightarrow","leftarrow","leftarrow","leftarrow","rightarrow"],"horizon":10,"forced_choices":["leftarrow","leftarrow","leftarrow","rightarrow"],"right_color":"lightblue","left_color":"orange","left_mu":40,"right_mu":36,"left_numbers":[33,49,29,33,37,32,46,49,25,41],"right_numbers":[46,23,40,41,38,39,40,36,26,34],"points_earned":383,"phase":"task","trial_type":"horizons-task","trial_index":17,"time_elapsed":423269,"internal_node_id":"0.0-13.0","task_version":"0.2"},{"response_times":[964.9600000120699,540.2050004340708,570.4149999655783,785.2849997580051,2146.665000356734,684.0949999168515,727.5399998761714,855.9449999593198,947.1950000151992,739.0350000932813],"keys_pressed":["rightarrow","rightarrow","leftarrow","rightarrow","leftarrow","leftarrow","leftarrow","leftarrow","leftarrow","leftarrow"],"horizon":10,"forced_choices":["rightarrow","rightarrow","leftarrow","rightarrow"],"right_color":"lightblue","left_color":"orange","left_mu":60,"right_mu":30,"left_numbers":[58,69,50,62,65,64,54,51,55,58],"right_numbers":[32,18,23,37,27,29,24,28,39,31],"points_earned":484,"phase":"task","trial_type":"horizons-task","trial_index":18,"time_elapsed":433735,"internal_node_id":"0.0-14.0","task_version":"0.2"},{"response_times":[598.8399996422231,711.5100002847612,529.5899999327958,458.2650000229478,2222.5599996745586,760.2550000883639,1278.8100000470877,610.7600000686944,481.03500017896295,858.2299998961389],"keys_pressed":["rightarrow","leftarrow","leftarrow","rightarrow","leftarrow","leftarrow","leftarrow","leftarrow","leftarrow","leftarrow"],"horizon":10,"forced_choices":["rightarrow","leftarrow","leftarrow","rightarrow"],"right_color":"orange","left_color":"lightblue","left_mu":40,"right_mu":28,"left_numbers":[36,42,31,36,44,41,43,44,47,27],"right_numbers":[23,39,19,28,34,33,27,25,19,32],"points_earned":370,"phase":"task","trial_type":"horizons-task","trial_index":19,"time_elapsed":443748,"internal_node_id":"0.0-15.0","task_version":"0.2"},{"response_times":[653.0200000852346,399.33500019833446,590.5799996107817,1215.4200002551079,1651.3149999082088],"keys_pressed":["rightarrow","leftarrow","leftarrow","rightarrow","leftarrow"],"horizon":5,"forced_choices":["rightarrow","leftarrow","leftarrow","rightarrow"],"right_color":"lightblue","left_color":"orange","left_mu":40,"right_mu":36,"left_numbers":[44,42,47,36,42],"right_numbers":[39,37,26,37,29],"points_earned":207,"phase":"task","trial_type":"horizons-task","trial_index":20,"time_elapsed":449763,"internal_node_id":"0.0-16.0","task_version":"0.2"},{"response_times":[560.4199999943376,916.5050000883639,580.8500000275671,493.6199998483062,1816.0399999469519,491.80500023067,1438.845000229776,758.0099999904633,1311.5250002592802,1014.8200001567602],"keys_pressed":["rightarrow","rightarrow","leftarrow","leftarrow","rightarrow","rightarrow","rightarrow","rightarrow","rightarrow","rightarrow"],"horizon":10,"forced_choices":["rightarrow","rightarrow","leftarrow","leftarrow"],"right_color":"lightblue","left_color":"orange","left_mu":40,"right_mu":48,"left_numbers":[33,39,28,49,43,33,37,25,31,37],"right_numbers":[60,41,46,45,48,45,57,39,47,33],"points_earned":447,"phase":"task","trial_type":"horizons-task","trial_index":21,"time_elapsed":460648,"internal_node_id":"0.0-17.0","task_version":"0.2"},{"response_times":[600.4700004123151,541.6450002230704,831.9700001738966,1034.4000002369285,1110.5700000189245],"keys_pressed":["leftarrow","rightarrow","rightarrow","rightarrow","leftarrow"],"horizon":5,"forced_choices":["leftarrow","rightarrow","rightarrow","rightarrow"],"right_color":"orange","left_color":"lightblue","left_mu":40,"right_mu":32,"left_numbers":[41,38,39,31,43],"right_numbers":[31,26,31,29,29],"points_earned":170,"phase":"task","trial_type":"horizons-task","trial_index":22,"time_elapsed":466269,"internal_node_id":"0.0-18.0","task_version":"0.2"},{"response_times":[684.2649998143315,652.4149999022484,662.525000050664,602.5499999523163,1549.3549997918308],"keys_pressed":["rightarrow","rightarrow","leftarrow","rightarrow","leftarrow"],"horizon":5,"forced_choices":["rightarrow","rightarrow","leftarrow","rightarrow"],"right_color":"lightblue","left_color":"orange","left_mu":60,"right_mu":30,"left_numbers":[57,60,68,60,61],"right_numbers":[13,47,43,32,20],"points_earned":221,"phase":"task","trial_type":"horizons-task","trial_index":23,"time_elapsed":471924,"internal_node_id":"0.0-19.0","task_version":"0.2"},{"response_times":[1965.0649996474385,628.0900002457201,602.1250002086163,543.090000282973,1381.1449999921024],"keys_pressed":["rightarrow","rightarrow","rightarrow","leftarrow","leftarrow"],"horizon":5,"forced_choices":["rightarrow","rightarrow","rightarrow","leftarrow"],"right_color":"lightblue","left_color":"orange","left_mu":40,"right_mu":20,"left_numbers":[35,48,41,44,45],"right_numbers":[18,24,22,27,17],"points_earned":153,"phase":"task","trial_type":"horizons-task","trial_index":24,"time_elapsed":478547,"internal_node_id":"0.0-20.0","task_version":"0.2"},{"response_times":[535.4300001636147,639.2100001685321,713.1849997676909,568.4899999760091,672.04499989748],"keys_pressed":["rightarrow","rightarrow","leftarrow","leftarrow","rightarrow"],"horizon":5,"forced_choices":["rightarrow","rightarrow","leftarrow","leftarrow"],"right_color":"lightblue","left_color":"orange","left_mu":60,"right_mu":64,"left_numbers":[66,64,51,59,63],"right_numbers":[70,68,61,64,63],"points_earned":311,"phase":"task","trial_type":"horizons-task","trial_index":25,"time_elapsed":483179,"internal_node_id":"0.0-21.0","task_version":"0.2"},{"response_times":[563.979999627918,576.884999871254,423.4350002370775,477.140000090003,1649.4200001470745],"keys_pressed":["rightarrow","rightarrow","leftarrow","rightarrow","rightarrow"],"horizon":5,"forced_choices":["rightarrow","rightarrow","leftarrow","rightarrow"],"right_color":"orange","left_color":"lightblue","left_mu":60,"right_mu":80,"left_numbers":[44,57,47,59,54],"right_numbers":[72,86,78,83,78],"points_earned":366,"phase":"task","trial_type":"horizons-task","trial_index":26,"time_elapsed":488374,"internal_node_id":"0.0-22.0","task_version":"0.2"},{"response_times":[536.1700002104044,640.2900000102818,524.6100001968443,477.590000256896,1837.0799999684095,1235.4049999266863,1501.2900000438094,1958.1400002352893,788.0700002424419,548.5450001433492],"keys_pressed":["rightarrow","rightarrow","leftarrow","leftarrow","rightarrow","rightarrow","leftarrow","leftarrow","rightarrow","rightarrow"],"horizon":10,"forced_choices":["rightarrow","rightarrow","leftarrow","leftarrow"],"right_color":"lightblue","left_color":"orange","left_mu":60,"right_mu":64,"left_numbers":[61,47,53,72,54,73,66,47,53,68],"right_numbers":[65,72,65,62,72,69,62,66,53,58],"points_earned":627,"phase":"task","trial_type":"horizons-task","trial_index":27,"time_elapsed":499924,"internal_node_id":"0.0-23.0","task_version":"0.2"},{"response_times":[611.1550000496209,399.4799996726215,908.979999832809,919.495000038296,2413.8650000095367],"keys_pressed":["leftarrow","rightarrow","rightarrow","rightarrow","rightarrow"],"horizon":5,"forced_choices":["leftarrow","rightarrow","rightarrow","rightarrow"],"right_color":"orange","left_color":"lightblue","left_mu":60,"right_mu":48,"left_numbers":[54,55,52,58,67],"right_numbers":[48,51,58,42,50],"points_earned":255,"phase":"task","trial_type":"horizons-task","trial_index":28,"time_elapsed":506681,"internal_node_id":"0.0-24.0","task_version":"0.2"},{"response_times":[541.4549997076392,443.4850001707673,517.0749998651445,368.7900002114475,2080.1849998533726,831.0700003057718,674.9750003218651,463.62000005319715,408.9349997229874,846.0500002838671],"keys_pressed":["rightarrow","leftarrow","leftarrow","rightarrow","leftarrow","leftarrow","leftarrow","leftarrow","leftarrow","rightarrow"],"horizon":10,"forced_choices":["rightarrow","leftarrow","leftarrow","rightarrow"],"right_color":"lightblue","left_color":"orange","left_mu":40,"right_mu":36,"left_numbers":[42,48,38,57,43,56,40,43,26,44],"right_numbers":[46,36,40,22,38,39,37,37,37,35],"points_earned":397,"phase":"task","trial_type":"horizons-task","trial_index":29,"time_elapsed":515359,"internal_node_id":"0.0-25.0","task_version":"0.2"},{"response_times":[650.774999987334,515.8299999311566,1145.0400003232062,595.4700000584126,1372.1449999138713,733.5799997672439,486.84500018134713,545.8000004291534,493.1199997663498,1148.4250002540648],"keys_pressed":["leftarrow","rightarrow","rightarrow","rightarrow","leftarrow","leftarrow","leftarrow","leftarrow","leftarrow","leftarrow"],"horizon":10,"forced_choices":["leftarrow","rightarrow","rightarrow","rightarrow"],"right_color":"lightblue","left_color":"orange","left_mu":40,"right_mu":10,"left_numbers":[46,49,38,31,40,44,41,45,38,41],"right_numbers":[17,10,15,2,3,15,0,14,12,9],"points_earned":322,"phase":"task","trial_type":"horizons-task","trial_index":30,"time_elapsed":524550,"internal_node_id":"0.0-26.0","task_version":"0.2"},{"response_times":[557.9349999316037,497.07499984651804,915.2549998834729,513.9950001612306,1237.1600000187755,667.7450002171099,1469.7750001214445,677.774999756366,1770.2100002206862,714.244999922812],"keys_pressed":["rightarrow","leftarrow","leftarrow","rightarrow","leftarrow","leftarrow","leftarrow","leftarrow","rightarrow","leftarrow"],"horizon":10,"forced_choices":["rightarrow","leftarrow","leftarrow","rightarrow"],"right_color":"lightblue","left_color":"orange","left_mu":40,"right_mu":10,"left_numbers":[30,45,35,22,28,31,46,37,48,35],"right_numbers":[25,3,13,22,8,8,5,11,3,18],"points_earned":307,"phase":"task","trial_type":"horizons-task","trial_index":31,"time_elapsed":535075,"internal_node_id":"0.0-27.0","task_version":"0.2"},{"response_times":[780.704999808222,565.1650000363588,413.9700001105666,827.5100002065301,1693.3650001883507,647.8149998001754,612.5949998386204,666.0699998028576,566.2699998356402,655.6899999268353],"keys_pressed":["leftarrow","rightarrow","leftarrow","leftarrow","leftarrow","leftarrow","leftarrow","leftarrow","leftarrow","leftarrow"],"horizon":10,"forced_choices":["leftarrow","rightarrow","leftarrow","leftarrow"],"right_color":"orange","left_color":"lightblue","left_mu":60,"right_mu":56,"left_numbers":[47,63,49,71,60,71,48,49,68,56],"right_numbers":[62,48,53,63,57,46,60,62,51,57],"points_earned":567,"phase":"task","trial_type":"horizons-task","trial_index":32,"time_elapsed":544009,"internal_node_id":"0.0-28.0","task_version":"0.2"},{"response_times":[545.5300002358854,746.6400000266731,499.1599996574223,778.5499999299645,4577.8999999165535,1681.6700003109872,632.1700001135468,922.6950001902878,876.6399999149144,936.8050000630319],"keys_pressed":["leftarrow","leftarrow","rightarrow","rightarrow","rightarrow","leftarrow","leftarrow","rightarrow","leftarrow","leftarrow"],"horizon":10,"forced_choices":["leftarrow","leftarrow","rightarrow","rightarrow"],"right_color":"orange","left_color":"lightblue","left_mu":40,"right_mu":32,"left_numbers":[34,29,49,42,45,48,28,33,40,48],"right_numbers":[20,40,32,32,28,39,35,23,45,39],"points_earned":342,"phase":"task","trial_type":"horizons-task","trial_index":33,"time_elapsed":557711,"internal_node_id":"0.0-29.0","task_version":"0.2"},{"response_times":[572.4999997764826,401.1699999682605,781.2000000849366,1290.244999807328,1599.9000002630055],"keys_pressed":["rightarrow","leftarrow","rightarrow","leftarrow","leftarrow"],"horizon":5,"forced_choices":["rightarrow","leftarrow","rightarrow","leftarrow"],"right_color":"orange","left_color":"lightblue","left_mu":60,"right_mu":52,"left_numbers":[54,64,45,58,63],"right_numbers":[61,53,37,52,50],"points_earned":283,"phase":"task","trial_type":"horizons-task","trial_index":34,"time_elapsed":563859,"internal_node_id":"0.0-30.0","task_version":"0.2"},{"response_times":[497.789999935776,383.5199996829033,758.9199999347329,712.8200000151992,855.5250000208616],"keys_pressed":["leftarrow","rightarrow","rightarrow","leftarrow","rightarrow"],"horizon":5,"forced_choices":["leftarrow","rightarrow","rightarrow","leftarrow"],"right_color":"lightblue","left_color":"orange","left_mu":40,"right_mu":60,"left_numbers":[25,31,39,33,44],"right_numbers":[58,54,61,67,55],"points_earned":228,"phase":"task","trial_type":"horizons-task","trial_index":35,"time_elapsed":568572,"internal_node_id":"0.0-31.0","task_version":"0.2"},{"response_times":[1109.5400000922382,496.66000017896295,687.5350000336766,387.4899996444583,2000.3999997861683,6957.5749998912215,636.30500016734,1063.8649999164045,503.5000001080334,478.4550000913441],"keys_pressed":["leftarrow","rightarrow","leftarrow","rightarrow","rightarrow","rightarrow","rightarrow","rightarrow","rightarrow","rightarrow"],"horizon":10,"forced_choices":["leftarrow","rightarrow","leftarrow","rightarrow"],"right_color":"orange","left_color":"lightblue","left_mu":60,"right_mu":80,"left_numbers":[61,48,40,71,73,65,60,61,54,68],"right_numbers":[81,77,74,75,87,72,84,77,74,88],"points_earned":735,"phase":"task","trial_type":"horizons-task","trial_index":36,"time_elapsed":584397,"internal_node_id":"0.0-32.0","task_version":"0.2"},{"response_times":[15974.830000195652,663.204999640584,1048.6150002107024,624.7700001113117,2337.4499999918044],"keys_pressed":["rightarrow","leftarrow","leftarrow","leftarrow","leftarrow"],"horizon":5,"forced_choices":["rightarrow","leftarrow","leftarrow","leftarrow"],"right_color":"orange","left_color":"lightblue","left_mu":40,"right_mu":28,"left_numbers":[47,46,48,36,35],"right_numbers":[26,38,32,24,36],"points_earned":191,"phase":"task","trial_type":"horizons-task","trial_index":37,"time_elapsed":606550,"internal_node_id":"0.0-33.0","task_version":"0.2"},{"response_times":[594.0700001083314,418.3549997396767,414.8249998688698,392.2550003044307,402.730000205338,1945.8249998278916,797.6250001229346,603.884999640286,825.6000000983477,619.4949997588992],"keys_pressed":["leftarrow","rightarrow","leftarrow","rightarrow","leftarrow","leftarrow","leftarrow","leftarrow","leftarrow","leftarrow"],"horizon":10,"forced_choices":["leftarrow","rightarrow","leftarrow","rightarrow"],"right_color":"orange","left_color":"lightblue","left_mu":60,"right_mu":48,"left_numbers":[50,59,63,62,53,62,80,55,60,44],"right_numbers":[53,45,66,49,51,44,47,43,38,56],"points_earned":561,"phase":"task","trial_type":"horizons-task","trial_index":38,"time_elapsed":615070,"internal_node_id":"0.0-34.0","task_version":"0.2"},{"response_times":[570.8899996243417,393.10500025749207,332.0349999703467,407.13000018149614,2504.919999744743],"keys_pressed":["leftarrow","rightarrow","leftarrow","rightarrow","rightarrow"],"horizon":5,"forced_choices":["leftarrow","rightarrow","leftarrow","rightarrow"],"right_color":"orange","left_color":"lightblue","left_mu":60,"right_mu":80,"left_numbers":[56,50,58,67,74],"right_numbers":[74,78,79,82,79],"points_earned":353,"phase":"task","trial_type":"horizons-task","trial_index":39,"time_elapsed":620780,"internal_node_id":"0.0-35.0","task_version":"0.2"},{"response_times":[613.344999961555,326.5550001524389,809.0300001204014,718.5050002299249,1770.2699997462332,601.9699997268617,901.2299999594688,524.7249999083579,545.004999730736,877.0449999719858],"keys_pressed":["rightarrow","leftarrow","leftarrow","leftarrow","rightarrow","rightarrow","rightarrow","rightarrow","rightarrow","rightarrow"],"horizon":10,"forced_choices":["rightarrow","leftarrow","leftarrow","leftarrow"],"right_color":"orange","left_color":"lightblue","left_mu":40,"right_mu":70,"left_numbers":[48,34,29,43,46,41,38,55,43,19],"right_numbers":[80,67,68,67,68,77,69,80,62,66],"points_earned":608,"phase":"task","trial_type":"horizons-task","trial_index":40,"time_elapsed":629972,"internal_node_id":"0.0-36.0","task_version":"0.2"},{"response_times":[691.0700001753867,741.5700000710785,610.5200001038611,730.2600000984967,1236.6749998182058],"keys_pressed":["leftarrow","leftarrow","rightarrow","rightarrow","rightarrow"],"horizon":5,"forced_choices":["leftarrow","leftarrow","rightarrow","rightarrow"],"right_color":"orange","left_color":"lightblue","left_mu":40,"right_mu":52,"left_numbers":[45,23,44,46,36],"right_numbers":[48,40,46,65,49],"points_earned":228,"phase":"task","trial_type":"horizons-task","trial_index":41,"time_elapsed":635485,"internal_node_id":"0.0-37.0","task_version":"0.2"},{"response_times":[613.3799999952316,468.06499967351556,420.29500007629395,472.7499997243285,1654.755000025034,598.9100001752377,446.2749999947846,465.8949999138713,560.025000013411,498.8299999386072],"keys_pressed":["leftarrow","rightarrow","leftarrow","rightarrow","leftarrow","leftarrow","leftarrow","leftarrow","leftarrow","leftarrow"],"horizon":10,"forced_choices":["leftarrow","rightarrow","leftarrow","rightarrow"],"right_color":"lightblue","left_color":"orange","left_mu":60,"right_mu":30,"left_numbers":[57,60,55,70,58,63,61,46,62,75],"right_numbers":[33,22,22,25,38,7,29,31,35,39],"points_earned":524,"phase":"task","trial_type":"horizons-task","trial_index":42,"time_elapsed":643188,"internal_node_id":"0.0-38.0","task_version":"0.2"},{"response_times":[733.5500000044703,754.7200000844896,604.8900000751019,520.4000002704561,638.2149998098612],"keys_pressed":["rightarrow","rightarrow","leftarrow","leftarrow","leftarrow"],"horizon":5,"forced_choices":["rightarrow","rightarrow","leftarrow","leftarrow"],"right_color":"lightblue","left_color":"orange","left_mu":40,"right_mu":48,"left_numbers":[37,44,42,42,25],"right_numbers":[25,45,48,67,44],"points_earned":179,"phase":"task","trial_type":"horizons-task","trial_index":43,"time_elapsed":647944,"internal_node_id":"0.0-39.0","task_version":"0.2"},{"response_times":[710.2000000886619,543.3050002902746,642.5849995575845,470.594999846071,860.3649996221066],"keys_pressed":["leftarrow","leftarrow","leftarrow","rightarrow","leftarrow"],"horizon":5,"forced_choices":["leftarrow","leftarrow","leftarrow","rightarrow"],"right_color":"lightblue","left_color":"orange","left_mu":40,"right_mu":36,"left_numbers":[46,47,36,31,21],"right_numbers":[43,35,36,27,31],"points_earned":177,"phase":"task","trial_type":"horizons-task","trial_index":44,"time_elapsed":652674,"internal_node_id":"0.0-40.0","task_version":"0.2"},{"response_times":[576.0550000704825,414.29000021889806,468.02999963983893,456.2050001695752,1120.8649999462068],"keys_pressed":["leftarrow","rightarrow","leftarrow","rightarrow","leftarrow"],"horizon":5,"forced_choices":["leftarrow","rightarrow","leftarrow","rightarrow"],"right_color":"orange","left_color":"lightblue","left_mu":60,"right_mu":48,"left_numbers":[56,58,66,65,69],"right_numbers":[46,51,53,46,43],"points_earned":288,"phase":"task","trial_type":"horizons-task","trial_index":45,"time_elapsed":657213,"internal_node_id":"0.0-41.0","task_version":"0.2"},{"response_times":[514.119999948889,437.61999998241663,701.7799997702241,606.5249997191131,860.1400000043213,401.8950001336634,483.6800000630319,418.92499988898635,450.5300000309944,439.6850001066923],"keys_pressed":["leftarrow","rightarrow","rightarrow","leftarrow","rightarrow","rightarrow","rightarrow","rightarrow","rightarrow","rightarrow"],"horizon":10,"forced_choices":["leftarrow","rightarrow","rightarrow","leftarrow"],"right_color":"lightblue","left_color":"orange","left_mu":60,"right_mu":90,"left_numbers":[54,57,56,63,54,63,61,61,63,51],"right_numbers":[93,99,73,92,94,96,92,81,90,96],"points_earned":838,"phase":"task","trial_type":"horizons-task","trial_index":46,"time_elapsed":664032,"internal_node_id":"0.0-42.0","task_version":"0.2"},{"response_times":[497.38499987870455,809.2550002038479,636.4649999886751,483.43499982729554,1120.9649997763336],"keys_pressed":["rightarrow","rightarrow","leftarrow","leftarrow","rightarrow"],"horizon":5,"forced_choices":["rightarrow","rightarrow","leftarrow","leftarrow"],"right_color":"lightblue","left_color":"orange","left_mu":40,"right_mu":44,"left_numbers":[40,36,36,34,29],"right_numbers":[47,42,36,36,36],"points_earned":195,"phase":"task","trial_type":"horizons-task","trial_index":47,"time_elapsed":669083,"internal_node_id":"0.0-43.0","task_version":"0.2"},{"response_times":[582.2700001299381,437.1599997393787,404.83999997377396,625.5550002679229,453.28000001609325,2071.405000053346,620.2250001952052,824.6100000105798,434.80499973520637,1072.7749997749925],"keys_pressed":["rightarrow","leftarrow","rightarrow","leftarrow","rightarrow","leftarrow","leftarrow","leftarrow","leftarrow","rightarrow"],"horizon":10,"forced_choices":["rightarrow","leftarrow","rightarrow","leftarrow"],"right_color":"lightblue","left_color":"orange","left_mu":60,"right_mu":40,"left_numbers":[71,55,38,69,58,52,63,59,46,46],"right_numbers":[39,38,49,48,55,30,40,44,39,37],"points_earned":524,"phase":"task","trial_type":"horizons-task","trial_index":48,"time_elapsed":678113,"internal_node_id":"0.0-44.0","task_version":"0.2"},{"response_times":[531.5200001932681,538.8700002804399,417.15999972075224,596.4500000700355,2660.410000011325],"keys_pressed":["leftarrow","leftarrow","leftarrow","rightarrow","rightarrow"],"horizon":5,"forced_choices":["leftarrow","leftarrow","leftarrow","rightarrow"],"right_color":"lightblue","left_color":"orange","left_mu":60,"right_mu":64,"left_numbers":[60,48,61,58,44],"right_numbers":[57,76,60,64,60],"points_earned":293,"phase":"task","trial_type":"horizons-task","trial_index":49,"time_elapsed":684360,"internal_node_id":"0.0-45.0","task_version":"0.2"},{"response_times":[536.640000063926,553.2450000755489,519.5550001226366,537.2450002469122,3750.430000014603,678.8200000301003,780.4899998009205,367.3650003038347,455.43000008910894,497.620000038296],"keys_pressed":["rightarrow","rightarrow","rightarrow","leftarrow","rightarrow","leftarrow","leftarrow","leftarrow","leftarrow","leftarrow"],"horizon":10,"forced_choices":["rightarrow","rightarrow","rightarrow","leftarrow"],"right_color":"orange","left_color":"lightblue","left_mu":60,"right_mu":52,"left_numbers":[53,77,46,52,56,63,59,61,48,67],"right_numbers":[53,39,41,46,48,54,45,52,51,54],"points_earned":531,"phase":"task","trial_type":"horizons-task","trial_index":50,"time_elapsed":694540,"internal_node_id":"0.0-46.0","task_version":"0.2"},{"view_history":"[{\"page_index\":0,\"viewing_time\":2545.3550000675023},{\"page_index\":1,\"viewing_time\":2748.9200001582503}]","rt":5294.939999934286,"trial_type":"instructions","trial_index":51,"time_elapsed":699837,"internal_node_id":"0.0-47.0","task_version":"0.2"},{"response_times":[818.0200001224875,461.57500008121133,456.72000013291836,663.93500007689,1606.3200002536178,540.270000230521,770.5599996261299,600.7399996742606,583.064999897033,490.45499972999096],"keys_pressed":["leftarrow","rightarrow","leftarrow","leftarrow","rightarrow","rightarrow","rightarrow","rightarrow","rightarrow","rightarrow"],"horizon":10,"forced_choices":["leftarrow","rightarrow","leftarrow","leftarrow"],"right_color":"orange","left_color":"lightblue","left_mu":40,"right_mu":52,"left_numbers":[30,55,47,46,37,25,45,40,32,36],"right_numbers":[51,59,52,35,57,46,42,56,65,47],"points_earned":495,"phase":"task","trial_type":"horizons-task","trial_index":52,"time_elapsed":708345,"internal_node_id":"0.0-48.0","task_version":"0.2"},{"response_times":[502.7200002223253,583.9949999935925,750.2950001507998,645.3149998560548,980.0899997353554,423.11499966308475,445.66999981179833,398.64000026136637,506.33500004187226,435.41499972343445],"keys_pressed":["rightarrow","rightarrow","leftarrow","rightarrow","rightarrow","rightarrow","rightarrow","rightarrow","rightarrow","rightarrow"],"horizon":10,"forced_choices":["rightarrow","rightarrow","leftarrow","rightarrow"],"right_color":"orange","left_color":"lightblue","left_mu":60,"right_mu":80,"left_numbers":[63,50,57,65,68,63,60,57,61,56],"right_numbers":[79,87,85,65,95,88,75,73,70,89],"points_earned":778,"phase":"task","trial_type":"horizons-task","trial_index":53,"time_elapsed":715520,"internal_node_id":"0.0-49.0","task_version":"0.2"},{"response_times":[505.60500007122755,464.5799999125302,490.5849997885525,515.9549997188151,1629.0799998678267,639.1650000587106,447.98999978229403,573.0650001205504,438.0549998022616,482.4250000528991],"keys_pressed":["leftarrow","rightarrow","leftarrow","rightarrow","rightarrow","rightarrow","rightarrow","rightarrow","rightarrow","rightarrow"],"horizon":10,"forced_choices":["leftarrow","rightarrow","leftarrow","rightarrow"],"right_color":"orange","left_color":"lightblue","left_mu":40,"right_mu":70,"left_numbers":[33,43,42,35,25,38,28,54,40,58],"right_numbers":[69,56,69,64,63,66,95,79,53,75],"points_earned":626,"phase":"task","trial_type":"horizons-task","trial_index":54,"time_elapsed":723211,"internal_node_id":"0.0-50.0","task_version":"0.2"},{"response_times":[565.9699998795986,501.27000035718083,785.0849996320903,767.920000012964,1452.2799998521805,662.6700004562736,613.1850001402199,859.0500000864267,609.0850001201034,1218.8099999912083],"keys_pressed":["rightarrow","leftarrow","leftarrow","leftarrow","rightarrow","rightarrow","rightarrow","rightarrow","rightarrow","rightarrow"],"horizon":10,"forced_choices":["rightarrow","leftarrow","leftarrow","leftarrow"],"right_color":"lightblue","left_color":"orange","left_mu":40,"right_mu":60,"left_numbers":[41,33,52,39,25,37,27,44,36,31],"right_numbers":[57,50,50,50,59,58,60,44,72,49],"points_earned":523,"phase":"task","trial_type":"horizons-task","trial_index":55,"time_elapsed":732750,"internal_node_id":"0.0-51.0","task_version":"0.2"},{"response_times":[541.9550002552569,521.5000002644956,620.7550000399351,597.7100003510714,1686.2249998375773],"keys_pressed":["rightarrow","rightarrow","rightarrow","leftarrow","rightarrow"],"horizon":5,"forced_choices":["rightarrow","rightarrow","rightarrow","leftarrow"],"right_color":"orange","left_color":"lightblue","left_mu":60,"right_mu":52,"left_numbers":[63,66,51,63,63],"right_numbers":[67,53,54,64,54],"points_earned":291,"phase":"task","trial_type":"horizons-task","trial_index":56,"time_elapsed":738220,"internal_node_id":"0.0-52.0","task_version":"0.2"},{"response_times":[585.5399998836219,374.0799999795854,400.59500001370907,770.665000192821,2168.2899999432266,473.6950001679361,357.65499994158745,669.4799996912479,569.6149999275804,498.56500001624227],"keys_pressed":["rightarrow","leftarrow","rightarrow","rightarrow","rightarrow","rightarrow","rightarrow","rightarrow","rightarrow","rightarrow"],"horizon":10,"forced_choices":["rightarrow","leftarrow","rightarrow","rightarrow"],"right_color":"orange","left_color":"lightblue","left_mu":60,"right_mu":72,"left_numbers":[75,55,59,63,56,77,56,49,58,57],"right_numbers":[62,78,70,77,73,58,81,73,68,70],"points_earned":687,"phase":"task","trial_type":"horizons-task","trial_index":57,"time_elapsed":746592,"internal_node_id":"0.0-53.0","task_version":"0.2"},{"response_times":[793.1800000369549,376.41500029712915,683.7549996562302,562.6600002869964,1385.780000127852,420.2799997292459,432.43000004440546,390.27499966323376,473.76499976962805,491.2800001911819],"keys_pressed":["leftarrow","rightarrow","rightarrow","leftarrow","rightarrow","rightarrow","rightarrow","rightarrow","rightarrow","rightarrow"],"horizon":10,"forced_choices":["leftarrow","rightarrow","rightarrow","leftarrow"],"right_color":"lightblue","left_color":"orange","left_mu":40,"right_mu":60,"left_numbers":[39,28,32,31,48,46,43,42,42,38],"right_numbers":[58,69,55,62,51,51,78,67,47,49],"points_earned":537,"phase":"task","trial_type":"horizons-task","trial_index":58,"time_elapsed":754107,"internal_node_id":"0.0-54.0","task_version":"0.2"},{"response_times":[418.51000022143126,617.749999742955,567.6700002513826,419.31500006467104,1398.384999949485,680.530000012368,494.9999996460974,1106.0549998655915,1096.0900001227856,3341.5850000455976],"keys_pressed":["leftarrow","leftarrow","leftarrow","rightarrow","rightarrow","rightarrow","rightarrow","leftarrow","leftarrow","leftarrow"],"horizon":10,"forced_choices":["leftarrow","leftarrow","leftarrow","rightarrow"],"right_color":"lightblue","left_color":"orange","left_mu":60,"right_mu":64,"left_numbers":[62,60,67,61,41,67,63,59,64,49],"right_numbers":[60,74,77,72,63,67,51,82,58,71],"points_earned":614,"phase":"task","trial_type":"horizons-task","trial_index":59,"time_elapsed":765750,"internal_node_id":"0.0-55.0","task_version":"0.2"},{"response_times":[642.2399999573827,593.4600001201034,556.0400001704693,1035.6499999761581,1188.8649999164045],"keys_pressed":["leftarrow","rightarrow","leftarrow","rightarrow","rightarrow"],"horizon":5,"forced_choices":["leftarrow","rightarrow","leftarrow","rightarrow"],"right_color":"orange","left_color":"lightblue","left_mu":40,"right_mu":70,"left_numbers":[38,41,44,42,51],"right_numbers":[70,71,73,55,61],"points_earned":269,"phase":"task","trial_type":"horizons-task","trial_index":60,"time_elapsed":771270,"internal_node_id":"0.0-56.0","task_version":"0.2"},{"response_times":[474.65999983251095,418.42499980702996,464.99500004574656,743.2350004091859,1677.6749999262393],"keys_pressed":["leftarrow","rightarrow","leftarrow","leftarrow","leftarrow"],"horizon":5,"forced_choices":["leftarrow","rightarrow","leftarrow","leftarrow"],"right_color":"orange","left_color":"lightblue","left_mu":60,"right_mu":56,"left_numbers":[55,72,68,65,50],"right_numbers":[46,36,58,72,52],"points_earned":274,"phase":"task","trial_type":"horizons-task","trial_index":61,"time_elapsed":776554,"internal_node_id":"0.0-57.0","task_version":"0.2"},{"response_times":[561.4000000059605,441.42499985173345,429.26499992609024,904.575000051409,1397.0200000330806,432.7699998393655,513.669999781996,570.0499997474253,508.8150002993643,1517.5499999895692],"keys_pressed":["rightarrow","leftarrow","rightarrow","leftarrow","leftarrow","leftarrow","leftarrow","leftarrow","leftarrow","leftarrow"],"horizon":10,"forced_choices":["rightarrow","leftarrow","rightarrow","leftarrow"],"right_color":"orange","left_color":"lightblue","left_mu":60,"right_mu":52,"left_numbers":[60,60,60,68,69,51,62,51,39,47],"right_numbers":[46,47,37,56,60,41,45,72,44,42],"points_earned":530,"phase":"task","trial_type":"horizons-task","trial_index":62,"time_elapsed":785334,"internal_node_id":"0.0-58.0","task_version":"0.2"},{"response_times":[702.5950001552701,449.88999981433153,528.1150001101196,501.81000027805567,1213.0499999038875,409.95499957352877,526.1900001205504,707.9400001093745,514.6449999883771,694.2700003273785],"keys_pressed":["rightarrow","leftarrow","leftarrow","rightarrow","rightarrow","rightarrow","rightarrow","rightarrow","rightarrow","rightarrow"],"horizon":10,"forced_choices":["rightarrow","leftarrow","leftarrow","rightarrow"],"right_color":"orange","left_color":"lightblue","left_mu":60,"right_mu":68,"left_numbers":[44,42,60,70,61,69,54,67,55,65],"right_numbers":[83,78,56,71,56,58,75,59,70,66],"points_earned":640,"phase":"task","trial_type":"horizons-task","trial_index":63,"time_elapsed":793086,"internal_node_id":"0.0-59.0","task_version":"0.2"},{"response_times":[809.8199996165931,379.84499987214804,415.8299998380244,769.0200000070035,2512.869999743998],"keys_pressed":["leftarrow","rightarrow","leftarrow","leftarrow","rightarrow"],"horizon":5,"forced_choices":["leftarrow","rightarrow","leftarrow","leftarrow"],"right_color":"orange","left_color":"lightblue","left_mu":40,"right_mu":52,"left_numbers":[44,55,29,40,41],"right_numbers":[44,51,54,41,48],"points_earned":212,"phase":"task","trial_type":"horizons-task","trial_index":64,"time_elapsed":799476,"internal_node_id":"0.0-60.0","task_version":"0.2"},{"response_times":[622.5100001320243,434.0850003063679,422.9099997319281,1163.8199998997152,1143.5849997214973],"keys_pressed":["rightarrow","leftarrow","rightarrow","leftarrow","rightarrow"],"horizon":5,"forced_choices":["rightarrow","leftarrow","rightarrow","leftarrow"],"right_color":"orange","left_color":"lightblue","left_mu":60,"right_mu":72,"left_numbers":[60,69,67,68,64],"right_numbers":[82,66,79,82,70],"points_earned":368,"phase":"task","trial_type":"horizons-task","trial_index":65,"time_elapsed":804767,"internal_node_id":"0.0-61.0","task_version":"0.2"},{"response_times":[963.1400001235306,410.51499964669347,304.05000038444996,674.3999999016523,1142.7599997259676],"keys_pressed":["leftarrow","rightarrow","leftarrow","rightarrow","leftarrow"],"horizon":5,"forced_choices":["leftarrow","rightarrow","leftarrow","rightarrow"],"right_color":"lightblue","left_color":"orange","left_mu":60,"right_mu":30,"left_numbers":[66,67,63,72,69],"right_numbers":[33,26,38,27,9],"points_earned":251,"phase":"task","trial_type":"horizons-task","trial_index":66,"time_elapsed":809764,"internal_node_id":"0.0-62.0","task_version":"0.2"},{"response_times":[2286.719999741763,616.3900000974536,596.7549998313189,1098.6850000917912,1681.3500002026558,496.2050002068281,736.4100003615022,547.8100003674626,467.39999996498227,505.35000022500753],"keys_pressed":["leftarrow","leftarrow","rightarrow","leftarrow","leftarrow","leftarrow","leftarrow","leftarrow","leftarrow","leftarrow"],"horizon":10,"forced_choices":["leftarrow","leftarrow","rightarrow","leftarrow"],"right_color":"lightblue","left_color":"orange","left_mu":60,"right_mu":40,"left_numbers":[66,72,64,62,60,63,63,62,68,69],"right_numbers":[49,52,36,46,37,52,38,37,40,43],"points_earned":621,"phase":"task","trial_type":"horizons-task","trial_index":67,"time_elapsed":820300,"internal_node_id":"0.0-63.0","task_version":"0.2"},{"response_times":[1801.4699998311698,373.11000004410744,543.8350001350045,683.7750002741814,1843.91999989748],"keys_pressed":["rightarrow","leftarrow","rightarrow","leftarrow","leftarrow"],"horizon":5,"forced_choices":["rightarrow","leftarrow","rightarrow","leftarrow"],"right_color":"lightblue","left_color":"orange","left_mu":60,"right_mu":40,"left_numbers":[57,59,85,58,60],"right_numbers":[35,49,30,32,44],"points_earned":242,"phase":"task","trial_type":"horizons-task","trial_index":68,"time_elapsed":827050,"internal_node_id":"0.0-64.0","task_version":"0.2"},{"response_times":[733.7199999019504,614.1400001943111,604.5550000853837,642.9600003175437,1359.5500001683831],"keys_pressed":["leftarrow","leftarrow","rightarrow","leftarrow","rightarrow"],"horizon":5,"forced_choices":["leftarrow","leftarrow","rightarrow","leftarrow"],"right_color":"lightblue","left_color":"orange","left_mu":40,"right_mu":48,"left_numbers":[42,39,43,32,34],"right_numbers":[56,40,52,49,42],"points_earned":207,"phase":"task","trial_type":"horizons-task","trial_index":69,"time_elapsed":832507,"internal_node_id":"0.0-65.0","task_version":"0.2"},{"response_times":[887.3350000940263,399.9399999156594,895.0900002382696,858.2999999634922,2239.924999885261],"keys_pressed":["rightarrow","leftarrow","leftarrow","rightarrow","leftarrow"],"horizon":5,"forced_choices":["rightarrow","leftarrow","leftarrow","rightarrow"],"right_color":"orange","left_color":"lightblue","left_mu":60,"right_mu":68,"left_numbers":[49,59,66,53,69],"right_numbers":[55,74,73,62,67],"points_earned":311,"phase":"task","trial_type":"horizons-task","trial_index":70,"time_elapsed":839290,"internal_node_id":"0.0-66.0","task_version":"0.2"},{"response_times":[1045.6950003281236,533.0349998548627,1099.9850002117455,866.6550000198185,610.4499995708466],"keys_pressed":["leftarrow","rightarrow","rightarrow","rightarrow","leftarrow"],"horizon":5,"forced_choices":["leftarrow","rightarrow","rightarrow","rightarrow"],"right_color":"lightblue","left_color":"orange","left_mu":40,"right_mu":10,"left_numbers":[50,37,33,41,45],"right_numbers":[17,0,4,10,0],"points_earned":109,"phase":"task","trial_type":"horizons-task","trial_index":71,"time_elapsed":844948,"internal_node_id":"0.0-67.0","task_version":"0.2"},{"response_times":[668.8299998641014,749.7399998828769,804.1199999861419,811.7450000718236,3118.6799998395145,1044.4749998860061,6666.4550001733005,1642.299999948591,1262.4200000427663,879.7100000083447],"keys_pressed":["rightarrow","rightarrow","leftarrow","leftarrow","rightarrow","rightarrow","rightarrow","rightarrow","leftarrow","rightarrow"],"horizon":10,"forced_choices":["rightarrow","rightarrow","leftarrow","leftarrow"],"right_color":"lightblue","left_color":"orange","left_mu":40,"right_mu":44,"left_numbers":[38,41,44,51,26,34,35,42,32,50],"right_numbers":[52,45,23,54,47,50,52,35,37,58],"points_earned":466,"phase":"task","trial_type":"horizons-task","trial_index":72,"time_elapsed":864101,"internal_node_id":"0.0-68.0","task_version":"0.2"},{"response_times":[799.349999986589,551.5450001694262,405.67999985069036,554.2750000022352,1044.0599997527897,296.13000014796853,398.6700000241399,337.42000022903085,352.59999986737967,366.524999961257],"keys_pressed":["rightarrow","rightarrow","rightarrow","leftarrow","leftarrow","leftarrow","leftarrow","leftarrow","leftarrow","leftarrow"],"horizon":10,"forced_choices":["rightarrow","rightarrow","rightarrow","leftarrow"],"right_color":"lightblue","left_color":"orange","left_mu":40,"right_mu":20,"left_numbers":[38,61,43,45,45,44,44,38,34,35],"right_numbers":[16,18,12,14,11,23,36,26,15,19],"points_earned":331,"phase":"task","trial_type":"horizons-task","trial_index":73,"time_elapsed":870711,"internal_node_id":"0.0-69.0","task_version":"0.2"},{"response_times":[504.47999965399504,525.4649999551475,474.114999640733,763.4800001978874,1010.245000012219,269.0650001168251,2579.7800002619624,533.9749995619059,431.6249997355044,411.4999999292195],"keys_pressed":["leftarrow","leftarrow","rightarrow","rightarrow","leftarrow","leftarrow","rightarrow","leftarrow","leftarrow","leftarrow"],"horizon":10,"forced_choices":["leftarrow","leftarrow","rightarrow","rightarrow"],"right_color":"lightblue","left_color":"orange","left_mu":40,"right_mu":20,"left_numbers":[41,37,41,26,24,56,36,50,54,43],"right_numbers":[18,26,3,28,23,16,16,16,13,11],"points_earned":352,"phase":"task","trial_type":"horizons-task","trial_index":74,"time_elapsed":879719,"internal_node_id":"0.0-70.0","task_version":"0.2"},{"response_times":[498.9649998024106,338.80999963730574,393.06499995291233,778.9950002916157,1803.9000001735985,324.64500004425645,374.78999979794025,403.3650001510978,446.2549998424947,558.2050001248717],"keys_pressed":["rightarrow","leftarrow","rightarrow","leftarrow","rightarrow","rightarrow","rightarrow","rightarrow","rightarrow","rightarrow"],"horizon":10,"forced_choices":["rightarrow","leftarrow","rightarrow","leftarrow"],"right_color":"orange","left_color":"lightblue","left_mu":60,"right_mu":72,"left_numbers":[66,81,58,54,67,50,63,57,90,50],"right_numbers":[86,66,89,79,82,82,76,60,72,87],"points_earned":769,"phase":"task","trial_type":"horizons-task","trial_index":75,"time_elapsed":887144,"internal_node_id":"0.0-71.0","task_version":"0.2"},{"response_times":[601.8249997869134,513.5750002227724,488.3699999190867,752.7099996805191,1416.220000013709],"keys_pressed":["leftarrow","leftarrow","rightarrow","leftarrow","rightarrow"],"horizon":5,"forced_choices":["leftarrow","leftarrow","rightarrow","leftarrow"],"right_color":"lightblue","left_color":"orange","left_mu":40,"right_mu":44,"left_numbers":[36,53,37,36,47],"right_numbers":[45,46,50,45,43],"points_earned":218,"phase":"task","trial_type":"horizons-task","trial_index":76,"time_elapsed":892420,"internal_node_id":"0.0-72.0","task_version":"0.2"},{"response_times":[545.6799999810755,403.6699999123812,599.4049999862909,627.2499999031425,3189.1049998812377,733.1550000235438,771.7250003479421,555.3399999625981,686.4150003530085,783.8699999265373],"keys_pressed":["leftarrow","rightarrow","rightarrow","rightarrow","rightarrow","leftarrow","leftarrow","leftarrow","leftarrow","rightarrow"],"horizon":10,"forced_choices":["leftarrow","rightarrow","rightarrow","rightarrow"],"right_color":"orange","left_color":"lightblue","left_mu":40,"right_mu":32,"left_numbers":[36,34,41,43,40,38,41,46,36,42],"right_numbers":[28,38,21,54,27,26,27,26,28,19],"points_earned":356,"phase":"task","trial_type":"horizons-task","trial_index":77,"time_elapsed":902820,"internal_node_id":"0.0-73.0","task_version":"0.2"},{"response_times":[429.47500012815,702.53000035882,566.7900000698864,585.4750000871718,2210.9350003302097,522.849999833852,591.6650001890957,1510.440000332892,1079.9049995839596,1565.2049998752773],"keys_pressed":["leftarrow","leftarrow","rightarrow","leftarrow","leftarrow","leftarrow","leftarrow","rightarrow","rightarrow","rightarrow"],"horizon":10,"forced_choices":["leftarrow","leftarrow","rightarrow","leftarrow"],"right_color":"lightblue","left_color":"orange","left_mu":40,"right_mu":44,"left_numbers":[31,35,42,46,46,37,24,47,45,28],"right_numbers":[34,51,41,51,45,49,41,35,45,36],"points_earned":376,"phase":"task","trial_type":"horizons-task","trial_index":78,"time_elapsed":914091,"internal_node_id":"0.0-74.0","task_version":"0.2"},{"response_times":[673.2499999925494,380.2550002001226,497.3699999973178,631.895000115037,1396.7450000345707],"keys_pressed":["rightarrow","leftarrow","leftarrow","leftarrow","leftarrow"],"horizon":5,"forced_choices":["rightarrow","leftarrow","leftarrow","leftarrow"],"right_color":"lightblue","left_color":"orange","left_mu":40,"right_mu":60,"left_numbers":[51,45,58,47,46],"right_numbers":[54,59,57,54,66],"points_earned":250,"phase":"task","trial_type":"horizons-task","trial_index":79,"time_elapsed":919174,"internal_node_id":"0.0-75.0","task_version":"0.2"},{"response_times":[529.6550001949072,369.7949997149408,428.28999971970916,764.0599999576807,1153.684999793768],"keys_pressed":["rightarrow","leftarrow","rightarrow","rightarrow","rightarrow"],"horizon":5,"forced_choices":["rightarrow","leftarrow","rightarrow","rightarrow"],"right_color":"orange","left_color":"lightblue","left_mu":60,"right_mu":72,"left_numbers":[63,70,79,59,56],"right_numbers":[75,61,67,76,80],"points_earned":368,"phase":"task","trial_type":"horizons-task","trial_index":80,"time_elapsed":923924,"internal_node_id":"0.0-76.0","task_version":"0.2"},{"response_times":[584.9550003185868,383.840000256896,417.4349997192621,656.0799996368587,1088.6099999770522,305.9050003066659,379.7749998047948,303.15000005066395,495.1349999755621,550.929999910295],"keys_pressed":["rightarrow","leftarrow","rightarrow","rightarrow","rightarrow","rightarrow","rightarrow","rightarrow","rightarrow","rightarrow"],"horizon":10,"forced_choices":["rightarrow","leftarrow","rightarrow","rightarrow"],"right_color":"lightblue","left_color":"orange","left_mu":60,"right_mu":90,"left_numbers":[62,70,67,67,77,67,56,61,69,60],"right_numbers":[85,86,90,81,77,88,92,88,88,66],"points_earned":825,"phase":"task","trial_type":"horizons-task","trial_index":81,"time_elapsed":930593,"internal_node_id":"0.0-77.0","task_version":"0.2"},{"response_times":[660.5750001035631,416.2349998950958,676.8499999307096,812.9499997012317,3387.4800000339746,733.9049996808171,483.839999884367,763.6199998669326,408.53000013157725,490.36499997600913],"keys_pressed":["leftarrow","rightarrow","rightarrow","rightarrow","rightarrow","rightarrow","rightarrow","rightarrow","rightarrow","rightarrow"],"horizon":10,"forced_choices":["leftarrow","rightarrow","rightarrow","rightarrow"],"right_color":"orange","left_color":"lightblue","left_mu":60,"right_mu":48,"left_numbers":[55,55,65,51,52,65,56,60,57,54],"right_numbers":[59,48,42,56,49,51,34,42,32,65],"points_earned":474,"phase":"task","trial_type":"horizons-task","trial_index":82,"time_elapsed":940932,"internal_node_id":"0.0-78.0","task_version":"0.2"},{"response_times":[593.1850001215935,514.9249997921288,437.6399996690452,762.1999997645617,3060.8100001700222,814.0000002458692,605.2449997514486,569.9950000271201,649.6899998746812,483.6200000718236],"keys_pressed":["leftarrow","leftarrow","rightarrow","rightarrow","rightarrow","rightarrow","rightarrow","rightarrow","rightarrow","rightarrow"],"horizon":10,"forced_choices":["leftarrow","leftarrow","rightarrow","rightarrow"],"right_color":"orange","left_color":"lightblue","left_mu":40,"right_mu":52,"left_numbers":[35,39,48,33,39,43,59,38,39,39],"right_numbers":[45,59,65,40,45,46,46,56,41,62],"points_earned":475,"phase":"task","trial_type":"horizons-task","trial_index":83,"time_elapsed":950927,"internal_node_id":"0.0-79.0","task_version":"0.2"},{"response_times":[511.7049999535084,553.3750001341105,444.95500018820167,547.7350000292063,1295.7900003530085],"keys_pressed":["leftarrow","leftarrow","rightarrow","leftarrow","leftarrow"],"horizon":5,"forced_choices":["leftarrow","leftarrow","rightarrow","leftarrow"],"right_color":"lightblue","left_color":"orange","left_mu":60,"right_mu":40,"left_numbers":[49,45,55,62,61],"right_numbers":[40,46,49,46,32],"points_earned":266,"phase":"task","trial_type":"horizons-task","trial_index":84,"time_elapsed":955784,"internal_node_id":"0.0-80.0","task_version":"0.2"},{"response_times":[611.8300002999604,485.3749996982515,484.0100002475083,687.3550000600517,2898.5550003126264,1043.1550000794232,639.835000038147,331.12500002607703,240.62999989837408,544.230000115931],"keys_pressed":["leftarrow","leftarrow","rightarrow","leftarrow","leftarrow","rightarrow","rightarrow","rightarrow","rightarrow","rightarrow"],"horizon":10,"forced_choices":["leftarrow","leftarrow","rightarrow","leftarrow"],"right_color":"lightblue","left_color":"orange","left_mu":40,"right_mu":48,"left_numbers":[45,38,43,41,42,49,49,37,47,42],"right_numbers":[61,64,44,52,31,58,51,49,45,49],"points_earned":462,"phase":"task","trial_type":"horizons-task","trial_index":85,"time_elapsed":965253,"internal_node_id":"0.0-81.0","task_version":"0.2"},{"response_times":[711.2549999728799,503.7099998444319,572.7599998936057,640.7800000160933,1651.940000243485],"keys_pressed":["leftarrow","leftarrow","rightarrow","rightarrow","leftarrow"],"horizon":5,"forced_choices":["leftarrow","leftarrow","rightarrow","rightarrow"],"right_color":"orange","left_color":"lightblue","left_mu":40,"right_mu":32,"left_numbers":[38,45,46,45,51],"right_numbers":[32,29,33,31,31],"points_earned":198,"phase":"task","trial_type":"horizons-task","trial_index":86,"time_elapsed":970839,"internal_node_id":"0.0-82.0","task_version":"0.2"},{"response_times":[6563.109999988228,423.5600000247359,495.4399997368455,434.4549998641014,1026.9750002771616],"keys_pressed":["rightarrow","leftarrow","leftarrow","rightarrow","leftarrow"],"horizon":5,"forced_choices":["rightarrow","leftarrow","leftarrow","rightarrow"],"right_color":"orange","left_color":"lightblue","left_mu":40,"right_mu":28,"left_numbers":[40,33,36,54,36],"right_numbers":[20,23,28,27,21],"points_earned":152,"phase":"task","trial_type":"horizons-task","trial_index":87,"time_elapsed":981286,"internal_node_id":"0.0-83.0","task_version":"0.2"},{"response_times":[530.7849999517202,435.58999989181757,533.8200000114739,571.5050003491342,553.7099996581674],"keys_pressed":["leftarrow","rightarrow","rightarrow","leftarrow","rightarrow"],"horizon":5,"forced_choices":["leftarrow","rightarrow","rightarrow","leftarrow"],"right_color":"lightblue","left_color":"orange","left_mu":60,"right_mu":90,"left_numbers":[61,48,56,74,54],"right_numbers":[88,95,92,92,94],"points_earned":416,"phase":"task","trial_type":"horizons-task","trial_index":88,"time_elapsed":985415,"internal_node_id":"0.0-84.0","task_version":"0.2"},{"response_times":[555.2500002086163,386.2399999052286,538.0250001326203,484.2300000600517,979.079999960959],"keys_pressed":["rightarrow","leftarrow","leftarrow","rightarrow","leftarrow"],"horizon":5,"forced_choices":["rightarrow","leftarrow","leftarrow","rightarrow"],"right_color":"lightblue","left_color":"orange","left_mu":40,"right_mu":10,"left_numbers":[33,34,49,46,28],"right_numbers":[14,29,12,15,16],"points_earned":140,"phase":"task","trial_type":"horizons-task","trial_index":89,"time_elapsed":989860,"internal_node_id":"0.0-85.0","task_version":"0.2"},{"response_times":[611.9750002399087,546.4749997481704,563.4350003674626,466.94499999284744,2288.9799997210503],"keys_pressed":["leftarrow","rightarrow","rightarrow","leftarrow","leftarrow"],"horizon":5,"forced_choices":["leftarrow","rightarrow","rightarrow","leftarrow"],"right_color":"orange","left_color":"lightblue","left_mu":60,"right_mu":56,"left_numbers":[47,59,60,60,61],"right_numbers":[40,44,60,52,50],"points_earned":272,"phase":"task","trial_type":"horizons-task","trial_index":90,"time_elapsed":995842,"internal_node_id":"0.0-86.0","task_version":"0.2"},{"response_times":[755.2400003187358,563.835000153631,542.2299997881055,430.4300001822412,3090.410000178963,889.2550002783537,399.3200003169477,451.9549999386072,402.0549999549985,808.2699999213219],"keys_pressed":["rightarrow","rightarrow","leftarrow","rightarrow","rightarrow","rightarrow","rightarrow","rightarrow","rightarrow","rightarrow"],"horizon":10,"forced_choices":["rightarrow","rightarrow","leftarrow","rightarrow"],"right_color":"orange","left_color":"lightblue","left_mu":60,"right_mu":68,"left_numbers":[57,61,52,59,41,59,71,53,73,71],"right_numbers":[74,64,63,66,58,64,62,63,59,91],"points_earned":653,"phase":"task","trial_type":"horizons-task","trial_index":91,"time_elapsed":1005679,"internal_node_id":"0.0-87.0","task_version":"0.2"},{"rt":21387.70500011742,"responses":{"age":"33","gender-categorical":"Female","gender-free-response":"","ethnicity":"Not Hispanic or Latino","race":["White"],"language":"Yes","fluency":"Very well"},"survey":"demographics","trial_type":"survey-demo","trial_index":92,"time_elapsed":1027069,"internal_node_id":"0.0-88.0","task_version":"0.2"},{"rt":27673.825000412762,"responses":{"difficulty":"4","fun":"4","clarity":"5","strategy":"I just went with the one that looked better","feedback":""},"survey":"debrief","trial_type":"survey-debrief","trial_index":93,"time_elapsed":1054746,"internal_node_id":"0.0-89.0","task_version":"0.2","interactions":"[{\"event\":\"blur\",\"trial\":37,\"time\":585004},{\"event\":\"focus\",\"trial\":37,\"time\":599470}]"}]