[{"view_history":"[{\"page_index\":0,\"viewing_time\":1541.4900000014313}]","rt":1541.8050000007497,"trial_type":"instructions","trial_index":0,"time_elapsed":1547,"internal_node_id":"0.0-0.0","task_version":"0.2"},{"item_order":[4,5,13,11,15,0,9,2,14,1,7,8,6,10,12,3],"responses":{"Q05":"2","Q06":"2","Q14":"2","Q12":"1","Q16":"2","Q01":"3","Q10":"1","Q03":"0","Q15":"3","Q02":"4","Q08":"3","Q09":"2","Q07":"3","Q11":"2","Q13":"3","Q04":"0"},"radio_events":[6277.215000000069,8461.34499999971,11636.954999999944,13725.609999999506,14381.069999999454,15045.125000000553,17181.174999999712,18253.099999999904,20037.034999999378,20981.03000000083,21653.384999999616,23861.02000000028,24580.95499999945,25253.230000000258,26605.030000000625,29876.93500000023],"key_events":[],"mouse_events":[0.045000000682193786,6277.215000000069,8461.34499999971,11636.954999999944,13725.609999999506,14381.069999999454,15045.125000000553,15925.059999999576,17181.174999999712,18253.099999999904,20037.034999999378,20981.03000000083,21653.384999999616,22828.98000000023,23861.02000000028,24580.95499999945,25253.230000000258,26605.030000000625,29876.93500000023,39373.0400000004],"rt":39375.5000000001,"survey":"nfc","trial_type":"survey-template","trial_index":1,"time_elapsed":40926,"internal_node_id":"0.0-1.0","task_version":"0.2"},{"item_order":[11,12,8,0,7,9,10,3,1,2,6,5,4],"responses":{"Q12":"3","Q13":"3","Q09":"4","Q01":"2","Q08":"2","Q10":"0","Q11":"0","Q04":"2","Q02":"3","Q03":"0","Q07":"0","Q06":"1","Q05":"2"},"radio_events":[4088.7300000013056,4720.5400000002555,6000.724999999875,8696.66000000143,10128.655000000435,11432.700000001205,12408.660000000964,15768.670000001293,16776.63500000017,20064.65500000013,21144.685000001118,21992.79000000024,23224.695000000793],"key_events":[],"mouse_events":[4088.7300000013056,4720.5400000002555,6000.724999999875,8696.66000000143,9568.710000001374,10128.655000000435,11432.700000001205,12408.660000000964,15768.670000001293,16776.63500000017,17632.935000001453,20064.65500000013,21144.685000001118,21992.79000000024,23224.695000000793,25288.715000000593],"rt":25289.910000001328,"survey":"ius12","trial_type":"survey-template","trial_index":2,"time_elapsed":66220,"internal_node_id":"0.0-2.0","task_version":"0.2"},{"item_order":[2,14,13,5,0,3,7,1,4,6,15,12,16,10,11,8,9],"responses":{"Q03":"1","Q15":"2","Q14":"2","Q06":"1","Q01":"3","Q04":"2","Q08":"2","Q02":"3","Q05":"3","Q07":"1","Q16":"1","Q13":"2","Q17":"2","Q11":"2","Q12":"2","Q09":"2","Q10":"2"},"radio_events":[1546.1899999991147,2346.240000000762,2746.2300000006508,3554.2499999992287,4458.155000000261,6266.185000000405,6689.925000000585,7474.065000000337,8162.4400000000605,10426.219999999375,11625.99500000033,12218.140000000858,12634.360000000015,13554.004999999961,14018.029999999271,14666.1550000008,23354.214999999385],"key_events":[],"mouse_events":[1546.1899999991147,2346.240000000762,2746.2300000006508,3554.2499999992287,4458.155000000261,6266.185000000405,6689.925000000585,7474.065000000337,8162.4400000000605,10426.219999999375,10825.919999999314,11625.99500000033,12218.140000000858,12634.360000000015,13034.019999999146,13554.004999999961,14018.029999999271,14666.1550000008,15538.160000000062,23354.214999999385,26058.25999999979],"rt":26059.839999999895,"survey":"pswq","trial_type":"survey-template","trial_index":3,"time_elapsed":92285,"internal_node_id":"0.0-3.0","task_version":"0.2"},{"view_history":"[{\"page_index\":0,\"viewing_time\":4354.334999999992},{\"page_index\":1,\"viewing_time\":4031.8999999999505},{\"page_index\":2,\"viewing_time\":3119.9850000011793},{\"page_index\":3,\"viewing_time\":1768.0549999986397},{\"page_index\":4,\"viewing_time\":695.915000000241},{\"page_index\":5,\"viewing_time\":567.9450000006909},{\"page_index\":6,\"viewing_time\":1440.1149999994232},{\"page_index\":7,\"viewing_time\":1079.955000001064},{\"page_index\":8,\"viewing_time\":975.9799999992538},{\"page_index\":9,\"viewing_time\":2000.0450000006822}]","rt":20034.805000001143,"trial_type":"instructions","trial_index":4,"time_elapsed":112322,"internal_node_id":"0.0-4.0-0.0","task_version":"0.2"},{"response_times":[21617.964999999444,2295.4549999994924,1904.3249999994878,911.7999999998428,2152.7600000008824],"keys_pressed":["rightarrow","leftarrow","rightarrow","rightarrow","leftarrow"],"horizon":5,"forced_choices":["rightarrow","leftarrow","rightarrow","rightarrow"],"right_color":"lightblue","left_color":"orange","left_mu":40,"right_mu":20,"left_numbers":[29,42,37,40,44],"right_numbers":[17,21,21,30,16],"points_earned":154,"phase":"practice","trial_type":"horizons-task","trial_index":5,"time_elapsed":142712,"internal_node_id":"0.0-4.0-1.0","task_version":"0.2"},{"response_times":[1913.3199999996577,2783.9050000002317,544.3300000006275,511.7200000004377,1183.9650000002002,16.115000000369037,1688.1800000010116,0.6099999991420191,607.18999999878,0.5750000000407454],"keys_pressed":["leftarrow","leftarrow","rightarrow","rightarrow","leftarrow","rightarrow","rightarrow","leftarrow","rightarrow","leftarrow"],"horizon":10,"forced_choices":["leftarrow","leftarrow","rightarrow","rightarrow"],"right_color":"orange","left_color":"lightblue","left_mu":60,"right_mu":70,"left_numbers":[72,47,74,57,62,54,62,63,65,43],"right_numbers":[79,65,82,59,80,68,71,65,66,65],"points_earned":633,"phase":"practice","trial_type":"horizons-task","trial_index":6,"time_elapsed":153464,"internal_node_id":"0.0-4.0-2.0","task_version":"0.2"},{"view_history":"[{\"page_index\":0,\"viewing_time\":3817.305000000488},{\"page_index\":1,\"viewing_time\":519.96999999939},{\"page_index\":2,\"viewing_time\":488.62999999983003},{\"page_index\":3,\"viewing_time\":487.33999999967637}]","rt":5313.464999999269,"trial_type":"instructions","trial_index":7,"time_elapsed":158778,"internal_node_id":"0.0-4.0-3.0","task_version":"0.2"},{"responses":["true","true","true"],"num_errors":1,"rt":20127.175000001444,"trial_type":"horizons-comprehension","trial_index":8,"time_elapsed":178907,"internal_node_id":"0.0-4.0-4.0","task_version":"0.2"},{"view_history":"[{\"page_index\":0,\"viewing_time\":1747.0099999991362},{\"page_index\":1,\"viewing_time\":1352.045000001439},{\"page_index\":2,\"viewing_time\":751.9849999989674},{\"page_index\":3,\"viewing_time\":703.9299999996729},{\"page_index\":4,\"viewing_time\":560.03500000044},{\"page_index\":5,\"viewing_time\":423.96000000007916},{\"page_index\":6,\"viewing_time\":864.0450000002456},{\"page_index\":7,\"viewing_time\":495.9899999994377},{\"page_index\":8,\"viewing_time\":567.9749999999185},{\"page_index\":9,\"viewing_time\":1472.0200000010664}]","rt":8939.215000000317,"trial_type":"instructions","trial_index":9,"time_elapsed":187850,"internal_node_id":"0.0-4.1-0.1","task_version":"0.2"},{"response_times":[1343.4799999995448,447.73999999961234,592.1200000011595,744.0399999995716,800.2999999989697],"keys_pressed":["rightarrow","leftarrow","rightarrow","rightarrow","rightarrow"],"horizon":5,"forced_choices":["rightarrow","leftarrow","rightarrow","rightarrow"],"right_color":"lightblue","left_color":"orange","left_mu":40,"right_mu":20,"left_numbers":[47,40,43,42,49],"right_numbers":[11,35,5,37,12],"points_earned":105,"phase":"practice","trial_type":"horizons-task","trial_index":10,"time_elapsed":193279,"internal_node_id":"0.0-4.1-1.1","task_version":"0.2"},{"response_times":[929.9000000009837,456.05000000068685,487.8650000009802,544.2300000013493,808.6149999999325,0.4750000007334165,726.6949999993958,8.064999999973224,920.2800000002899,0.480000000592554],"keys_pressed":["leftarrow","leftarrow","rightarrow","rightarrow","rightarrow","leftarrow","leftarrow","rightarrow","rightarrow","leftarrow"],"horizon":10,"forced_choices":["leftarrow","leftarrow","rightarrow","rightarrow"],"right_color":"orange","left_color":"lightblue","left_mu":60,"right_mu":70,"left_numbers":[66,56,62,49,63,73,65,68,64,49],"right_numbers":[51,89,68,80,67,61,74,61,78,80],"points_earned":663,"phase":"practice","trial_type":"horizons-task","trial_index":11,"time_elapsed":199664,"internal_node_id":"0.0-4.1-2.1","task_version":"0.2"},{"view_history":"[{\"page_index\":0,\"viewing_time\":1801.8149999988964},{\"page_index\":1,\"viewing_time\":591.9650000014517},{\"page_index\":2,\"viewing_time\":440.02499999987776},{\"page_index\":3,\"viewing_time\":408.0799999992596}]","rt":3242.124999998865,"trial_type":"instructions","trial_index":12,"time_elapsed":202906,"internal_node_id":"0.0-4.1-3.1","task_version":"0.2"},{"responses":["true","false","true"],"num_errors":0,"rt":4279.104999999603,"trial_type":"horizons-comprehension","trial_index":13,"time_elapsed":207187,"internal_node_id":"0.0-4.1-4.1","task_version":"0.2"},{"trial_type":"call-function","trial_index":14,"time_elapsed":207190,"internal_node_id":"0.0-5.0","task_version":"0.2"},{"view_history":"[{\"page_index\":0,\"viewing_time\":1115.3899999990244},{\"page_index\":1,\"viewing_time\":1144.3200000012293}]","rt":2259.969999999157,"trial_type":"instructions","trial_index":15,"time_elapsed":209451,"internal_node_id":"0.0-6.0","task_version":"0.2"},{"response_times":[1179.4549999995215,407.96500000031665,384.37499999965075,551.4499999990221,280.09000000020023],"keys_pressed":["leftarrow","leftarrow","rightarrow","leftarrow","rightarrow"],"horizon":5,"forced_choices":["leftarrow","leftarrow","rightarrow","leftarrow"],"right_color":"lightblue","left_color":"orange","left_mu":60,"right_mu":30,"left_numbers":[67,60,43,64,43],"right_numbers":[26,38,33,29,25],"points_earned":249,"phase":"task","trial_type":"horizons-task","trial_index":16,"time_elapsed":213759,"internal_node_id":"0.0-7.0","task_version":"0.2"},{"response_times":[1226.2750000008964,679.6749999994063,512.0699999988719,688.0499999988533,935.8999999985681,920.2900000000373,711.7400000006601,816.0100000004459,448.1850000011036,1223.9549999994924],"keys_pressed":["rightarrow","rightarrow","leftarrow","leftarrow","rightarrow","rightarrow","rightarrow","rightarrow","leftarrow","rightarrow"],"horizon":10,"forced_choices":["rightarrow","rightarrow","leftarrow","leftarrow"],"right_color":"orange","left_color":"lightblue","left_mu":60,"right_mu":40,"left_numbers":[63,75,61,64,44,61,42,52,62,65],"right_numbers":[40,53,38,25,56,32,36,50,49,41],"points_earned":495,"phase":"task","trial_type":"horizons-task","trial_index":17,"time_elapsed":223424,"internal_node_id":"0.0-8.0","task_version":"0.2"},{"response_times":[1321.8850000011735,128.18999999944936,287.4049999991548,239.99499999990803,248.9800000002724,183.23000000056345,15.86000000135391,288.1149999993795,159.765000000305,128.09000000017113],"keys_pressed":["leftarrow","rightarrow","rightarrow","rightarrow","rightarrow","rightarrow","leftarrow","leftarrow","rightarrow","leftarrow"],"horizon":10,"forced_choices":["leftarrow","rightarrow","rightarrow","rightarrow"],"right_color":"lightblue","left_color":"orange","left_mu":60,"right_mu":68,"left_numbers":[54,67,57,54,61,66,62,61,59,61],"right_numbers":[70,76,82,58,59,79,69,62,70,73],"points_earned":662,"phase":"task","trial_type":"horizons-task","trial_index":18,"time_elapsed":227927,"internal_node_id":"0.0-9.0","task_version":"0.2"},{"response_times":[1001.7399999996996,88.06000000005588,295.81499999947846,87.83500000025379,96.1000000006461,103.88500000044587,88.91000000038184,110.69999999925494,104.28500000125496,72.2249999998894],"keys_pressed":["rightarrow","leftarrow","leftarrow","rightarrow","leftarrow","rightarrow","leftarrow","rightarrow","leftarrow","rightarrow"],"horizon":10,"forced_choices":["rightarrow","leftarrow","leftarrow","rightarrow"],"right_color":"lightblue","left_color":"orange","left_mu":40,"right_mu":52,"left_numbers":[48,44,43,48,27,25,47,39,39,39],"right_numbers":[56,47,40,67,58,51,56,52,55,47],"points_earned":473,"phase":"task","trial_type":"horizons-task","trial_index":19,"time_elapsed":231479,"internal_node_id":"0.0-10.0","task_version":"0.2"},{"response_times":[1098.7399999994377,272.2049999992887,175.7900000011432,23.704999999608845,199.7549999996554,55.93500000034692,160.3650000015332,15.654999999213032,232.42500000013388,55.44000000008964],"keys_pressed":["rightarrow","rightarrow","leftarrow","rightarrow","leftarrow","rightarrow","leftarrow","rightarrow","rightarrow","leftarrow"],"horizon":10,"forced_choices":["rightarrow","rightarrow","leftarrow","rightarrow"],"right_color":"orange","left_color":"lightblue","left_mu":60,"right_mu":52,"left_numbers":[63,58,65,56,71,56,71,72,58,49],"right_numbers":[64,44,60,48,41,46,49,36,58,47],"points_earned":552,"phase":"task","trial_type":"horizons-task","trial_index":20,"time_elapsed":235271,"internal_node_id":"0.0-11.0","task_version":"0.2"},{"response_times":[586.6699999987613,239.49999999970896,248.04999999830034,87.95999999891501,144.25499999924796,72.01999999961117,167.70499999984168,80.10499999910826,152.14999999987776,127.73999999990338],"keys_pressed":["rightarrow","rightarrow","rightarrow","leftarrow","rightarrow","leftarrow","rightarrow","leftarrow","rightarrow","leftarrow"],"horizon":10,"forced_choices":["rightarrow","rightarrow","rightarrow","leftarrow"],"right_color":"lightblue","left_color":"orange","left_mu":40,"right_mu":20,"left_numbers":[39,42,42,39,47,39,36,48,41,43],"right_numbers":[12,21,4,15,28,25,27,31,13,15],"points_earned":274,"phase":"task","trial_type":"horizons-task","trial_index":21,"time_elapsed":238680,"internal_node_id":"0.0-12.0","task_version":"0.2"},{"response_times":[418.2550000005285,160.33500000048662,63.50500000009197,143.54499999899417,80.28499999997439,143.7700000006007,80.35500000006869,160.13999999995576,56.23499999998603,191.44500000041444],"keys_pressed":["leftarrow","rightarrow","leftarrow","rightarrow","leftarrow","rightarrow","leftarrow","rightarrow","leftarrow","rightarrow"],"horizon":10,"forced_choices":["leftarrow","rightarrow","leftarrow","rightarrow"],"right_color":"orange","left_color":"lightblue","left_mu":60,"right_mu":56,"left_numbers":[44,73,64,53,69,62,43,57,40,50],"right_numbers":[46,55,83,74,56,43,56,54,45,60],"points_earned":546,"phase":"task","trial_type":"horizons-task","trial_index":22,"time_elapsed":241679,"internal_node_id":"0.0-13.0","task_version":"0.2"},{"response_times":[418.310000000929,311.9750000005588,64.32499999937136,208.22000000043772,0.5200000014156103],"keys_pressed":["rightarrow","rightarrow","leftarrow","rightarrow","leftarrow"],"horizon":5,"forced_choices":["rightarrow","rightarrow","leftarrow","rightarrow"],"right_color":"orange","left_color":"lightblue","left_mu":60,"right_mu":90,"left_numbers":[57,61,49,58,59],"right_numbers":[84,87,90,88,90],"points_earned":367,"phase":"task","trial_type":"horizons-task","trial_index":23,"time_elapsed":244184,"internal_node_id":"0.0-14.0","task_version":"0.2"},{"response_times":[345.3249999983818,231.7649999986461,24.339999999967404,303.71999999985565,176.3199999986682,63.75499999918975,160.2600000005914,87.5850000011269,135.94499999997788,40.08999999862863],"keys_pressed":["rightarrow","rightarrow","leftarrow","leftarrow","rightarrow","leftarrow","rightarrow","leftarrow","rightarrow","leftarrow"],"horizon":10,"forced_choices":["rightarrow","rightarrow","leftarrow","leftarrow"],"right_color":"orange","left_color":"lightblue","left_mu":40,"right_mu":60,"left_numbers":[42,45,49,26,36,48,36,43,48,37],"right_numbers":[63,62,85,64,62,47,65,49,64,55],"points_earned":519,"phase":"task","trial_type":"horizons-task","trial_index":24,"time_elapsed":247255,"internal_node_id":"0.0-15.0","task_version":"0.2"},{"response_times":[418.23500000100466,232.0450000006822,231.67000000103144,272.70999999929336,39.8349999995844],"keys_pressed":["leftarrow","rightarrow","rightarrow","rightarrow","leftarrow"],"horizon":5,"forced_choices":["leftarrow","rightarrow","rightarrow","rightarrow"],"right_color":"orange","left_color":"lightblue","left_mu":60,"right_mu":48,"left_numbers":[59,65,68,54,65],"right_numbers":[49,44,45,53,42],"points_earned":266,"phase":"task","trial_type":"horizons-task","trial_index":25,"time_elapsed":249952,"internal_node_id":"0.0-16.0","task_version":"0.2"},{"response_times":[330.1400000000431,223.56500000023516,208.0150000001886,119.86000000068452,119.76500000126543,144.08999999976368,112.50500000096508,135.05000000074506,64.57500000036089,135.7400000015041],"keys_pressed":["leftarrow","leftarrow","leftarrow","rightarrow","leftarrow","rightarrow","leftarrow","rightarrow","leftarrow","rightarrow"],"horizon":10,"forced_choices":["leftarrow","leftarrow","leftarrow","rightarrow"],"right_color":"lightblue","left_color":"orange","left_mu":40,"right_mu":32,"left_numbers":[36,44,47,30,26,43,44,48,44,45],"right_numbers":[23,30,52,24,42,36,30,33,30,14],"points_earned":348,"phase":"task","trial_type":"horizons-task","trial_index":26,"time_elapsed":253048,"internal_node_id":"0.0-17.0","task_version":"0.2"},{"response_times":[385.5750000002445,176.53000000063912,255.9849999997532,79.83499999865307,167.6049999987299],"keys_pressed":["leftarrow","rightarrow","rightarrow","leftarrow","rightarrow"],"horizon":5,"forced_choices":["leftarrow","rightarrow","rightarrow","leftarrow"],"right_color":"orange","left_color":"lightblue","left_mu":60,"right_mu":52,"left_numbers":[51,66,51,49,62],"right_numbers":[65,50,42,49,54],"points_earned":246,"phase":"task","trial_type":"horizons-task","trial_index":27,"time_elapsed":255615,"internal_node_id":"0.0-18.0","task_version":"0.2"},{"response_times":[266.3049999992072,152.14500000001863,224.69000000090455,127.30999999985215,63.83500000083586],"keys_pressed":["rightarrow","leftarrow","leftarrow","rightarrow","leftarrow"],"horizon":5,"forced_choices":["rightarrow","leftarrow","leftarrow","rightarrow"],"right_color":"lightblue","left_color":"orange","left_mu":40,"right_mu":20,"left_numbers":[41,53,29,50,37],"right_numbers":[19,20,13,0,13],"points_earned":138,"phase":"task","trial_type":"horizons-task","trial_index":28,"time_elapsed":257952,"internal_node_id":"0.0-19.0","task_version":"0.2"},{"response_times":[385.83499999914784,231.5500000003958,223.90500000072643,168.1349999998929,79.9299999998766,144.3049999997893,88.03000000081374,151.7600000006496,87.77999999982421,152.5700000001816],"keys_pressed":["leftarrow","leftarrow","leftarrow","rightarrow","leftarrow","rightarrow","leftarrow","rightarrow","leftarrow","rightarrow"],"horizon":10,"forced_choices":["leftarrow","leftarrow","leftarrow","rightarrow"],"right_color":"lightblue","left_color":"orange","left_mu":40,"right_mu":36,"left_numbers":[45,32,35,47,42,54,44,45,34,45],"right_numbers":[35,22,42,39,34,24,49,28,32,43],"points_earned":366,"phase":"task","trial_type":"horizons-task","trial_index":29,"time_elapsed":261168,"internal_node_id":"0.0-20.0","task_version":"0.2"},{"response_times":[290.1699999984121,272.20999999914784,215.43999999994412,104.30500000074971,120.09000000031665],"keys_pressed":["rightarrow","rightarrow","rightarrow","leftarrow","rightarrow"],"horizon":5,"forced_choices":["rightarrow","rightarrow","rightarrow","leftarrow"],"right_color":"orange","left_color":"lightblue","left_mu":40,"right_mu":28,"left_numbers":[33,48,38,41,30],"right_numbers":[6,34,45,26,26],"points_earned":152,"phase":"task","trial_type":"horizons-task","trial_index":30,"time_elapsed":263672,"internal_node_id":"0.0-21.0","task_version":"0.2"},{"response_times":[433.6899999998859,191.93000000086613,79.74499999906402,135.99000000068918,87.95499999908498,167.63999999966472,104.4450000008801,176.0300000005518,103.56000000133645,200.90999999956694],"keys_pressed":["leftarrow","rightarrow","leftarrow","rightarrow","leftarrow","rightarrow","leftarrow","rightarrow","leftarrow","rightarrow"],"horizon":10,"forced_choices":["leftarrow","rightarrow","leftarrow","rightarrow"],"right_color":"lightblue","left_color":"orange","left_mu":60,"right_mu":64,"left_numbers":[65,46,64,60,62,62,59,64,51,56],"right_numbers":[57,66,58,54,74,53,78,69,56,61],"points_earned":604,"phase":"task","trial_type":"horizons-task","trial_index":31,"time_elapsed":266856,"internal_node_id":"0.0-22.0","task_version":"0.2"},{"response_times":[625.2800000002026,79.81500000099186,232.05000000057044,104.74000000068918,96.21499999955995,110.93499999877531,104.1150000000489,120.4649999999674,127.45999999972992,95.88000000070315],"keys_pressed":["rightarrow","leftarrow","leftarrow","rightarrow","leftarrow","rightarrow","leftarrow","rightarrow","leftarrow","rightarrow"],"horizon":10,"forced_choices":["rightarrow","leftarrow","leftarrow","rightarrow"],"right_color":"lightblue","left_color":"orange","left_mu":60,"right_mu":72,"left_numbers":[62,52,55,51,70,54,53,69,49,56],"right_numbers":[77,67,69,52,62,64,68,62,69,69],"points_earned":603,"phase":"task","trial_type":"horizons-task","trial_index":32,"time_elapsed":270056,"internal_node_id":"0.0-23.0","task_version":"0.2"},{"response_times":[265.8299999984447,144.0100000000093,240.03000000084285,191.67000000015832,71.95500000123866,144.0100000000093,111.87500000052387,144.22999999986496,87.8999999986263,151.8249999990221],"keys_pressed":["rightarrow","leftarrow","leftarrow","rightarrow","leftarrow","rightarrow","leftarrow","rightarrow","leftarrow","rightarrow"],"horizon":10,"forced_choices":["rightarrow","leftarrow","leftarrow","rightarrow"],"right_color":"lightblue","left_color":"orange","left_mu":40,"right_mu":20,"left_numbers":[39,45,38,39,45,42,51,35,52,45],"right_numbers":[24,20,6,23,18,39,18,17,8,36],"points_earned":370,"phase":"task","trial_type":"horizons-task","trial_index":33,"time_elapsed":273111,"internal_node_id":"0.0-24.0","task_version":"0.2"},{"response_times":[218.7049999993178,96.11000000039348,144.15500000177417,247.47999999998137,104.19000000000233],"keys_pressed":["rightarrow","leftarrow","rightarrow","rightarrow","leftarrow"],"horizon":5,"forced_choices":["rightarrow","leftarrow","rightarrow","rightarrow"],"right_color":"lightblue","left_color":"orange","left_mu":40,"right_mu":52,"left_numbers":[39,43,45,42,32],"right_numbers":[63,58,42,38,51],"points_earned":218,"phase":"task","trial_type":"horizons-task","trial_index":34,"time_elapsed":275423,"internal_node_id":"0.0-25.0","task_version":"0.2"},{"response_times":[385.8650000002235,160.55500000034226,247.4700000002049,272.0350000017788,127.95499999995809,119.70500000100583,96.31500000070082,151.71999999979744,80.64500000001863,135.27500000054715],"keys_pressed":["leftarrow","rightarrow","rightarrow","rightarrow","leftarrow","rightarrow","leftarrow","rightarrow","leftarrow","rightarrow"],"horizon":10,"forced_choices":["leftarrow","rightarrow","rightarrow","rightarrow"],"right_color":"orange","left_color":"lightblue","left_mu":40,"right_mu":44,"left_numbers":[45,52,35,31,29,45,46,42,34,29],"right_numbers":[45,42,37,49,49,39,42,33,33,47],"points_earned":401,"phase":"task","trial_type":"horizons-task","trial_index":35,"time_elapsed":278704,"internal_node_id":"0.0-26.0","task_version":"0.2"},{"response_times":[546.0849999999627,247.81000000075437,168.00999999942724,256.5699999995413,55.415000000735745],"keys_pressed":["leftarrow","leftarrow","rightarrow","rightarrow","leftarrow"],"horizon":5,"forced_choices":["leftarrow","leftarrow","rightarrow","rightarrow"],"right_color":"orange","left_color":"lightblue","left_mu":40,"right_mu":28,"left_numbers":[50,25,21,55,52],"right_numbers":[36,25,43,28,26],"points_earned":198,"phase":"task","trial_type":"horizons-task","trial_index":36,"time_elapsed":281479,"internal_node_id":"0.0-27.0","task_version":"0.2"},{"response_times":[546.2449999995879,375.85000000032596,160.214999999851,496.03000000026077,400.01499999925727],"keys_pressed":["leftarrow","rightarrow","leftarrow","leftarrow","rightarrow"],"horizon":5,"forced_choices":["leftarrow","rightarrow","leftarrow","leftarrow"],"right_color":"orange","left_color":"lightblue","left_mu":40,"right_mu":10,"left_numbers":[36,39,28,51,36],"right_numbers":[7,9,0,7,5],"points_earned":129,"phase":"task","trial_type":"horizons-task","trial_index":37,"time_elapsed":284960,"internal_node_id":"0.0-28.0","task_version":"0.2"},{"response_times":[307.18499999970663,287.4450000017532,239.43999999936204,199.9199999991106,56.524999999965075],"keys_pressed":["leftarrow","rightarrow","rightarrow","rightarrow","leftarrow"],"horizon":5,"forced_choices":["leftarrow","rightarrow","rightarrow","rightarrow"],"right_color":"lightblue","left_color":"orange","left_mu":60,"right_mu":68,"left_numbers":[55,53,47,61,55],"right_numbers":[54,68,79,66,68],"points_earned":323,"phase":"task","trial_type":"horizons-task","trial_index":38,"time_elapsed":287551,"internal_node_id":"0.0-29.0","task_version":"0.2"},{"response_times":[201.62000000162516,40.12999999936437,279.754999999539,120.25499999977183,103.74500000034459,144.9950000005192,71.42500000004657,151.66499999939697,104.01499999902444,136.0750000003609],"keys_pressed":["rightarrow","leftarrow","leftarrow","rightarrow","leftarrow","rightarrow","leftarrow","rightarrow","leftarrow","rightarrow"],"horizon":10,"forced_choices":["rightarrow","leftarrow","leftarrow","rightarrow"],"right_color":"lightblue","left_color":"orange","left_mu":60,"right_mu":80,"left_numbers":[49,70,70,59,54,64,60,60,67,51],"right_numbers":[84,64,62,87,58,84,83,81,72,77],"points_earned":734,"phase":"task","trial_type":"horizons-task","trial_index":39,"time_elapsed":290408,"internal_node_id":"0.0-30.0","task_version":"0.2"},{"response_times":[241.95000000146683,80.17499999917345,263.45500000024913,112.09500000043772,112.02000000048429],"keys_pressed":["rightarrow","leftarrow","leftarrow","rightarrow","leftarrow"],"horizon":5,"forced_choices":["rightarrow","leftarrow","leftarrow","rightarrow"],"right_color":"lightblue","left_color":"orange","left_mu":40,"right_mu":52,"left_numbers":[47,33,35,38,32],"right_numbers":[35,64,45,69,55],"points_earned":204,"phase":"task","trial_type":"horizons-task","trial_index":40,"time_elapsed":292720,"internal_node_id":"0.0-31.0","task_version":"0.2"},{"response_times":[194.4100000000326,159.35999999963678,88.11499999865191,239.62000000028638,128.3499999990454,120.61499999981606,167.22000000119442,104.1399999994901,95.88000000076136,103.91500000149244],"keys_pressed":["leftarrow","rightarrow","leftarrow","leftarrow","rightarrow","leftarrow","rightarrow","leftarrow","rightarrow","leftarrow"],"horizon":10,"forced_choices":["leftarrow","rightarrow","leftarrow","leftarrow"],"right_color":"lightblue","left_color":"orange","left_mu":40,"right_mu":70,"left_numbers":[32,49,33,47,46,37,44,44,43,36],"right_numbers":[63,78,76,71,65,69,77,75,72,62],"points_earned":521,"phase":"task","trial_type":"horizons-task","trial_index":41,"time_elapsed":295624,"internal_node_id":"0.0-32.0","task_version":"0.2"},{"response_times":[410.43499999976484,264.0699999992503,160.27499999839347,64.05499999894528,191.419999999227,80.04999999870779,159.87999999924796,71.68499999894993,192.09000000043306,16.064999999827705],"keys_pressed":["leftarrow","leftarrow","rightarrow","leftarrow","rightarrow","leftarrow","rightarrow","leftarrow","rightarrow","leftarrow"],"horizon":10,"forced_choices":["leftarrow","leftarrow","rightarrow","leftarrow"],"right_color":"orange","left_color":"lightblue","left_mu":40,"right_mu":48,"left_numbers":[25,41,32,47,35,27,44,39,41,24],"right_numbers":[38,50,41,49,36,39,48,40,44,57],"points_earned":372,"phase":"task","trial_type":"horizons-task","trial_index":42,"time_elapsed":298735,"internal_node_id":"0.0-33.0","task_version":"0.2"},{"response_times":[466.71000000060303,279.95999999984633,79.80999999929918,216.21500000031665,119.90499999956228],"keys_pressed":["rightarrow","rightarrow","leftarrow","leftarrow","rightarrow"],"horizon":5,"forced_choices":["rightarrow","rightarrow","leftarrow","leftarrow"],"right_color":"orange","left_color":"lightblue","left_mu":60,"right_mu":40,"left_numbers":[60,41,58,64,41],"right_numbers":[35,34,35,35,39],"points_earned":230,"phase":"task","trial_type":"horizons-task","trial_index":43,"time_elapsed":301400,"internal_node_id":"0.0-34.0","task_version":"0.2"},{"response_times":[242.22499999997672,111.50499999889871,160.1949999985518,88.0500000002794,135.61999999912223,89.02499999926658,159.35499999974854,47.699999999196734,199.9550000000163,72.35000000038417],"keys_pressed":["rightarrow","leftarrow","rightarrow","leftarrow","rightarrow","leftarrow","rightarrow","leftarrow","rightarrow","leftarrow"],"horizon":10,"forced_choices":["rightarrow","leftarrow","rightarrow","leftarrow"],"right_color":"lightblue","left_color":"orange","left_mu":40,"right_mu":32,"left_numbers":[34,54,30,45,41,48,31,30,44,37],"right_numbers":[16,37,14,37,22,35,38,31,20,42],"points_earned":324,"phase":"task","trial_type":"horizons-task","trial_index":44,"time_elapsed":304208,"internal_node_id":"0.0-35.0","task_version":"0.2"},{"response_times":[169.5149999995483,160.71000000013737,79.87499999941792,167.39999999845168,103.94499999890104],"keys_pressed":["leftarrow","rightarrow","leftarrow","rightarrow","leftarrow"],"horizon":5,"forced_choices":["leftarrow","rightarrow","leftarrow","rightarrow"],"right_color":"orange","left_color":"lightblue","left_mu":60,"right_mu":56,"left_numbers":[68,66,79,63,60],"right_numbers":[61,58,59,56,46],"points_earned":321,"phase":"task","trial_type":"horizons-task","trial_index":45,"time_elapsed":306391,"internal_node_id":"0.0-36.0","task_version":"0.2"},{"response_times":[274.91499999997905,127.399999999383,112.13500000123167,160.3699999995879,63.42499999847496],"keys_pressed":["leftarrow","rightarrow","leftarrow","rightarrow","leftarrow"],"horizon":5,"forced_choices":["leftarrow","rightarrow","leftarrow","rightarrow"],"right_color":"orange","left_color":"lightblue","left_mu":40,"right_mu":10,"left_numbers":[35,40,52,44,40],"right_numbers":[15,17,8,9,0],"points_earned":153,"phase":"task","trial_type":"horizons-task","trial_index":46,"time_elapsed":308632,"internal_node_id":"0.0-37.0","task_version":"0.2"},{"response_times":[66.12000000133412,231.644999999844,176.18000000034226,256.28500000131316,119.95999999996275,143.78500000020722,63.67999999935273,184.67000000056578,95.76000000012573,439.78500000049826],"keys_pressed":["leftarrow","leftarrow","rightarrow","rightarrow","leftarrow","rightarrow","leftarrow","rightarrow","leftarrow","leftarrow"],"horizon":10,"forced_choices":["leftarrow","leftarrow","rightarrow","rightarrow"],"right_color":"orange","left_color":"lightblue","left_mu":40,"right_mu":28,"left_numbers":[29,45,39,47,41,38,32,33,38,42],"right_numbers":[25,41,29,25,36,25,33,33,33,23],"points_earned":339,"phase":"task","trial_type":"horizons-task","trial_index":47,"time_elapsed":311912,"internal_node_id":"0.0-38.0","task_version":"0.2"},{"response_times":[313.7249999999767,151.9850000004517,144.11000000109198,119.9550000000745,144.45499999966705,111.65500000061002,120.09500000020489,87.51499999919906,175.97999999998137,472.0950000009616],"keys_pressed":["rightarrow","leftarrow","rightarrow","leftarrow","rightarrow","leftarrow","rightarrow","leftarrow","rightarrow","leftarrow"],"horizon":10,"forced_choices":["rightarrow","leftarrow","rightarrow","leftarrow"],"right_color":"lightblue","left_color":"orange","left_mu":40,"right_mu":36,"left_numbers":[33,36,43,45,33,37,29,35,28,39],"right_numbers":[43,42,22,27,56,26,30,39,23,33],"points_earned":366,"phase":"task","trial_type":"horizons-task","trial_index":48,"time_elapsed":315255,"internal_node_id":"0.0-39.0","task_version":"0.2"},{"response_times":[274.8400000000256,240.3200000008219,223.93000000010943,127.75999999942724,151.67999999900348,120.02000000030966,152.22999999969034,160.1300000002375,127.83499999932246,87.78999999957159],"keys_pressed":["rightarrow","rightarrow","rightarrow","leftarrow","rightarrow","leftarrow","rightarrow","leftarrow","rightarrow","leftarrow"],"horizon":10,"forced_choices":["rightarrow","rightarrow","rightarrow","leftarrow"],"right_color":"orange","left_color":"lightblue","left_mu":40,"right_mu":28,"left_numbers":[38,29,31,38,50,36,45,31,28,51],"right_numbers":[30,19,29,10,19,39,30,28,22,42],"points_earned":305,"phase":"task","trial_type":"horizons-task","trial_index":49,"time_elapsed":318424,"internal_node_id":"0.0-40.0","task_version":"0.2"},{"response_times":[9.884999999427237,143.65499999991152,264.1650000005029,152.50500000000466,143.28000000020256],"keys_pressed":["leftarrow","rightarrow","rightarrow","leftarrow","rightarrow"],"horizon":5,"forced_choices":["leftarrow","rightarrow","rightarrow","leftarrow"],"right_color":"orange","left_color":"lightblue","left_mu":40,"right_mu":44,"left_numbers":[34,36,37,36,35],"right_numbers":[44,59,47,52,47],"points_earned":223,"phase":"task","trial_type":"horizons-task","trial_index":50,"time_elapsed":320639,"internal_node_id":"0.0-41.0","task_version":"0.2"},{"response_times":[322.5899999997346,112.00999999896158,271.63500000099884,136.73500000004424,423.3349999994971],"keys_pressed":["leftarrow","rightarrow","rightarrow","leftarrow","rightarrow"],"horizon":5,"forced_choices":["leftarrow","rightarrow","rightarrow","leftarrow"],"right_color":"orange","left_color":"lightblue","left_mu":40,"right_mu":48,"left_numbers":[54,39,41,47,33],"right_numbers":[47,39,42,57,29],"points_earned":211,"phase":"task","trial_type":"horizons-task","trial_index":51,"time_elapsed":323407,"internal_node_id":"0.0-42.0","task_version":"0.2"},{"response_times":[443.1899999999441,311.9800000003888,103.8549999993993,352.11499999969965,160.120000000461,103.46500000014203,104.01499999902444,152.39500000094995,136.02499999979045,151.43999999965308],"keys_pressed":["leftarrow","leftarrow","rightarrow","rightarrow","leftarrow","rightarrow","leftarrow","rightarrow","leftarrow","leftarrow"],"horizon":10,"forced_choices":["leftarrow","leftarrow","rightarrow","rightarrow"],"right_color":"lightblue","left_color":"orange","left_mu":60,"right_mu":68,"left_numbers":[52,47,59,55,53,68,64,61,74,68],"right_numbers":[61,65,78,74,44,71,58,77,66,68],"points_earned":658,"phase":"task","trial_type":"horizons-task","trial_index":52,"time_elapsed":326928,"internal_node_id":"0.0-43.0","task_version":"0.2"},{"response_times":[394.18499999918276,223.78000000026077,167.82499999861466,432.1349999991362,135.81999999948312],"keys_pressed":["leftarrow","leftarrow","rightarrow","rightarrow","leftarrow"],"horizon":5,"forced_choices":["leftarrow","leftarrow","rightarrow","rightarrow"],"right_color":"lightblue","left_color":"orange","left_mu":60,"right_mu":68,"left_numbers":[68,58,65,56,70],"right_numbers":[59,53,74,50,77],"points_earned":320,"phase":"task","trial_type":"horizons-task","trial_index":53,"time_elapsed":329784,"internal_node_id":"0.0-44.0","task_version":"0.2"},{"response_times":[826.175000000163,127.72499999846332,96.3499999998021,271.86500000057276,167.6700000007404,144.11500000098022,255.83999999979278,103.76500000164378,160.51499999960652,127.76000000123167],"keys_pressed":["rightarrow","leftarrow","rightarrow","rightarrow","leftarrow","rightarrow","rightarrow","leftarrow","rightarrow","leftarrow"],"horizon":10,"forced_choices":["rightarrow","leftarrow","rightarrow","rightarrow"],"right_color":"lightblue","left_color":"orange","left_mu":40,"right_mu":52,"left_numbers":[26,55,38,44,34,36,35,34,36,29],"right_numbers":[54,48,49,58,65,57,45,49,47,43],"points_earned":462,"phase":"task","trial_type":"horizons-task","trial_index":54,"time_elapsed":333568,"internal_node_id":"0.0-45.0","task_version":"0.2"},{"response_times":[514.2999999989406,287.65500000008615,55.96999999944819,199.99499999906402,112.27499999949941,159.6599999993341,103.96500000025844,159.86499999964144,144.189999999071,152.4850000005099],"keys_pressed":["rightarrow","rightarrow","leftarrow","rightarrow","leftarrow","rightarrow","leftarrow","rightarrow","leftarrow","rightarrow"],"horizon":10,"forced_choices":["rightarrow","rightarrow","leftarrow","rightarrow"],"right_color":"orange","left_color":"lightblue","left_mu":60,"right_mu":90,"left_numbers":[64,60,56,48,59,49,50,64,63,49],"right_numbers":[110,87,82,88,93,85,88,90,95,91],"points_earned":779,"phase":"task","trial_type":"horizons-task","trial_index":55,"time_elapsed":336960,"internal_node_id":"0.0-46.0","task_version":"0.2"},{"view_history":"[{\"page_index\":0,\"viewing_time\":386.9400000003516},{\"page_index\":1,\"viewing_time\":1247.7699999999022}]","rt":1634.9150000005611,"trial_type":"instructions","trial_index":56,"time_elapsed":338595,"internal_node_id":"0.0-47.0","task_version":"0.2"},{"response_times":[749.3799999993062,143.83500000071945,239.50500000140164,159.94999999931315,88.03999999875668],"keys_pressed":["rightarrow","leftarrow","leftarrow","rightarrow","leftarrow"],"horizon":5,"forced_choices":["rightarrow","leftarrow","leftarrow","rightarrow"],"right_color":"lightblue","left_color":"orange","left_mu":60,"right_mu":72,"left_numbers":[58,59,60,56,70],"right_numbers":[69,77,74,64,84],"points_earned":322,"phase":"task","trial_type":"horizons-task","trial_index":57,"time_elapsed":341480,"internal_node_id":"0.0-48.0","task_version":"0.2"},{"response_times":[338.41500000015367,271.52000000025146,128.2300000002724,247.66499999898952,128.3200000016368,135.79500000015832,87.81500000075903,175.97500000009313,112.34000000153901,160.03499999898486],"keys_pressed":["leftarrow","leftarrow","rightarrow","rightarrow","leftarrow","rightarrow","leftarrow","rightarrow","leftarrow","rightarrow"],"horizon":10,"forced_choices":["leftarrow","leftarrow","rightarrow","rightarrow"],"right_color":"orange","left_color":"lightblue","left_mu":60,"right_mu":90,"left_numbers":[60,76,51,64,67,48,59,50,65,66],"right_numbers":[75,86,98,84,99,85,104,95,94,82],"points_earned":771,"phase":"task","trial_type":"horizons-task","trial_index":58,"time_elapsed":344768,"internal_node_id":"0.0-49.0","task_version":"0.2"},{"response_times":[57.76999999943655,167.63499999977648,96.42499999975553,159.84500000014668,95.8850000006496],"keys_pressed":["leftarrow","rightarrow","leftarrow","rightarrow","leftarrow"],"horizon":5,"forced_choices":["leftarrow","rightarrow","leftarrow","rightarrow"],"right_color":"lightblue","left_color":"orange","left_mu":60,"right_mu":30,"left_numbers":[71,66,49,61,69],"right_numbers":[36,29,34,25,40],"points_earned":243,"phase":"task","trial_type":"horizons-task","trial_index":59,"time_elapsed":346848,"internal_node_id":"0.0-50.0","task_version":"0.2"},{"response_times":[129.63500000111526,264.2500000001746,112.10000000026776,224.0349999992759,136.2650000009453],"keys_pressed":["rightarrow","rightarrow","leftarrow","leftarrow","rightarrow"],"horizon":5,"forced_choices":["rightarrow","rightarrow","leftarrow","leftarrow"],"right_color":"orange","left_color":"lightblue","left_mu":60,"right_mu":48,"left_numbers":[63,62,66,64,60],"right_numbers":[39,57,46,67,63],"points_earned":289,"phase":"task","trial_type":"horizons-task","trial_index":60,"time_elapsed":349217,"internal_node_id":"0.0-51.0","task_version":"0.2"},{"response_times":[164.17499999987194,231.87999999936437,96.3499999998021,160.3699999995879,87.29500000114786],"keys_pressed":["rightarrow","rightarrow","leftarrow","rightarrow","leftarrow"],"horizon":5,"forced_choices":["rightarrow","rightarrow","leftarrow","rightarrow"],"right_color":"lightblue","left_color":"orange","left_mu":60,"right_mu":80,"left_numbers":[54,59,58,67,63],"right_numbers":[78,75,81,85,72],"points_earned":359,"phase":"task","trial_type":"horizons-task","trial_index":61,"time_elapsed":351463,"internal_node_id":"0.0-52.0","task_version":"0.2"},{"response_times":[170.4850000005681,271.93500000069616,240.19500000029802,87.83500000025379,159.9200000000419],"keys_pressed":["rightarrow","rightarrow","rightarrow","leftarrow","rightarrow"],"horizon":5,"forced_choices":["rightarrow","rightarrow","rightarrow","leftarrow"],"right_color":"lightblue","left_color":"orange","left_mu":40,"right_mu":20,"left_numbers":[44,35,37,40,52],"right_numbers":[18,10,13,7,16],"points_earned":97,"phase":"task","trial_type":"horizons-task","trial_index":62,"time_elapsed":353895,"internal_node_id":"0.0-53.0","task_version":"0.2"},{"response_times":[42.440000001050066,88.24000000092201,313.08999999961816,238.95499999891035,128.060000000929,103.9350000009872,136.0299999996787,111.67500000016298,120.24500000005355,96.26999999996042],"keys_pressed":["rightarrow","leftarrow","leftarrow","leftarrow","rightarrow","leftarrow","rightarrow","leftarrow","rightarrow","leftarrow"],"horizon":10,"forced_choices":["rightarrow","leftarrow","leftarrow","leftarrow"],"right_color":"lightblue","left_color":"orange","left_mu":60,"right_mu":72,"left_numbers":[56,58,56,59,62,76,66,73,61,60],"right_numbers":[75,68,66,73,65,71,72,63,68,69],"points_earned":662,"phase":"task","trial_type":"horizons-task","trial_index":63,"time_elapsed":356776,"internal_node_id":"0.0-54.0","task_version":"0.2"},{"response_times":[25.664999999222346,207.6600000000326,217.03499999968335,231.20000000018626,64.05499999888707],"keys_pressed":["leftarrow","rightarrow","rightarrow","rightarrow","leftarrow"],"horizon":5,"forced_choices":["leftarrow","rightarrow","rightarrow","rightarrow"],"right_color":"orange","left_color":"lightblue","left_mu":40,"right_mu":44,"left_numbers":[30,40,47,40,40],"right_numbers":[54,40,45,50,44],"points_earned":205,"phase":"task","trial_type":"horizons-task","trial_index":64,"time_elapsed":359023,"internal_node_id":"0.0-55.0","task_version":"0.2"},{"response_times":[2.870000000228174,263.2350000003353,168.1700000007986,240.03000000084285,103.67000000039116],"keys_pressed":["leftarrow","leftarrow","rightarrow","rightarrow","leftarrow"],"horizon":5,"forced_choices":["leftarrow","leftarrow","rightarrow","rightarrow"],"right_color":"orange","left_color":"lightblue","left_mu":60,"right_mu":90,"left_numbers":[61,60,60,44,54],"right_numbers":[85,93,80,87,114],"points_earned":342,"phase":"task","trial_type":"horizons-task","trial_index":65,"time_elapsed":361304,"internal_node_id":"0.0-56.0","task_version":"0.2"},{"response_times":[105.95500000088941,79.78499999991618,232.37499999959255,159.30500000104075,112.72999999893364],"keys_pressed":["rightarrow","leftarrow","leftarrow","rightarrow","leftarrow"],"horizon":5,"forced_choices":["rightarrow","leftarrow","leftarrow","rightarrow"],"right_color":"lightblue","left_color":"orange","left_mu":60,"right_mu":80,"left_numbers":[74,56,57,84,58],"right_numbers":[97,98,80,89,75],"points_earned":357,"phase":"task","trial_type":"horizons-task","trial_index":66,"time_elapsed":363496,"internal_node_id":"0.0-57.0","task_version":"0.2"},{"response_times":[282.01500000071246,23.474999999976717,304.5099999999511,96.13499999977648,135.64500000030966,104.10000000050059,143.86000000010245,112.01999999867985,183.6899999998277,104.28499999945052],"keys_pressed":["rightarrow","leftarrow","rightarrow","leftarrow","rightarrow","leftarrow","rightarrow","leftarrow","rightarrow","leftarrow"],"horizon":10,"forced_choices":["rightarrow","leftarrow","rightarrow","leftarrow"],"right_color":"lightblue","left_color":"orange","left_mu":40,"right_mu":70,"left_numbers":[35,33,28,31,37,42,48,41,39,40],"right_numbers":[76,80,78,74,69,72,54,55,62,64],"points_earned":526,"phase":"task","trial_type":"horizons-task","trial_index":67,"time_elapsed":366487,"internal_node_id":"0.0-58.0","task_version":"0.2"},{"response_times":[346.2550000004121,224.16999999945983,216.18499999929918,191.90500000154134,55.53999999939697],"keys_pressed":["leftarrow","leftarrow","leftarrow","rightarrow","leftarrow"],"horizon":5,"forced_choices":["leftarrow","leftarrow","leftarrow","rightarrow"],"right_color":"lightblue","left_color":"orange","left_mu":40,"right_mu":32,"left_numbers":[41,31,53,22,32],"right_numbers":[29,34,35,23,43],"points_earned":180,"phase":"task","trial_type":"horizons-task","trial_index":68,"time_elapsed":369023,"internal_node_id":"0.0-59.0","task_version":"0.2"},{"response_times":[1353.8049999988289,184.39000000036322,104.29500000097323,152.27500000037253,119.41499999916414],"keys_pressed":["rightarrow","rightarrow","leftarrow","rightarrow","leftarrow"],"horizon":5,"forced_choices":["rightarrow","rightarrow","leftarrow","rightarrow"],"right_color":"orange","left_color":"lightblue","left_mu":60,"right_mu":52,"left_numbers":[60,79,79,46,48],"right_numbers":[49,65,57,48,48],"points_earned":289,"phase":"task","trial_type":"horizons-task","trial_index":69,"time_elapsed":372439,"internal_node_id":"0.0-60.0","task_version":"0.2"},{"response_times":[122.25000000034925,55.85000000067521,264.3200000002398,208.37500000017462,615.7450000009849],"keys_pressed":["rightarrow","leftarrow","leftarrow","leftarrow","leftarrow"],"horizon":5,"forced_choices":["rightarrow","leftarrow","leftarrow","leftarrow"],"right_color":"lightblue","left_color":"orange","left_mu":60,"right_mu":64,"left_numbers":[61,65,52,66,48],"right_numbers":[59,63,65,63,66],"points_earned":290,"phase":"task","trial_type":"horizons-task","trial_index":70,"time_elapsed":375208,"internal_node_id":"0.0-61.0","task_version":"0.2"},{"response_times":[274.19499999814434,120.46000000194181,191.43999999866355,103.7849999993341,127.93000000237953,192.2599999998347,247.69999999995343,176.27499999804422,151.81500000105007,152.25500000081956],"keys_pressed":["leftarrow","rightarrow","leftarrow","rightarrow","leftarrow","rightarrow","leftarrow","rightarrow","leftarrow","rightarrow"],"horizon":10,"forced_choices":["leftarrow","rightarrow","leftarrow","rightarrow"],"right_color":"lightblue","left_color":"orange","left_mu":60,"right_mu":30,"left_numbers":[75,73,42,66,65,65,58,65,62,52],"right_numbers":[33,30,35,29,43,34,26,27,38,15],"points_earned":437,"phase":"task","trial_type":"horizons-task","trial_index":71,"time_elapsed":378448,"internal_node_id":"0.0-62.0","task_version":"0.2"},{"response_times":[3042.5450000002747,159.93000000162283,151.49000000022352,112.10000000207219,176.12000000005355],"keys_pressed":["rightarrow","leftarrow","rightarrow","leftarrow","rightarrow"],"horizon":5,"forced_choices":["rightarrow","leftarrow","rightarrow","leftarrow"],"right_color":"lightblue","left_color":"orange","left_mu":40,"right_mu":36,"left_numbers":[40,40,35,49,29],"right_numbers":[50,42,23,44,32],"points_earned":194,"phase":"task","trial_type":"horizons-task","trial_index":72,"time_elapsed":383592,"internal_node_id":"0.0-63.0","task_version":"0.2"},{"response_times":[321.3499999983469,71.79000000178348,239.79999999934807,216.5400000012596,471.5199999992037],"keys_pressed":["rightarrow","leftarrow","leftarrow","leftarrow","leftarrow"],"horizon":5,"forced_choices":["rightarrow","leftarrow","leftarrow","leftarrow"],"right_color":"orange","left_color":"lightblue","left_mu":40,"right_mu":60,"left_numbers":[25,38,39,43,51],"right_numbers":[67,63,43,47,45],"points_earned":238,"phase":"task","trial_type":"horizons-task","trial_index":73,"time_elapsed":386416,"internal_node_id":"0.0-64.0","task_version":"0.2"},{"response_times":[57.87000000057742,216.38499999971827,199.62500000110595,168.22500000125729,95.75499999843305],"keys_pressed":["leftarrow","leftarrow","leftarrow","rightarrow","leftarrow"],"horizon":5,"forced_choices":["leftarrow","leftarrow","leftarrow","rightarrow"],"right_color":"lightblue","left_color":"orange","left_mu":40,"right_mu":36,"left_numbers":[40,47,31,35,25],"right_numbers":[40,28,33,32,21],"points_earned":175,"phase":"task","trial_type":"horizons-task","trial_index":74,"time_elapsed":388656,"internal_node_id":"0.0-65.0","task_version":"0.2"},{"response_times":[1042.1600000008475,256.40500000008615,63.79499999823747,248.07000000146218,167.81999999872642],"keys_pressed":["rightarrow","rightarrow","leftarrow","leftarrow","rightarrow"],"horizon":5,"forced_choices":["rightarrow","rightarrow","leftarrow","leftarrow"],"right_color":"orange","left_color":"lightblue","left_mu":40,"right_mu":60,"left_numbers":[38,25,36,35,39],"right_numbers":[59,57,53,60,67],"points_earned":254,"phase":"task","trial_type":"horizons-task","trial_index":75,"time_elapsed":391936,"internal_node_id":"0.0-66.0","task_version":"0.2"},{"response_times":[34.51000000128988,208.1450000004843,87.85999999963678,143.80499999970198,120.469999997993],"keys_pressed":["leftarrow","rightarrow","leftarrow","rightarrow","leftarrow"],"horizon":5,"forced_choices":["leftarrow","rightarrow","leftarrow","rightarrow"],"right_color":"lightblue","left_color":"orange","left_mu":60,"right_mu":64,"left_numbers":[54,66,63,47,56],"right_numbers":[76,61,64,50,59],"points_earned":284,"phase":"task","trial_type":"horizons-task","trial_index":76,"time_elapsed":394033,"internal_node_id":"0.0-67.0","task_version":"0.2"},{"response_times":[360.94499999668915,296.0800000000745,151.8900000009453,79.7549999988405,176.41999999975087,88.59500000113621,167.16500000254018,63.84500000055414,176.28999999945518,63.52500000142027],"keys_pressed":["leftarrow","leftarrow","rightarrow","leftarrow","rightarrow","leftarrow","rightarrow","leftarrow","rightarrow","leftarrow"],"horizon":10,"forced_choices":["leftarrow","leftarrow","rightarrow","leftarrow"],"right_color":"orange","left_color":"lightblue","left_mu":60,"right_mu":56,"left_numbers":[55,49,67,66,63,57,53,45,58,63],"right_numbers":[61,61,55,51,57,61,53,38,60,49],"points_earned":560,"phase":"task","trial_type":"horizons-task","trial_index":77,"time_elapsed":397159,"internal_node_id":"0.0-68.0","task_version":"0.2"},{"response_times":[66.79000000079395,48.015000000363216,168.2700000019977,263.50999999709893,88.45999999903142,175.49499999947147,96.57499999954598,183.51999999862164,64.23500000161584,175.89500000030966],"keys_pressed":["rightarrow","leftarrow","rightarrow","rightarrow","leftarrow","rightarrow","leftarrow","rightarrow","leftarrow","rightarrow"],"horizon":10,"forced_choices":["rightarrow","leftarrow","rightarrow","rightarrow"],"right_color":"orange","left_color":"lightblue","left_mu":60,"right_mu":40,"left_numbers":[46,64,52,84,62,45,58,58,62,62],"right_numbers":[40,40,50,31,42,31,47,17,34,44],"points_earned":459,"phase":"task","trial_type":"horizons-task","trial_index":78,"time_elapsed":399991,"internal_node_id":"0.0-69.0","task_version":"0.2"},{"response_times":[226.77499999920838,127.85999999684282,143.93500000005588,104.50500000303145,159.36999999755062],"keys_pressed":["rightarrow","leftarrow","rightarrow","leftarrow","rightarrow"],"horizon":5,"forced_choices":["rightarrow","leftarrow","rightarrow","leftarrow"],"right_color":"lightblue","left_color":"orange","left_mu":40,"right_mu":32,"left_numbers":[41,32,34,35,54],"right_numbers":[39,24,35,20,35],"points_earned":176,"phase":"task","trial_type":"horizons-task","trial_index":79,"time_elapsed":402255,"internal_node_id":"0.0-70.0","task_version":"0.2"},{"response_times":[250.37000000162516,336.0150000008289,88.644999999844,247.39000000047963,200.17499999818392,79.5250000009546,176.37499999912689,55.79999999824213,231.81499999924563,448.0199999997858],"keys_pressed":["rightarrow","rightarrow","leftarrow","leftarrow","rightarrow","leftarrow","rightarrow","leftarrow","leftarrow","rightarrow"],"horizon":10,"forced_choices":["rightarrow","rightarrow","leftarrow","leftarrow"],"right_color":"orange","left_color":"lightblue","left_mu":60,"right_mu":48,"left_numbers":[68,57,70,67,68,47,64,56,47,53],"right_numbers":[32,56,54,59,39,36,50,45,55,41],"points_earned":505,"phase":"task","trial_type":"horizons-task","trial_index":80,"time_elapsed":405872,"internal_node_id":"0.0-71.0","task_version":"0.2"},{"response_times":[425.5749999975087,319.7700000018813,24.05999999976484,184.44499999895925,48.14999999868451,183.44000000070082,80.31000000122003,175.64000000129454,96.22500000114087,167.97500000032596],"keys_pressed":["rightarrow","rightarrow","leftarrow","rightarrow","leftarrow","rightarrow","leftarrow","rightarrow","leftarrow","rightarrow"],"horizon":10,"forced_choices":["rightarrow","rightarrow","leftarrow","rightarrow"],"right_color":"lightblue","left_color":"orange","left_mu":60,"right_mu":80,"left_numbers":[54,50,67,59,66,58,53,70,62,57],"right_numbers":[80,93,64,82,82,82,76,80,77,78],"points_earned":743,"phase":"task","trial_type":"horizons-task","trial_index":81,"time_elapsed":409080,"internal_node_id":"0.0-72.0","task_version":"0.2"},{"response_times":[185.76499999832595,160.02999999909662,80.05499999853782,256.09000000258675,167.52999999880558,87.9449999993085,168.51500000123633,71.35999999812339,207.94000000029337,24.055000001681037],"keys_pressed":["leftarrow","rightarrow","leftarrow","leftarrow","rightarrow","leftarrow","rightarrow","leftarrow","rightarrow","leftarrow"],"horizon":10,"forced_choices":["leftarrow","rightarrow","leftarrow","leftarrow"],"right_color":"orange","left_color":"lightblue","left_mu":40,"right_mu":10,"left_numbers":[40,33,33,41,32,28,30,36,43,36],"right_numbers":[9,12,6,0,6,0,1,5,18,24],"points_earned":251,"phase":"task","trial_type":"horizons-task","trial_index":82,"time_elapsed":411991,"internal_node_id":"0.0-73.0","task_version":"0.2"},{"response_times":[306.8200000016368,15.879999999073334,216.17999999941094,216.40000000112923,543.3349999984493],"keys_pressed":["rightarrow","leftarrow","leftarrow","leftarrow","leftarrow"],"horizon":5,"forced_choices":["rightarrow","leftarrow","leftarrow","leftarrow"],"right_color":"lightblue","left_color":"orange","left_mu":60,"right_mu":72,"left_numbers":[71,63,69,65,58],"right_numbers":[67,79,69,68,85],"points_earned":322,"phase":"task","trial_type":"horizons-task","trial_index":83,"time_elapsed":414792,"internal_node_id":"0.0-74.0","task_version":"0.2"},{"response_times":[290.3949999999604,191.7699999975739,303.909999998752,263.71499999734806,512.1250000010477],"keys_pressed":["leftarrow","rightarrow","leftarrow","leftarrow","rightarrow"],"horizon":5,"forced_choices":["leftarrow","rightarrow","leftarrow","leftarrow"],"right_color":"lightblue","left_color":"orange","left_mu":40,"right_mu":70,"left_numbers":[49,28,40,58,36],"right_numbers":[54,98,70,61,75],"points_earned":320,"phase":"task","trial_type":"horizons-task","trial_index":84,"time_elapsed":417856,"internal_node_id":"0.0-75.0","task_version":"0.2"},{"response_times":[122.72999999916647,287.43000000028405,136.38499999803025,87.96000000071945,191.71999999886611],"keys_pressed":["leftarrow","leftarrow","rightarrow","leftarrow","rightarrow"],"horizon":5,"forced_choices":["leftarrow","leftarrow","rightarrow","leftarrow"],"right_color":"orange","left_color":"lightblue","left_mu":40,"right_mu":48,"left_numbers":[39,34,39,47,44],"right_numbers":[51,51,55,45,37],"points_earned":212,"phase":"task","trial_type":"horizons-task","trial_index":85,"time_elapsed":420184,"internal_node_id":"0.0-76.0","task_version":"0.2"},{"response_times":[386.8949999996694,207.51000000018394,168.23999999905936,63.4250000002794,176.0649999997113,263.70000000321306,144.1850000009872,168.64500000159023,79.33000000054017,175.85999999940395],"keys_pressed":["leftarrow","rightarrow","rightarrow","leftarrow","rightarrow","rightarrow","leftarrow","rightarrow","leftarrow","rightarrow"],"horizon":10,"forced_choices":["leftarrow","rightarrow","rightarrow","leftarrow"],"right_color":"orange","left_color":"lightblue","left_mu":40,"right_mu":44,"left_numbers":[38,48,32,36,50,37,27,39,39,30],"right_numbers":[41,39,59,41,37,40,43,38,42,34],"points_earned":387,"phase":"task","trial_type":"horizons-task","trial_index":86,"time_elapsed":423520,"internal_node_id":"0.0-77.0","task_version":"0.2"},{"response_times":[361.32500000164146,215.8500000005588,232.5300000011921,271.77499999740394,71.90500000066822,199.8600000005681,32.59999999863794,223.7249999998603,167.57499999948777,71.9649999991525],"keys_pressed":["leftarrow","rightarrow","rightarrow","rightarrow","leftarrow","rightarrow","leftarrow","leftarrow","rightarrow","leftarrow"],"horizon":10,"forced_choices":["leftarrow","rightarrow","rightarrow","rightarrow"],"right_color":"orange","left_color":"lightblue","left_mu":60,"right_mu":48,"left_numbers":[57,56,54,62,57,61,62,63,48,45],"right_numbers":[59,52,62,51,75,42,50,45,40,51],"points_earned":531,"phase":"task","trial_type":"horizons-task","trial_index":87,"time_elapsed":426872,"internal_node_id":"0.0-78.0","task_version":"0.2"},{"response_times":[281.7849999992177,24.29499999928521,320.3800000009942,111.3149999982561,159.79499999957625,88.04000000236556,200.29500000237022,111.8750000023283,175.9650000021793,119.80000000039581],"keys_pressed":["leftarrow","rightarrow","rightarrow","leftarrow","rightarrow","leftarrow","rightarrow","leftarrow","rightarrow","leftarrow"],"horizon":10,"forced_choices":["leftarrow","rightarrow","rightarrow","leftarrow"],"right_color":"orange","left_color":"lightblue","left_mu":60,"right_mu":52,"left_numbers":[64,71,58,70,72,68,68,64,57,61],"right_numbers":[55,46,52,38,59,35,42,45,41,42],"points_earned":567,"phase":"task","trial_type":"horizons-task","trial_index":88,"time_elapsed":429968,"internal_node_id":"0.0-79.0","task_version":"0.2"},{"response_times":[225.87500000011642,143.98000000073807,208.3149999998859,255.82000000210246,215.95500000333413,32.01999999873806,199.68999999767402,55.92999999865424,191.88500000018394,56.61999999935506],"keys_pressed":["rightarrow","leftarrow","leftarrow","leftarrow","rightarrow","leftarrow","rightarrow","leftarrow","leftarrow","rightarrow"],"horizon":10,"forced_choices":["rightarrow","leftarrow","leftarrow","leftarrow"],"right_color":"lightblue","left_color":"orange","left_mu":60,"right_mu":64,"left_numbers":[65,58,66,63,75,66,48,65,42,69],"right_numbers":[68,62,69,64,55,50,70,76,90,58],"points_earned":611,"phase":"task","trial_type":"horizons-task","trial_index":89,"time_elapsed":433056,"internal_node_id":"0.0-80.0","task_version":"0.2"},{"response_times":[298.1450000006589,95.82500000030268,199.86499999871012,32.65000000101281,199.4600000034552],"keys_pressed":["rightarrow","leftarrow","rightarrow","leftarrow","rightarrow"],"horizon":5,"forced_choices":["rightarrow","leftarrow","rightarrow","leftarrow"],"right_color":"lightblue","left_color":"orange","left_mu":40,"right_mu":70,"left_numbers":[29,25,43,36,18],"right_numbers":[68,64,86,69,74],"points_earned":289,"phase":"task","trial_type":"horizons-task","trial_index":90,"time_elapsed":435384,"internal_node_id":"0.0-81.0","task_version":"0.2"},{"response_times":[393.68499999906635,239.68000000243774,216.72499999846332,79.6200000004028,224.01499999978114],"keys_pressed":["leftarrow","leftarrow","rightarrow","leftarrow","rightarrow"],"horizon":5,"forced_choices":["leftarrow","leftarrow","rightarrow","leftarrow"],"right_color":"orange","left_color":"lightblue","left_mu":60,"right_mu":56,"left_numbers":[54,60,59,47,57],"right_numbers":[49,63,51,49,62],"points_earned":274,"phase":"task","trial_type":"horizons-task","trial_index":91,"time_elapsed":438040,"internal_node_id":"0.0-82.0","task_version":"0.2"},{"response_times":[106.44500000122935,80.58999999775551,423.2800000027055,184.45499999873573,183.26499999966472,96.37999999901513,152.09500000125263,63.90499999909662,207.89499999955297,7.710000001708977],"keys_pressed":["rightarrow","leftarrow","leftarrow","leftarrow","rightarrow","leftarrow","rightarrow","leftarrow","rightarrow","leftarrow"],"horizon":10,"forced_choices":["rightarrow","leftarrow","leftarrow","leftarrow"],"right_color":"orange","left_color":"lightblue","left_mu":40,"right_mu":60,"left_numbers":[48,19,52,35,43,44,46,28,45,43],"right_numbers":[55,61,83,52,36,55,69,62,61,58],"points_earned":442,"phase":"task","trial_type":"horizons-task","trial_index":92,"time_elapsed":441047,"internal_node_id":"0.0-83.0","task_version":"0.2"},{"response_times":[251.25500000279862,103.84499999776017,167.9149999981746,143.69000000081724,112.2800000011921,128.40000000142027,71.32500000076834,175.88500000053318,103.97999999986496,152.28499999648193],"keys_pressed":["leftarrow","rightarrow","leftarrow","rightarrow","leftarrow","rightarrow","leftarrow","rightarrow","leftarrow","rightarrow"],"horizon":10,"forced_choices":["leftarrow","rightarrow","leftarrow","rightarrow"],"right_color":"orange","left_color":"lightblue","left_mu":40,"right_mu":10,"left_numbers":[39,32,55,42,55,24,24,46,35,39],"right_numbers":[5,10,13,7,20,16,4,14,16,0],"points_earned":255,"phase":"task","trial_type":"horizons-task","trial_index":93,"time_elapsed":443961,"internal_node_id":"0.0-84.0","task_version":"0.2"},{"response_times":[449.61999999941327,183.7999999988824,248.12999999994645,104.19499999989057,151.56999999820255,120.29500000062399,151.67999999900348,112.56000000139466,143.41999999666587,104.29999999905704],"keys_pressed":["leftarrow","rightarrow","rightarrow","leftarrow","rightarrow","leftarrow","rightarrow","leftarrow","rightarrow","leftarrow"],"horizon":10,"forced_choices":["leftarrow","rightarrow","rightarrow","leftarrow"],"right_color":"orange","left_color":"lightblue","left_mu":40,"right_mu":48,"left_numbers":[20,43,41,40,49,45,55,35,41,54],"right_numbers":[58,58,40,48,48,49,37,64,41,39],"points_earned":418,"phase":"task","trial_type":"horizons-task","trial_index":94,"time_elapsed":447232,"internal_node_id":"0.0-85.0","task_version":"0.2"},{"response_times":[682.1700000000419,231.85000000009313,119.76999999745749,88.15499999758322,127.76500000106171,95.95000000263099,143.7999999979511,120.150000002468,111.84000000136439,96.24999999866122],"keys_pressed":["leftarrow","leftarrow","rightarrow","leftarrow","rightarrow","leftarrow","rightarrow","leftarrow","rightarrow","leftarrow"],"horizon":10,"forced_choices":["leftarrow","leftarrow","rightarrow","leftarrow"],"right_color":"lightblue","left_color":"orange","left_mu":60,"right_mu":30,"left_numbers":[51,54,62,49,69,52,50,56,62,65],"right_numbers":[28,25,46,27,24,18,38,29,14,28],"points_earned":449,"phase":"task","trial_type":"horizons-task","trial_index":95,"time_elapsed":450553,"internal_node_id":"0.0-86.0","task_version":"0.2"},{"response_times":[89.90500000072643,271.4099999975879,184.26499999983935,216.28000000061002,119.67000000004191],"keys_pressed":["rightarrow","leftarrow","rightarrow","rightarrow","leftarrow"],"horizon":5,"forced_choices":["rightarrow","leftarrow","rightarrow","rightarrow"],"right_color":"orange","left_color":"lightblue","left_mu":60,"right_mu":40,"left_numbers":[46,57,59,58,69],"right_numbers":[28,42,29,36,55],"points_earned":219,"phase":"task","trial_type":"horizons-task","trial_index":96,"time_elapsed":452937,"internal_node_id":"0.0-87.0","task_version":"0.2"},{"rt":24705.645000001823,"responses":{"age":"22","gender-categorical":"Male","gender-free-response":"","ethnicity":"Not Hispanic or Latino","race":["White"],"language":"Yes","fluency":"Very well"},"survey":"demographics","trial_type":"survey-demo","trial_index":97,"time_elapsed":477644,"internal_node_id":"0.0-88.0","task_version":"0.2"},{"rt":74164.29000000062,"responses":{"difficulty":"5","fun":"3","clarity":"4","strategy":"its based on luck, one way you will get one number and the other youll get another. didnt notice any technique/trick/pattern, so just randomly guessed each time","feedback":"interesting study and an interesting way to portray it"},"survey":"debrief","trial_type":"survey-debrief","trial_index":98,"time_elapsed":551812,"internal_node_id":"0.0-89.0","task_version":"0.2","interactions":"[]"}]