[{"view_history":"[{\"page_index\":0,\"viewing_time\":1917.2300000209361}]","rt":1917.505000019446,"trial_type":"instructions","trial_index":0,"time_elapsed":1922,"internal_node_id":"0.0-0.0","task_version":"0.2"},{"item_order":[12,7,9,4,10,8,6,5,1,0,11,2,3],"responses":{"Q13":"4","Q08":"2","Q10":"3","Q05":"4","Q11":"2","Q09":"2","Q07":"3","Q06":"3","Q02":"4","Q01":"3","Q12":"3","Q03":"4","Q04":"4"},"radio_events":[2260.535000008531,6014.169999980368,9668.895000009798,13704.814999946393,16712.70499995444,20808.514999924228,22919.314999948256,27418.820000020787,30548.094999976456,33097.79000002891,36494.684999925084,38969.839999917895,42947.96999997925],"key_events":[],"mouse_events":[0.3249999135732651,2260.535000008531,5652.81999995932,6014.169999980368,9668.895000009798,13704.814999946393,16712.70499995444,20808.514999924228,22919.314999948256,27418.820000020787,30225.499999942258,30548.094999976456,33097.79000002891,35806.86999997124,36494.684999925084,38969.839999917895,42473.79499999806,42713.12999993097,42947.96999997925,43620.649999938905],"rt":43621.96999997832,"survey":"ius12","trial_type":"survey-template","trial_index":1,"time_elapsed":45546,"internal_node_id":"0.0-1.0","task_version":"0.2"},{"item_order":[10,11,1,15,12,2,5,8,9,14,6,3,0,13,4,7],"responses":{"Q11":"4","Q12":"3","Q02":"2","Q16":"4","Q13":"2","Q03":"1","Q06":"4","Q09":"4","Q10":"4","Q15":"4","Q07":"3","Q04":"5","Q01":"4","Q14":"4","Q05":"2","Q08":"3"},"radio_events":[5710.550000076182,6583.330000052229,11134.120000060648,16584.460000041872,21155.450000078417,24058.554999995977,25922.57499997504,31302.43000003975,40644.47000005748,43834.475000039674,49071.49500004016,51228.49500004668,54191.36499997694,55894.87000007648,58981.52500006836,59967.42500003893,62664.95500004385,66536.49500000756,72443.99000005797,76367.65999998897],"key_events":[],"mouse_events":[5710.550000076182,6583.330000052229,11134.120000060648,16584.460000041872,20086.415000027046,20631.799999973737,21155.450000078417,24058.554999995977,25646.524999989197,25922.57499997504,30549.390000058338,31010.19499998074,31302.43000003975,40644.47000005748,43834.475000039674,49071.49500004016,51228.49500004668,52726.559999980964,54191.36499997694,55894.87000007648,58981.52500006836,59967.42500003893,62664.95500004385,66536.49500000756,72443.99000005797,75537.03000000678,76367.65999998897,76895.55999997538],"rt":76897.31999998912,"survey":"nfc","trial_type":"survey-template","trial_index":2,"time_elapsed":122447,"internal_node_id":"0.0-2.0","task_version":"0.2"},{"item_order":[5,9,4,13,14,15,1,3,16,8,6,11,0,10,7,2,12],"responses":{"Q06":"4","Q10":"4","Q05":"4","Q14":"4","Q15":"4","Q16":"3","Q02":"4","Q04":"4","Q17":"0","Q09":"4","Q07":"4","Q12":"4","Q01":"3","Q11":"3","Q08":"4","Q03":"4","Q13":"4"},"radio_events":[3036.659999983385,5072.870000032708,10130.275000003166,12574.87500004936,13752.645000000484,16070.805000024848,17432.83499998506,19165.550000034273,20692.750000045635,26356.07500001788,27957.79000001494,29635.25000005029,34443.33000003826,38296.73000006005,42279.905000003055,43977.76000003796,46249.620000016876],"key_events":[],"mouse_events":[3036.659999983385,4790.724999969825,5072.870000032708,9847.784999990836,10130.275000003166,12574.87500004936,13752.645000000484,16070.805000024848,17432.83499998506,19165.550000034273,20692.750000045635,26356.07500001788,27676.82000005152,27957.79000001494,28760.349999996834,29113.544999971054,29635.25000005029,30207.85500004422,34443.33000003826,37939.83000004664,38296.73000006005,42279.905000003055,43977.76000003796,46023.41000002343,46249.620000016876,46743.69500007015],"rt":46745.24499999825,"survey":"pswq","trial_type":"survey-template","trial_index":3,"time_elapsed":169194,"internal_node_id":"0.0-3.0","task_version":"0.2"},{"view_history":"[{\"page_index\":0,\"viewing_time\":3736.1350000137463},{\"page_index\":1,\"viewing_time\":4324.544999981299},{\"page_index\":2,\"viewing_time\":11492.595000076108},{\"page_index\":3,\"viewing_time\":11189.439999987371},{\"page_index\":4,\"viewing_time\":4762.174999923445},{\"page_index\":5,\"viewing_time\":4530.925000086427},{\"page_index\":6,\"viewing_time\":6894.220000016503},{\"page_index\":7,\"viewing_time\":8288.98999991361},{\"page_index\":8,\"viewing_time\":1920.0100000016391},{\"page_index\":7,\"viewing_time\":4760.914999991655},{\"page_index\":8,\"viewing_time\":6576.820000074804},{\"page_index\":9,\"viewing_time\":11945.754999993369}]","rt":80423.01500006579,"trial_type":"instructions","trial_index":4,"time_elapsed":249618,"internal_node_id":"0.0-4.0-0.0","task_version":"0.2"},{"response_times":[2311.79000006523,735.0000001024455,432.4100000085309,667.615000042133,3246.7449998948723],"keys_pressed":["rightarrow","leftarrow","rightarrow","rightarrow","leftarrow"],"horizon":5,"forced_choices":["rightarrow","leftarrow","rightarrow","rightarrow"],"right_color":"lightblue","left_color":"orange","left_mu":40,"right_mu":20,"left_numbers":[34,46,47,48,39],"right_numbers":[23,24,30,10,33],"points_earned":148,"phase":"practice","trial_type":"horizons-task","trial_index":5,"time_elapsed":258518,"internal_node_id":"0.0-4.0-1.0","task_version":"0.2"},{"response_times":[1540.5200000386685,491.4100000169128,517.7400000393391,892.094999901019,2256.374999997206,1854.4349999865517,1079.3199999025092,886.6249999264255,1386.2499999813735,654.7299999510869],"keys_pressed":["leftarrow","leftarrow","rightarrow","rightarrow","rightarrow","rightarrow","leftarrow","rightarrow","rightarrow","rightarrow"],"horizon":10,"forced_choices":["leftarrow","leftarrow","rightarrow","rightarrow"],"right_color":"orange","left_color":"lightblue","left_mu":60,"right_mu":70,"left_numbers":[74,61,71,65,52,69,79,57,65,61],"right_numbers":[68,67,74,73,61,77,80,68,63,68],"points_earned":698,"phase":"practice","trial_type":"horizons-task","trial_index":6,"time_elapsed":271579,"internal_node_id":"0.0-4.0-2.0","task_version":"0.2"},{"view_history":"[{\"page_index\":0,\"viewing_time\":1924.1349999792874},{\"page_index\":1,\"viewing_time\":4037.529999972321},{\"page_index\":2,\"viewing_time\":3312.069999985397},{\"page_index\":3,\"viewing_time\":2748.545000096783}]","rt":12022.479999926873,"trial_type":"instructions","trial_index":7,"time_elapsed":283602,"internal_node_id":"0.0-4.0-3.0","task_version":"0.2"},{"responses":["true","false","false"],"num_errors":1,"rt":10922.174999956042,"trial_type":"horizons-comprehension","trial_index":8,"time_elapsed":294525,"internal_node_id":"0.0-4.0-4.0","task_version":"0.2"},{"view_history":"[{\"page_index\":0,\"viewing_time\":2461.935000028461},{\"page_index\":1,\"viewing_time\":3007.3949999641627},{\"page_index\":2,\"viewing_time\":6420.15000001993},{\"page_index\":3,\"viewing_time\":5480.134999961592},{\"page_index\":4,\"viewing_time\":282.14000002481043},{\"page_index\":5,\"viewing_time\":405.3350000176579},{\"page_index\":6,\"viewing_time\":491.1349999019876},{\"page_index\":7,\"viewing_time\":431.2950000166893},{\"page_index\":8,\"viewing_time\":632.3500000871718},{\"page_index\":9,\"viewing_time\":905.8999998960644}]","rt":20518.04999995511,"trial_type":"instructions","trial_index":9,"time_elapsed":315045,"internal_node_id":"0.0-4.1-0.1","task_version":"0.2"},{"response_times":[1031.3650000607595,364.5250000990927,322.5999999558553,367.8349999245256,482.9750000499189],"keys_pressed":["rightarrow","leftarrow","rightarrow","rightarrow","rightarrow"],"horizon":5,"forced_choices":["rightarrow","leftarrow","rightarrow","rightarrow"],"right_color":"lightblue","left_color":"orange","left_mu":40,"right_mu":20,"left_numbers":[34,24,35,32,32],"right_numbers":[23,12,17,22,38],"points_earned":124,"phase":"practice","trial_type":"horizons-task","trial_index":10,"time_elapsed":319115,"internal_node_id":"0.0-4.1-1.1","task_version":"0.2"},{"response_times":[699.1149999666959,395.9599999943748,364.0400000149384,507.7550000278279,632.1900000330061,525.9199999272823,556.3700000056997,436.9450000813231,428.9150000549853,548.795000067912],"keys_pressed":["leftarrow","leftarrow","rightarrow","rightarrow","leftarrow","rightarrow","leftarrow","rightarrow","leftarrow","rightarrow"],"horizon":10,"forced_choices":["leftarrow","leftarrow","rightarrow","rightarrow"],"right_color":"orange","left_color":"lightblue","left_mu":60,"right_mu":70,"left_numbers":[44,63,69,58,62,50,61,66,63,55],"right_numbers":[68,65,73,71,67,64,71,71,78,73],"points_earned":645,"phase":"practice","trial_type":"horizons-task","trial_index":11,"time_elapsed":325713,"internal_node_id":"0.0-4.1-2.1","task_version":"0.2"},{"view_history":"[{\"page_index\":0,\"viewing_time\":111.12499993760139},{\"page_index\":1,\"viewing_time\":2415.750000043772},{\"page_index\":0,\"viewing_time\":693.2749999687076},{\"page_index\":1,\"viewing_time\":299.45000004954636},{\"page_index\":2,\"viewing_time\":1001.1549999471754},{\"page_index\":3,\"viewing_time\":775.4249999998137}]","rt":5296.280000009574,"trial_type":"instructions","trial_index":12,"time_elapsed":331010,"internal_node_id":"0.0-4.1-3.1","task_version":"0.2"},{"responses":["true","true","true"],"num_errors":1,"rt":20806.03500001598,"trial_type":"horizons-comprehension","trial_index":13,"time_elapsed":351817,"internal_node_id":"0.0-4.1-4.1","task_version":"0.2"},{"view_history":"[{\"page_index\":0,\"viewing_time\":2761.490000062622},{\"page_index\":1,\"viewing_time\":2833.6249999701977},{\"page_index\":2,\"viewing_time\":1107.9049999825656},{\"page_index\":1,\"viewing_time\":1241.9300000183284},{\"page_index\":2,\"viewing_time\":3524.1949999472126},{\"page_index\":3,\"viewing_time\":7319.275000016205},{\"page_index\":4,\"viewing_time\":3254.8899999819696},{\"page_index\":5,\"viewing_time\":1678.1900000059977},{\"page_index\":6,\"viewing_time\":2857.1550000924617},{\"page_index\":7,\"viewing_time\":7978.499999968335},{\"page_index\":8,\"viewing_time\":1627.1949999500066},{\"page_index\":9,\"viewing_time\":2399.955000029877}]","rt":38584.43000004627,"trial_type":"instructions","trial_index":14,"time_elapsed":390403,"internal_node_id":"0.0-4.2-0.2","task_version":"0.2"},{"response_times":[603.2349999295548,301.3450000435114,265.46999998390675,355.9750000713393,442.15999997686595],"keys_pressed":["rightarrow","leftarrow","rightarrow","rightarrow","rightarrow"],"horizon":5,"forced_choices":["rightarrow","leftarrow","rightarrow","rightarrow"],"right_color":"lightblue","left_color":"orange","left_mu":40,"right_mu":20,"left_numbers":[42,43,31,28,35],"right_numbers":[29,8,31,21,25],"points_earned":149,"phase":"practice","trial_type":"horizons-task","trial_index":15,"time_elapsed":393876,"internal_node_id":"0.0-4.2-1.2","task_version":"0.2"},{"response_times":[573.3750000363216,407.50999993178993,330.00499999616295,387.1600000420585,843.7799999956042,383.96499992813915,393.88500002678484,336.9149999925867,377.57500004954636,314.9950000224635],"keys_pressed":["leftarrow","leftarrow","rightarrow","rightarrow","leftarrow","rightarrow","leftarrow","rightarrow","leftarrow","rightarrow"],"horizon":10,"forced_choices":["leftarrow","leftarrow","rightarrow","rightarrow"],"right_color":"orange","left_color":"lightblue","left_mu":60,"right_mu":70,"left_numbers":[62,70,54,52,67,61,61,53,45,49],"right_numbers":[78,70,58,72,70,67,62,58,56,69],"points_earned":629,"phase":"practice","trial_type":"horizons-task","trial_index":16,"time_elapsed":399728,"internal_node_id":"0.0-4.2-2.2","task_version":"0.2"},{"view_history":"[{\"page_index\":0,\"viewing_time\":660.7749999966472},{\"page_index\":1,\"viewing_time\":4807.4450000422075},{\"page_index\":2,\"viewing_time\":1660.6700000120327},{\"page_index\":1,\"viewing_time\":1553.6749999737367},{\"page_index\":2,\"viewing_time\":1090.6050000339746},{\"page_index\":3,\"viewing_time\":545.0999999884516}]","rt":10318.420000025071,"trial_type":"instructions","trial_index":17,"time_elapsed":410047,"internal_node_id":"0.0-4.2-3.2","task_version":"0.2"},{"responses":["true","false","true"],"num_errors":0,"rt":6430.070000002161,"trial_type":"horizons-comprehension","trial_index":18,"time_elapsed":416479,"internal_node_id":"0.0-4.2-4.2","task_version":"0.2"},{"trial_type":"call-function","trial_index":19,"time_elapsed":416480,"internal_node_id":"0.0-5.0","task_version":"0.2"},{"view_history":"[{\"page_index\":0,\"viewing_time\":1427.5099999504164},{\"page_index\":1,\"viewing_time\":3713.9400000451133}]","rt":5141.764999949373,"trial_type":"instructions","trial_index":20,"time_elapsed":421622,"internal_node_id":"0.0-6.0","task_version":"0.2"},{"response_times":[1050.554999965243,783.9300000341609,1477.4149999720976,2008.5800000233576,1504.3049999512732,1205.6449999799952,424.99500000849366,1736.0799999441952,402.9500000178814,522.0899999840185],"keys_pressed":["leftarrow","rightarrow","rightarrow","rightarrow","leftarrow","rightarrow","leftarrow","rightarrow","rightarrow","rightarrow"],"horizon":10,"forced_choices":["leftarrow","rightarrow","rightarrow","rightarrow"],"right_color":"orange","left_color":"lightblue","left_mu":60,"right_mu":56,"left_numbers":[57,62,52,57,48,74,62,54,55,58],"right_numbers":[63,63,78,49,53,58,50,52,53,53],"points_earned":573,"phase":"task","trial_type":"horizons-task","trial_index":21,"time_elapsed":434243,"internal_node_id":"0.0-7.0","task_version":"0.2"},{"response_times":[740.3299999423325,1060.590000008233,531.1900000087917,1109.6250000409782,483.9800000190735],"keys_pressed":["rightarrow","rightarrow","leftarrow","leftarrow","rightarrow"],"horizon":5,"forced_choices":["rightarrow","rightarrow","leftarrow","leftarrow"],"right_color":"orange","left_color":"lightblue","left_mu":60,"right_mu":68,"left_numbers":[60,64,60,59,54],"right_numbers":[70,66,62,63,60],"points_earned":315,"phase":"task","trial_type":"horizons-task","trial_index":22,"time_elapsed":439670,"internal_node_id":"0.0-8.0","task_version":"0.2"},{"response_times":[839.2050000838935,567.8299999563023,1387.5499999849126,1127.100000041537,550.6600000662729],"keys_pressed":["rightarrow","leftarrow","leftarrow","leftarrow","rightarrow"],"horizon":5,"forced_choices":["rightarrow","leftarrow","leftarrow","leftarrow"],"right_color":"lightblue","left_color":"orange","left_mu":40,"right_mu":10,"left_numbers":[51,40,30,49,44],"right_numbers":[12,6,4,5,8],"points_earned":139,"phase":"task","trial_type":"horizons-task","trial_index":23,"time_elapsed":445644,"internal_node_id":"0.0-9.0","task_version":"0.2"},{"response_times":[643.5200000414625,596.3699999265373,876.5600000042468,2037.7749999752268,568.6699999496341,554.4849999714643,400.4549999954179,369.8850000509992,345.70499998517334,398.0699999956414],"keys_pressed":["leftarrow","rightarrow","rightarrow","rightarrow","leftarrow","rightarrow","rightarrow","rightarrow","rightarrow","rightarrow"],"horizon":10,"forced_choices":["leftarrow","rightarrow","rightarrow","rightarrow"],"right_color":"orange","left_color":"lightblue","left_mu":60,"right_mu":68,"left_numbers":[58,62,74,65,65,72,62,54,73,61],"right_numbers":[85,62,68,74,57,63,72,61,65,64],"points_earned":652,"phase":"task","trial_type":"horizons-task","trial_index":24,"time_elapsed":453937,"internal_node_id":"0.0-10.0","task_version":"0.2"},{"response_times":[690.6299999682233,376.9249999895692,444.4150000344962,803.2100000418723,771.3399999774992],"keys_pressed":["rightarrow","leftarrow","rightarrow","leftarrow","rightarrow"],"horizon":5,"forced_choices":["rightarrow","leftarrow","rightarrow","leftarrow"],"right_color":"lightblue","left_color":"orange","left_mu":40,"right_mu":60,"left_numbers":[25,37,32,40,46],"right_numbers":[51,47,66,72,57],"points_earned":251,"phase":"task","trial_type":"horizons-task","trial_index":25,"time_elapsed":458525,"internal_node_id":"0.0-11.0","task_version":"0.2"},{"response_times":[730.9899999527261,574.4049999630079,1092.1350000426173,564.9299999931827,531.1800000490621,678.9749999297783,364.99000003095716,990.0650000199676,659.4599999953061,454.1050000116229],"keys_pressed":["rightarrow","leftarrow","leftarrow","leftarrow","rightarrow","leftarrow","rightarrow","leftarrow","rightarrow","rightarrow"],"horizon":10,"forced_choices":["rightarrow","leftarrow","leftarrow","leftarrow"],"right_color":"lightblue","left_color":"orange","left_mu":40,"right_mu":52,"left_numbers":[47,48,49,42,37,43,42,30,39,45],"right_numbers":[58,63,47,46,41,49,45,47,51,53],"points_earned":460,"phase":"task","trial_type":"horizons-task","trial_index":26,"time_elapsed":466668,"internal_node_id":"0.0-12.0","task_version":"0.2"},{"response_times":[743.360000080429,598.1299999402836,399.91500007454306,920.5249999649823,1072.8250000393018],"keys_pressed":["leftarrow","leftarrow","rightarrow","rightarrow","rightarrow"],"horizon":5,"forced_choices":["leftarrow","leftarrow","rightarrow","rightarrow"],"right_color":"orange","left_color":"lightblue","left_mu":60,"right_mu":72,"left_numbers":[60,47,69,63,58],"right_numbers":[74,69,63,78,68],"points_earned":316,"phase":"task","trial_type":"horizons-task","trial_index":27,"time_elapsed":471904,"internal_node_id":"0.0-13.0","task_version":"0.2"},{"response_times":[722.8099999483675,449.6999999973923,421.6299999970943,700.524999992922,1329.4300000416115],"keys_pressed":["leftarrow","leftarrow","rightarrow","leftarrow","leftarrow"],"horizon":5,"forced_choices":["leftarrow","leftarrow","rightarrow","leftarrow"],"right_color":"lightblue","left_color":"orange","left_mu":60,"right_mu":40,"left_numbers":[60,56,63,62,73],"right_numbers":[29,33,54,38,48],"points_earned":305,"phase":"task","trial_type":"horizons-task","trial_index":28,"time_elapsed":477029,"internal_node_id":"0.0-14.0","task_version":"0.2"},{"response_times":[527.7999999234453,465.7949999673292,674.5899999514222,464.5200000377372,647.8699999861419,271.97500003967434,399.6400000760332,325.0699999043718,328.0500000109896,412.9800000227988],"keys_pressed":["leftarrow","rightarrow","rightarrow","leftarrow","rightarrow","leftarrow","leftarrow","leftarrow","leftarrow","leftarrow"],"horizon":10,"forced_choices":["leftarrow","rightarrow","rightarrow","leftarrow"],"right_color":"orange","left_color":"lightblue","left_mu":60,"right_mu":52,"left_numbers":[64,57,83,70,58,65,72,53,51,63],"right_numbers":[25,53,42,33,38,48,48,60,59,42],"points_earned":571,"phase":"task","trial_type":"horizons-task","trial_index":29,"time_elapsed":483049,"internal_node_id":"0.0-15.0","task_version":"0.2"},{"response_times":[9080.614999984391,370.6450000172481,406.29499999340624,475.28500005137175,664.6750000072643,421.8249999685213,214.45999993011355,287.9099999554455,274.19500006362796,340.08500003255904],"keys_pressed":["leftarrow","rightarrow","leftarrow","rightarrow","leftarrow","rightarrow","rightarrow","rightarrow","rightarrow","rightarrow"],"horizon":10,"forced_choices":["leftarrow","rightarrow","leftarrow","rightarrow"],"right_color":"orange","left_color":"lightblue","left_mu":40,"right_mu":70,"left_numbers":[36,41,19,39,51,42,53,51,37,28],"right_numbers":[74,57,63,72,75,64,62,66,65,77],"points_earned":569,"phase":"task","trial_type":"horizons-task","trial_index":30,"time_elapsed":497088,"internal_node_id":"0.0-16.0","task_version":"0.2"},{"response_times":[717.670000041835,349.284999887459,679.5399999246001,570.1450000051409,408.8449999690056],"keys_pressed":["rightarrow","leftarrow","leftarrow","rightarrow","leftarrow"],"horizon":5,"forced_choices":["rightarrow","leftarrow","leftarrow","rightarrow"],"right_color":"lightblue","left_color":"orange","left_mu":40,"right_mu":10,"left_numbers":[46,38,44,52,41],"right_numbers":[3,15,22,10,11],"points_earned":136,"phase":"task","trial_type":"horizons-task","trial_index":31,"time_elapsed":501315,"internal_node_id":"0.0-17.0","task_version":"0.2"},{"response_times":[493.30500001087785,386.89500000327826,417.3700000392273,609.749999945052,497.12499999441206,410.4450000450015,330.2000000840053,215.7199999783188,239.06000005081296,434.0749999973923],"keys_pressed":["leftarrow","leftarrow","rightarrow","rightarrow","rightarrow","leftarrow","rightarrow","rightarrow","rightarrow","rightarrow"],"horizon":10,"forced_choices":["leftarrow","leftarrow","rightarrow","rightarrow"],"right_color":"orange","left_color":"lightblue","left_mu":60,"right_mu":72,"left_numbers":[68,51,74,57,54,58,66,63,58,67],"right_numbers":[67,83,79,80,71,85,50,67,68,74],"points_earned":666,"phase":"task","trial_type":"horizons-task","trial_index":32,"time_elapsed":506851,"internal_node_id":"0.0-18.0","task_version":"0.2"},{"response_times":[556.1750000342727,319.734999909997,470.78000009059906,423.10999997425824,1246.5599999995902],"keys_pressed":["rightarrow","leftarrow","leftarrow","rightarrow","rightarrow"],"horizon":5,"forced_choices":["rightarrow","leftarrow","leftarrow","rightarrow"],"right_color":"lightblue","left_color":"orange","left_mu":40,"right_mu":36,"left_numbers":[44,32,31,46,28],"right_numbers":[45,37,47,42,40],"points_earned":190,"phase":"task","trial_type":"horizons-task","trial_index":33,"time_elapsed":511369,"internal_node_id":"0.0-19.0","task_version":"0.2"},{"response_times":[428.75500000081956,405.9300000080839,255.17999997828156,869.1300000064075,348.4150000149384],"keys_pressed":["rightarrow","rightarrow","leftarrow","leftarrow","rightarrow"],"horizon":5,"forced_choices":["rightarrow","rightarrow","leftarrow","leftarrow"],"right_color":"orange","left_color":"lightblue","left_mu":40,"right_mu":32,"left_numbers":[45,33,44,41,39],"right_numbers":[43,28,26,34,23],"points_earned":179,"phase":"task","trial_type":"horizons-task","trial_index":34,"time_elapsed":515178,"internal_node_id":"0.0-20.0","task_version":"0.2"},{"response_times":[907.4400000972673,410.40000005159527,678.2399999210611,639.765000087209,401.94000001065433],"keys_pressed":["rightarrow","leftarrow","leftarrow","leftarrow","rightarrow"],"horizon":5,"forced_choices":["rightarrow","leftarrow","leftarrow","leftarrow"],"right_color":"lightblue","left_color":"orange","left_mu":40,"right_mu":52,"left_numbers":[36,45,32,38,49],"right_numbers":[66,43,56,55,51],"points_earned":232,"phase":"task","trial_type":"horizons-task","trial_index":35,"time_elapsed":519717,"internal_node_id":"0.0-21.0","task_version":"0.2"},{"response_times":[491.90500006079674,355.005000019446,950.7649999577552,270.32500004861504,525.3950000042096],"keys_pressed":["leftarrow","rightarrow","leftarrow","rightarrow","rightarrow"],"horizon":5,"forced_choices":["leftarrow","rightarrow","leftarrow","rightarrow"],"right_color":"orange","left_color":"lightblue","left_mu":60,"right_mu":80,"left_numbers":[47,64,55,57,53],"right_numbers":[64,89,73,86,75],"points_earned":352,"phase":"task","trial_type":"horizons-task","trial_index":36,"time_elapsed":523812,"internal_node_id":"0.0-22.0","task_version":"0.2"},{"response_times":[658.8149999734014,406.955000013113,388.0699999863282,375.92499994207174,1634.9949999712408,453.70500010903925,369.45999995805323,534.4249999616295,476.18999995756894,965.1049999520183],"keys_pressed":["rightarrow","leftarrow","leftarrow","rightarrow","leftarrow","rightarrow","leftarrow","rightarrow","leftarrow","leftarrow"],"horizon":10,"forced_choices":["rightarrow","leftarrow","leftarrow","rightarrow"],"right_color":"lightblue","left_color":"orange","left_mu":40,"right_mu":36,"left_numbers":[31,37,34,34,36,35,38,37,33,50],"right_numbers":[24,35,19,26,37,40,38,38,42,35],"points_earned":356,"phase":"task","trial_type":"horizons-task","trial_index":37,"time_elapsed":531578,"internal_node_id":"0.0-23.0","task_version":"0.2"},{"response_times":[464.5650000311434,349.13999994751066,606.3200000207871,592.9950000718236,313.04000003729016],"keys_pressed":["rightarrow","leftarrow","rightarrow","rightarrow","leftarrow"],"horizon":5,"forced_choices":["rightarrow","leftarrow","rightarrow","rightarrow"],"right_color":"lightblue","left_color":"orange","left_mu":60,"right_mu":30,"left_numbers":[48,72,67,66,57],"right_numbers":[37,37,27,19,23],"points_earned":212,"phase":"task","trial_type":"horizons-task","trial_index":38,"time_elapsed":535406,"internal_node_id":"0.0-24.0","task_version":"0.2"},{"response_times":[479.2949999682605,315.81000005826354,553.2800001092255,216.10999992117286,444.24500002060086],"keys_pressed":["leftarrow","rightarrow","rightarrow","leftarrow","rightarrow"],"horizon":5,"forced_choices":["leftarrow","rightarrow","rightarrow","leftarrow"],"right_color":"lightblue","left_color":"orange","left_mu":40,"right_mu":44,"left_numbers":[38,42,29,45,44],"right_numbers":[33,54,27,59,32],"points_earned":196,"phase":"task","trial_type":"horizons-task","trial_index":39,"time_elapsed":538916,"internal_node_id":"0.0-25.0","task_version":"0.2"},{"response_times":[505.959999980405,390.309999929741,366.11000006087124,320.81000006292015,459.764999919571,437.7500000409782,381.3700000755489,358.6199999554083,367.655000067316,484.4749999465421],"keys_pressed":["leftarrow","leftarrow","leftarrow","rightarrow","leftarrow","rightarrow","leftarrow","leftarrow","leftarrow","leftarrow"],"horizon":10,"forced_choices":["leftarrow","leftarrow","leftarrow","rightarrow"],"right_color":"orange","left_color":"lightblue","left_mu":60,"right_mu":52,"left_numbers":[64,62,74,75,56,61,59,51,66,50],"right_numbers":[50,54,49,54,45,56,62,68,49,40],"points_earned":592,"phase":"task","trial_type":"horizons-task","trial_index":40,"time_elapsed":544490,"internal_node_id":"0.0-26.0","task_version":"0.2"},{"response_times":[6800.86499999743,504.03999991249293,362.77000000700355,596.6800000751391,146.30499994382262],"keys_pressed":["leftarrow","leftarrow","rightarrow","leftarrow","rightarrow"],"horizon":5,"forced_choices":["leftarrow","leftarrow","rightarrow","leftarrow"],"right_color":"orange","left_color":"lightblue","left_mu":60,"right_mu":90,"left_numbers":[52,44,63,64,61],"right_numbers":[74,101,85,82,88],"points_earned":333,"phase":"task","trial_type":"horizons-task","trial_index":41,"time_elapsed":554402,"internal_node_id":"0.0-27.0","task_version":"0.2"},{"response_times":[475.4899999825284,344.8649999918416,329.34499997645617,355.63500004354864,383.92000005114824,385.9049999155104,470.68999998737127,415.79999995883554,390.3649999992922,1868.9899999881163],"keys_pressed":["rightarrow","leftarrow","rightarrow","leftarrow","rightarrow","leftarrow","rightarrow","leftarrow","rightarrow","rightarrow"],"horizon":10,"forced_choices":["rightarrow","leftarrow","rightarrow","leftarrow"],"right_color":"lightblue","left_color":"orange","left_mu":40,"right_mu":52,"left_numbers":[41,40,51,36,34,42,43,38,41,37],"right_numbers":[46,47,62,45,61,59,64,56,56,49],"points_earned":494,"phase":"task","trial_type":"horizons-task","trial_index":42,"time_elapsed":561325,"internal_node_id":"0.0-28.0","task_version":"0.2"},{"response_times":[505.16000005882233,348.86999998707324,520.6600000383332,291.689999983646,571.239999961108],"keys_pressed":["leftarrow","rightarrow","leftarrow","rightarrow","rightarrow"],"horizon":5,"forced_choices":["leftarrow","rightarrow","leftarrow","rightarrow"],"right_color":"lightblue","left_color":"orange","left_mu":60,"right_mu":64,"left_numbers":[52,65,46,57,57],"right_numbers":[50,66,60,67,55],"points_earned":286,"phase":"task","trial_type":"horizons-task","trial_index":43,"time_elapsed":565064,"internal_node_id":"0.0-29.0","task_version":"0.2"},{"response_times":[376.48500001523644,377.8450000099838,371.44500005524606,615.6549999723211,335.14500001911074,487.89500002749264,339.1100000590086,173.1150000123307,174.43499993532896,275.8349999785423],"keys_pressed":["rightarrow","leftarrow","rightarrow","leftarrow","rightarrow","leftarrow","rightarrow","rightarrow","rightarrow","rightarrow"],"horizon":10,"forced_choices":["rightarrow","leftarrow","rightarrow","leftarrow"],"right_color":"lightblue","left_color":"orange","left_mu":40,"right_mu":60,"left_numbers":[46,43,42,40,43,34,49,36,43,45],"right_numbers":[58,56,65,57,58,63,59,51,73,64],"points_earned":545,"phase":"task","trial_type":"horizons-task","trial_index":44,"time_elapsed":570093,"internal_node_id":"0.0-30.0","task_version":"0.2"},{"response_times":[524.1399999940768,297.3199998959899,374.599999981001,415.70999997202307,479.7500000568107],"keys_pressed":["rightarrow","leftarrow","rightarrow","leftarrow","rightarrow"],"horizon":5,"forced_choices":["rightarrow","leftarrow","rightarrow","leftarrow"],"right_color":"orange","left_color":"lightblue","left_mu":60,"right_mu":56,"left_numbers":[55,68,77,54,73],"right_numbers":[64,57,61,54,50],"points_earned":297,"phase":"task","trial_type":"horizons-task","trial_index":45,"time_elapsed":573686,"internal_node_id":"0.0-31.0","task_version":"0.2"},{"response_times":[451.54500007629395,639.5000000484288,373.7549999495968,358.99500001687557,375.6849999772385],"keys_pressed":["rightarrow","rightarrow","leftarrow","rightarrow","rightarrow"],"horizon":5,"forced_choices":["rightarrow","rightarrow","leftarrow","rightarrow"],"right_color":"orange","left_color":"lightblue","left_mu":60,"right_mu":80,"left_numbers":[73,78,65,51,66],"right_numbers":[70,82,77,74,85],"points_earned":376,"phase":"task","trial_type":"horizons-task","trial_index":46,"time_elapsed":577388,"internal_node_id":"0.0-32.0","task_version":"0.2"},{"response_times":[699.3099999381229,368.9449999947101,378.52999998722225,471.9650000333786,387.61500001419336],"keys_pressed":["rightarrow","leftarrow","rightarrow","leftarrow","rightarrow"],"horizon":5,"forced_choices":["rightarrow","leftarrow","rightarrow","leftarrow"],"right_color":"lightblue","left_color":"orange","left_mu":40,"right_mu":52,"left_numbers":[40,32,33,40,35],"right_numbers":[47,42,44,39,47],"points_earned":210,"phase":"task","trial_type":"horizons-task","trial_index":47,"time_elapsed":581196,"internal_node_id":"0.0-33.0","task_version":"0.2"},{"response_times":[556.3850000035018,336.949999909848,962.5600000144914,348.6900000134483,864.5699999760836,469.3950000219047,620.0299999909475,324.7650000266731,296.0700000403449,321.7549999244511],"keys_pressed":["rightarrow","leftarrow","leftarrow","rightarrow","leftarrow","rightarrow","leftarrow","leftarrow","leftarrow","leftarrow"],"horizon":10,"forced_choices":["rightarrow","leftarrow","leftarrow","rightarrow"],"right_color":"lightblue","left_color":"orange","left_mu":40,"right_mu":10,"left_numbers":[38,39,44,40,27,43,34,41,39,31],"right_numbers":[6,11,12,30,0,3,21,10,11,8],"points_earned":294,"phase":"task","trial_type":"horizons-task","trial_index":48,"time_elapsed":587799,"internal_node_id":"0.0-34.0","task_version":"0.2"},{"response_times":[492.4299999838695,321.6600000159815,318.9799999818206,487.63500002678484,1100.1300000352785],"keys_pressed":["leftarrow","rightarrow","leftarrow","leftarrow","rightarrow"],"horizon":5,"forced_choices":["leftarrow","rightarrow","leftarrow","leftarrow"],"right_color":"lightblue","left_color":"orange","left_mu":40,"right_mu":48,"left_numbers":[19,33,37,32,38],"right_numbers":[46,44,54,49,35],"points_earned":167,"phase":"task","trial_type":"horizons-task","trial_index":49,"time_elapsed":592021,"internal_node_id":"0.0-35.0","task_version":"0.2"},{"response_times":[423.14500000793487,330.7550000026822,678.2950001070276,603.3450000686571,1078.7299999501556],"keys_pressed":["leftarrow","rightarrow","rightarrow","leftarrow","rightarrow"],"horizon":5,"forced_choices":["leftarrow","rightarrow","rightarrow","leftarrow"],"right_color":"orange","left_color":"lightblue","left_mu":60,"right_mu":52,"left_numbers":[59,52,67,59,59],"right_numbers":[50,59,62,57,65],"points_earned":304,"phase":"task","trial_type":"horizons-task","trial_index":50,"time_elapsed":596638,"internal_node_id":"0.0-36.0","task_version":"0.2"},{"response_times":[544.1100000170991,365.7799999928102,441.7350000003353,402.6099999900907,448.02000001072884,454.3650000123307,393.42500001657754,944.3650000030175,370.0249999528751,332.83500000834465],"keys_pressed":["leftarrow","rightarrow","rightarrow","leftarrow","rightarrow","leftarrow","rightarrow","rightarrow","rightarrow","leftarrow"],"horizon":10,"forced_choices":["leftarrow","rightarrow","rightarrow","leftarrow"],"right_color":"lightblue","left_color":"orange","left_mu":40,"right_mu":44,"left_numbers":[56,42,50,36,47,37,31,30,65,38],"right_numbers":[48,55,31,35,52,44,54,21,40,46],"points_earned":420,"phase":"task","trial_type":"horizons-task","trial_index":51,"time_elapsed":602837,"internal_node_id":"0.0-37.0","task_version":"0.2"},{"response_times":[568.5550000052899,342.6350000081584,323.7199999857694,306.12499988637865,277.8349999571219,480.36000004503876,687.3049999121577,302.0099999848753,290.0600000284612,384.9400000181049],"keys_pressed":["leftarrow","leftarrow","rightarrow","leftarrow","rightarrow","leftarrow","rightarrow","leftarrow","leftarrow","leftarrow"],"horizon":10,"forced_choices":["leftarrow","leftarrow","rightarrow","leftarrow"],"right_color":"orange","left_color":"lightblue","left_mu":40,"right_mu":20,"left_numbers":[50,36,34,43,36,29,52,51,44,40],"right_numbers":[25,8,18,31,11,20,22,33,25,27],"points_earned":344,"phase":"task","trial_type":"horizons-task","trial_index":52,"time_elapsed":608302,"internal_node_id":"0.0-38.0","task_version":"0.2"},{"response_times":[496.9600000185892,310.9349999576807,348.1799999717623,392.85499998368323,390.72999998461455,448.81500001065433,400.2049999544397,420.174999977462,765.0849999627098,419.68499997165054],"keys_pressed":["leftarrow","rightarrow","leftarrow","rightarrow","leftarrow","rightarrow","leftarrow","rightarrow","rightarrow","rightarrow"],"horizon":10,"forced_choices":["leftarrow","rightarrow","leftarrow","rightarrow"],"right_color":"lightblue","left_color":"orange","left_mu":40,"right_mu":48,"left_numbers":[52,28,47,40,38,44,26,33,43,25],"right_numbers":[50,56,45,45,40,54,45,62,67,52],"points_earned":499,"phase":"task","trial_type":"horizons-task","trial_index":53,"time_elapsed":614198,"internal_node_id":"0.0-39.0","task_version":"0.2"},{"response_times":[376.32000003941357,647.2000000067055,300.9950000559911,752.2900000913069,402.475000009872,488.5449999710545,437.2250000014901,601.1500000022352,996.6850000200793,608.5350000066683],"keys_pressed":["rightarrow","rightarrow","leftarrow","leftarrow","rightarrow","leftarrow","rightarrow","leftarrow","leftarrow","leftarrow"],"horizon":10,"forced_choices":["rightarrow","rightarrow","leftarrow","leftarrow"],"right_color":"orange","left_color":"lightblue","left_mu":40,"right_mu":32,"left_numbers":[37,27,37,45,41,39,42,40,31,50],"right_numbers":[28,19,28,29,34,32,25,41,35,41],"points_earned":348,"phase":"task","trial_type":"horizons-task","trial_index":54,"time_elapsed":621311,"internal_node_id":"0.0-40.0","task_version":"0.2"},{"response_times":[1082.9249999951571,611.0050000716001,476.9049999304116,474.6600000653416,336.1399999121204],"keys_pressed":["leftarrow","leftarrow","leftarrow","rightarrow","leftarrow"],"horizon":5,"forced_choices":["leftarrow","leftarrow","leftarrow","rightarrow"],"right_color":"orange","left_color":"lightblue","left_mu":60,"right_mu":52,"left_numbers":[40,63,55,66,75],"right_numbers":[46,52,46,37,56],"points_earned":270,"phase":"task","trial_type":"horizons-task","trial_index":55,"time_elapsed":625794,"internal_node_id":"0.0-41.0","task_version":"0.2"},{"response_times":[451.89000002574176,345.0899999588728,367.4550000578165,604.784999974072,377.77500005904585,417.7650000201538,317.2550000017509,286.5449999226257,277.364999987185,343.0550000630319],"keys_pressed":["leftarrow","leftarrow","rightarrow","rightarrow","rightarrow","leftarrow","leftarrow","leftarrow","leftarrow","leftarrow"],"horizon":10,"forced_choices":["leftarrow","leftarrow","rightarrow","rightarrow"],"right_color":"orange","left_color":"lightblue","left_mu":40,"right_mu":20,"left_numbers":[38,29,38,33,40,42,46,49,41,36],"right_numbers":[28,17,36,11,17,15,6,32,13,21],"points_earned":345,"phase":"task","trial_type":"horizons-task","trial_index":56,"time_elapsed":631086,"internal_node_id":"0.0-42.0","task_version":"0.2"},{"response_times":[1539.905000012368,539.6399999735877,342.66500000376254,663.730000029318,763.829999952577,486.559999990277,431.3799999654293,415.015000035055,323.8450000062585,481.84000002220273],"keys_pressed":["rightarrow","leftarrow","rightarrow","rightarrow","leftarrow","rightarrow","rightarrow","leftarrow","rightarrow","rightarrow"],"horizon":10,"forced_choices":["rightarrow","leftarrow","rightarrow","rightarrow"],"right_color":"lightblue","left_color":"orange","left_mu":40,"right_mu":36,"left_numbers":[59,36,55,25,25,45,42,31,50,37],"right_numbers":[42,26,38,39,21,45,42,51,23,19],"points_earned":340,"phase":"task","trial_type":"horizons-task","trial_index":57,"time_elapsed":638576,"internal_node_id":"0.0-43.0","task_version":"0.2"},{"response_times":[536.2350000068545,315.71999995503575,638.9300000155345,381.15999998990446,479.3099999660626],"keys_pressed":["rightarrow","leftarrow","leftarrow","rightarrow","leftarrow"],"horizon":5,"forced_choices":["rightarrow","leftarrow","leftarrow","rightarrow"],"right_color":"orange","left_color":"lightblue","left_mu":60,"right_mu":90,"left_numbers":[68,57,75,55,62],"right_numbers":[79,83,77,86,89],"points_earned":359,"phase":"task","trial_type":"horizons-task","trial_index":58,"time_elapsed":642428,"internal_node_id":"0.0-44.0","task_version":"0.2"},{"response_times":[1352.9050000943244,585.5450000381097,537.2750000096858,458.65499996580184,372.53499997314066],"keys_pressed":["rightarrow","rightarrow","rightarrow","leftarrow","rightarrow"],"horizon":5,"forced_choices":["rightarrow","rightarrow","rightarrow","leftarrow"],"right_color":"orange","left_color":"lightblue","left_mu":40,"right_mu":70,"left_numbers":[33,50,34,41,38],"right_numbers":[69,79,72,63,68],"points_earned":329,"phase":"task","trial_type":"horizons-task","trial_index":59,"time_elapsed":647237,"internal_node_id":"0.0-45.0","task_version":"0.2"},{"response_times":[1896.140000084415,1302.1250000456348,595.2099999412894,596.1300000781193,267.325000022538],"keys_pressed":["rightarrow","leftarrow","leftarrow","leftarrow","rightarrow"],"horizon":5,"forced_choices":["rightarrow","leftarrow","leftarrow","leftarrow"],"right_color":"lightblue","left_color":"orange","left_mu":40,"right_mu":44,"left_numbers":[37,27,34,45,38],"right_numbers":[46,40,53,52,35],"points_earned":187,"phase":"task","trial_type":"horizons-task","trial_index":60,"time_elapsed":653395,"internal_node_id":"0.0-46.0","task_version":"0.2"},{"view_history":"[{\"page_index\":0,\"viewing_time\":4573.4700000612065},{\"page_index\":1,\"viewing_time\":1368.294999934733}]","rt":5941.995000001043,"trial_type":"instructions","trial_index":61,"time_elapsed":659338,"internal_node_id":"0.0-47.0","task_version":"0.2"},{"response_times":[550.9500000625849,336.6749999113381,530.1100000506267,638.0199999548495,299.39000005833805],"keys_pressed":["leftarrow","rightarrow","leftarrow","leftarrow","rightarrow"],"horizon":5,"forced_choices":["leftarrow","rightarrow","leftarrow","leftarrow"],"right_color":"lightblue","left_color":"orange","left_mu":40,"right_mu":60,"left_numbers":[55,24,36,32,40],"right_numbers":[30,65,62,67,49],"points_earned":237,"phase":"task","trial_type":"horizons-task","trial_index":62,"time_elapsed":663197,"internal_node_id":"0.0-48.0","task_version":"0.2"},{"response_times":[530.9000000124797,661.5449999226257,581.4000000245869,1504.8150001093745,341.46999998483807,502.4549999507144,418.5699999798089,896.8400000594556,399.5250000152737,336.7650000145659],"keys_pressed":["leftarrow","leftarrow","rightarrow","rightarrow","leftarrow","leftarrow","leftarrow","leftarrow","rightarrow","leftarrow"],"horizon":10,"forced_choices":["leftarrow","leftarrow","rightarrow","rightarrow"],"right_color":"lightblue","left_color":"orange","left_mu":60,"right_mu":48,"left_numbers":[74,68,61,49,66,49,63,59,52,54],"right_numbers":[50,42,50,47,43,40,43,52,46,54],"points_earned":576,"phase":"task","trial_type":"horizons-task","trial_index":63,"time_elapsed":670873,"internal_node_id":"0.0-49.0","task_version":"0.2"},{"response_times":[634.4399999361485,341.1899999482557,482.62999998405576,727.140000090003,345.6499999156222,469.5950000314042,456.00999996531755,937.0100001106039,225.9099999209866,426.2050000252202],"keys_pressed":["leftarrow","rightarrow","leftarrow","leftarrow","rightarrow","leftarrow","rightarrow","leftarrow","rightarrow","rightarrow"],"horizon":10,"forced_choices":["leftarrow","rightarrow","leftarrow","leftarrow"],"right_color":"lightblue","left_color":"orange","left_mu":40,"right_mu":48,"left_numbers":[34,46,36,44,53,29,30,41,44,39],"right_numbers":[39,47,49,47,39,40,50,41,40,57],"points_earned":417,"phase":"task","trial_type":"horizons-task","trial_index":64,"time_elapsed":677420,"internal_node_id":"0.0-50.0","task_version":"0.2"},{"response_times":[446.44999993033707,328.46500002779067,434.2600000090897,338.13499996904284,370.27499999385327,398.95000006072223,378.774999990128,481.1850000405684,1051.9199999980628,244.19499991927296],"keys_pressed":["leftarrow","rightarrow","leftarrow","rightarrow","leftarrow","rightarrow","leftarrow","rightarrow","rightarrow","rightarrow"],"horizon":10,"forced_choices":["leftarrow","rightarrow","leftarrow","rightarrow"],"right_color":"orange","left_color":"lightblue","left_mu":60,"right_mu":80,"left_numbers":[61,74,61,50,57,46,57,81,65,52],"right_numbers":[80,71,61,66,81,74,74,75,77,93],"points_earned":692,"phase":"task","trial_type":"horizons-task","trial_index":65,"time_elapsed":683394,"internal_node_id":"0.0-51.0","task_version":"0.2"},{"response_times":[724.2349999723956,366.2849999964237,849.9699999811128,530.0500000594184,336.64500003214926,430.07000000216067,326.0050000390038,426.11500003840774,166.3649999536574,155.50999995321035],"keys_pressed":["rightarrow","leftarrow","leftarrow","leftarrow","rightarrow","leftarrow","rightarrow","leftarrow","leftarrow","leftarrow"],"horizon":10,"forced_choices":["rightarrow","leftarrow","leftarrow","leftarrow"],"right_color":"lightblue","left_color":"orange","left_mu":40,"right_mu":10,"left_numbers":[21,44,40,39,38,55,47,29,36,41],"right_numbers":[17,11,12,15,5,6,4,4,14,4],"points_earned":310,"phase":"task","trial_type":"horizons-task","trial_index":66,"time_elapsed":689207,"internal_node_id":"0.0-52.0","task_version":"0.2"},{"response_times":[673.1299998937175,347.26000006776303,591.9199999189004,292.45000006631017,388.50999996066093,325.97500004339963,457.87500008009374,328.63000000361353,468.5300000710413,525.6700000027195],"keys_pressed":["rightarrow","leftarrow","leftarrow","rightarrow","leftarrow","rightarrow","leftarrow","rightarrow","leftarrow","leftarrow"],"horizon":10,"forced_choices":["rightarrow","leftarrow","leftarrow","rightarrow"],"right_color":"orange","left_color":"lightblue","left_mu":40,"right_mu":28,"left_numbers":[39,44,46,36,32,53,48,45,32,25],"right_numbers":[37,20,26,38,29,40,24,30,24,19],"points_earned":372,"phase":"task","trial_type":"horizons-task","trial_index":67,"time_elapsed":695108,"internal_node_id":"0.0-53.0","task_version":"0.2"},{"response_times":[637.3199999798089,295.23000004701316,405.55999998468906,420.30500003602356,342.8350000176579,370.47500000335276,327.4700000183657,698.8349999301136,362.86499991547316,770.0349999358878],"keys_pressed":["rightarrow","leftarrow","rightarrow","leftarrow","rightarrow","leftarrow","rightarrow","leftarrow","rightarrow","leftarrow"],"horizon":10,"forced_choices":["rightarrow","leftarrow","rightarrow","leftarrow"],"right_color":"orange","left_color":"lightblue","left_mu":60,"right_mu":56,"left_numbers":[52,58,71,59,55,76,49,72,54,70],"right_numbers":[72,51,67,57,61,51,64,53,48,66],"points_earned":647,"phase":"task","trial_type":"horizons-task","trial_index":68,"time_elapsed":701241,"internal_node_id":"0.0-54.0","task_version":"0.2"},{"response_times":[571.2250000797212,321.97499996982515,568.2100000558421,256.87000004108995,417.94499999377877,405.3899999707937,342.47999999206513,386.76999998278916,451.67499990202487,437.5],"keys_pressed":["leftarrow","rightarrow","rightarrow","leftarrow","rightarrow","leftarrow","rightarrow","leftarrow","rightarrow","leftarrow"],"horizon":10,"forced_choices":["leftarrow","rightarrow","rightarrow","leftarrow"],"right_color":"lightblue","left_color":"orange","left_mu":60,"right_mu":40,"left_numbers":[53,64,70,55,54,55,60,63,54,66],"right_numbers":[46,40,35,34,32,32,35,32,44,44],"points_earned":478,"phase":"task","trial_type":"horizons-task","trial_index":69,"time_elapsed":706903,"internal_node_id":"0.0-55.0","task_version":"0.2"},{"response_times":[485.6249999720603,425.2749999286607,323.60000000335276,694.275000016205,341.4899999042973],"keys_pressed":["leftarrow","leftarrow","rightarrow","rightarrow","leftarrow"],"horizon":5,"forced_choices":["leftarrow","leftarrow","rightarrow","rightarrow"],"right_color":"lightblue","left_color":"orange","left_mu":60,"right_mu":48,"left_numbers":[48,44,65,62,72],"right_numbers":[43,52,46,51,47],"points_earned":261,"phase":"task","trial_type":"horizons-task","trial_index":70,"time_elapsed":710675,"internal_node_id":"0.0-56.0","task_version":"0.2"},{"response_times":[402.7099999366328,539.9850000394508,386.7249999893829,350.1200000755489,365.7299999613315,330.3450000239536,387.19499995931983,306.73499999102205,342.839999939315,180.65500003285706],"keys_pressed":["rightarrow","rightarrow","leftarrow","rightarrow","leftarrow","rightarrow","leftarrow","rightarrow","leftarrow","leftarrow"],"horizon":10,"forced_choices":["rightarrow","rightarrow","leftarrow","rightarrow"],"right_color":"orange","left_color":"lightblue","left_mu":40,"right_mu":32,"left_numbers":[47,51,44,32,46,45,52,36,49,39],"right_numbers":[26,20,39,26,27,32,38,34,24,14],"points_earned":368,"phase":"task","trial_type":"horizons-task","trial_index":71,"time_elapsed":715770,"internal_node_id":"0.0-57.0","task_version":"0.2"},{"response_times":[457.26500009186566,304.29000000003725,462.0750000467524,317.2050000866875,329.79500002693385],"keys_pressed":["leftarrow","rightarrow","leftarrow","rightarrow","leftarrow"],"horizon":5,"forced_choices":["leftarrow","rightarrow","leftarrow","rightarrow"],"right_color":"lightblue","left_color":"orange","left_mu":40,"right_mu":48,"left_numbers":[33,38,36,35,45],"right_numbers":[51,49,45,41,47],"points_earned":204,"phase":"task","trial_type":"horizons-task","trial_index":72,"time_elapsed":719142,"internal_node_id":"0.0-58.0","task_version":"0.2"},{"response_times":[398.0350000783801,658.7000000290573,466.1149999592453,502.50999990385026,425.94000010285527],"keys_pressed":["rightarrow","rightarrow","rightarrow","leftarrow","rightarrow"],"horizon":5,"forced_choices":["rightarrow","rightarrow","rightarrow","leftarrow"],"right_color":"orange","left_color":"lightblue","left_mu":60,"right_mu":72,"left_numbers":[61,61,64,47,67],"right_numbers":[91,70,67,74,74],"points_earned":349,"phase":"task","trial_type":"horizons-task","trial_index":73,"time_elapsed":723096,"internal_node_id":"0.0-59.0","task_version":"0.2"},{"response_times":[425.6700000260025,653.3150000032037,403.37499999441206,275.4649999551475,820.7750000292435,347.16499992646277,454.91000008769333,344.7549999691546,1331.9700000574812,1091.4849999826401],"keys_pressed":["rightarrow","rightarrow","leftarrow","rightarrow","leftarrow","rightarrow","leftarrow","rightarrow","leftarrow","rightarrow"],"horizon":10,"forced_choices":["rightarrow","rightarrow","leftarrow","rightarrow"],"right_color":"lightblue","left_color":"orange","left_mu":60,"right_mu":64,"left_numbers":[57,56,57,62,60,65,66,60,49,62],"right_numbers":[60,68,69,65,61,55,68,64,59,59],"points_earned":603,"phase":"task","trial_type":"horizons-task","trial_index":74,"time_elapsed":730747,"internal_node_id":"0.0-60.0","task_version":"0.2"},{"response_times":[403.2799999695271,599.515000008978,371.24500004574656,409.5599999418482,482.1549999760464,283.5000000195578,410.0199999520555,259.93499998003244,259.2100000474602,262.8600000170991],"keys_pressed":["rightarrow","rightarrow","leftarrow","rightarrow","leftarrow","rightarrow","leftarrow","rightarrow","rightarrow","rightarrow"],"horizon":10,"forced_choices":["rightarrow","rightarrow","leftarrow","rightarrow"],"right_color":"orange","left_color":"lightblue","left_mu":60,"right_mu":80,"left_numbers":[63,61,52,54,54,52,52,64,73,56],"right_numbers":[79,63,77,75,73,92,81,65,70,80],"points_earned":682,"phase":"task","trial_type":"horizons-task","trial_index":75,"time_elapsed":735990,"internal_node_id":"0.0-61.0","task_version":"0.2"},{"response_times":[441.81500002741814,308.71000001206994,574.8499999754131,576.0049999225885,2716.595000005327],"keys_pressed":["leftarrow","rightarrow","rightarrow","rightarrow","rightarrow"],"horizon":5,"forced_choices":["leftarrow","rightarrow","rightarrow","rightarrow"],"right_color":"orange","left_color":"lightblue","left_mu":60,"right_mu":56,"left_numbers":[59,71,71,82,37],"right_numbers":[61,57,54,50,66],"points_earned":286,"phase":"task","trial_type":"horizons-task","trial_index":76,"time_elapsed":742110,"internal_node_id":"0.0-62.0","task_version":"0.2"},{"response_times":[434.2999999644235,328.68000003509223,388.26000003609806,767.7550000371411,4224.275000044145,342.3349999357015,312.00000003445894,346.94499999750406,249.12499997299165,417.16499999165535],"keys_pressed":["leftarrow","rightarrow","leftarrow","leftarrow","rightarrow","leftarrow","rightarrow","leftarrow","rightarrow","rightarrow"],"horizon":10,"forced_choices":["leftarrow","rightarrow","leftarrow","leftarrow"],"right_color":"lightblue","left_color":"orange","left_mu":40,"right_mu":60,"left_numbers":[38,49,44,32,45,50,41,36,42,36],"right_numbers":[67,65,59,69,70,65,51,50,67,48],"points_earned":501,"phase":"task","trial_type":"horizons-task","trial_index":77,"time_elapsed":751422,"internal_node_id":"0.0-63.0","task_version":"0.2"},{"response_times":[3754.6950000105426,501.9099999917671,375.92500005848706,358.9999999385327,946.2950000306591],"keys_pressed":["rightarrow","rightarrow","leftarrow","rightarrow","rightarrow"],"horizon":5,"forced_choices":["rightarrow","rightarrow","leftarrow","rightarrow"],"right_color":"lightblue","left_color":"orange","left_mu":60,"right_mu":64,"left_numbers":[69,66,57,58,71],"right_numbers":[54,68,52,78,57],"points_earned":314,"phase":"task","trial_type":"horizons-task","trial_index":78,"time_elapsed":758861,"internal_node_id":"0.0-64.0","task_version":"0.2"},{"response_times":[551.2350000208244,541.0200000042096,400.2949999412522,348.99500000756234,330.69000008981675,522.9599999729544,414.6599998930469,534.5299999462441,787.6849999884143,280.09000001475215],"keys_pressed":["leftarrow","leftarrow","rightarrow","leftarrow","rightarrow","leftarrow","rightarrow","leftarrow","leftarrow","leftarrow"],"horizon":10,"forced_choices":["leftarrow","leftarrow","rightarrow","leftarrow"],"right_color":"lightblue","left_color":"orange","left_mu":60,"right_mu":40,"left_numbers":[59,43,49,57,48,56,74,58,63,59],"right_numbers":[38,43,34,47,38,33,41,35,43,40],"points_earned":508,"phase":"task","trial_type":"horizons-task","trial_index":79,"time_elapsed":765075,"internal_node_id":"0.0-65.0","task_version":"0.2"},{"response_times":[554.3099999194965,325.370000093244,606.9049999350682,577.3150000022724,682.799999951385,313.579999958165,427.9800000367686,460.30500007327646,317.1249999431893,498.3500000089407],"keys_pressed":["rightarrow","leftarrow","leftarrow","leftarrow","rightarrow","leftarrow","rightarrow","leftarrow","rightarrow","leftarrow"],"horizon":10,"forced_choices":["rightarrow","leftarrow","leftarrow","leftarrow"],"right_color":"lightblue","left_color":"orange","left_mu":40,"right_mu":44,"left_numbers":[45,52,43,41,45,34,34,36,47,40],"right_numbers":[39,18,44,51,33,39,24,37,54,42],"points_earned":396,"phase":"task","trial_type":"horizons-task","trial_index":80,"time_elapsed":771341,"internal_node_id":"0.0-66.0","task_version":"0.2"},{"response_times":[447.18499993905425,253.52000002749264,413.910000002943,265.4900000197813,353.2699999632314,581.0300000011921,402.390000061132,476.6249998938292,390.2399999788031,970.644999993965],"keys_pressed":["leftarrow","rightarrow","leftarrow","rightarrow","leftarrow","rightarrow","leftarrow","rightarrow","leftarrow","leftarrow"],"horizon":10,"forced_choices":["leftarrow","rightarrow","leftarrow","rightarrow"],"right_color":"lightblue","left_color":"orange","left_mu":60,"right_mu":64,"left_numbers":[66,60,68,67,61,67,63,54,78,57],"right_numbers":[55,59,61,66,72,62,61,79,61,55],"points_earned":659,"phase":"task","trial_type":"horizons-task","trial_index":81,"time_elapsed":777397,"internal_node_id":"0.0-67.0","task_version":"0.2"},{"response_times":[518.1749999755993,252.17500003054738,335.41499997954816,253.5400000633672,389.2699999269098],"keys_pressed":["leftarrow","rightarrow","leftarrow","rightarrow","leftarrow"],"horizon":5,"forced_choices":["leftarrow","rightarrow","leftarrow","rightarrow"],"right_color":"orange","left_color":"lightblue","left_mu":40,"right_mu":70,"left_numbers":[43,41,42,27,44],"right_numbers":[83,57,60,67,66],"points_earned":253,"phase":"task","trial_type":"horizons-task","trial_index":82,"time_elapsed":780646,"internal_node_id":"0.0-68.0","task_version":"0.2"},{"response_times":[485.0449999794364,314.8550000041723,573.8049999345094,386.144999996759,754.1100000962615],"keys_pressed":["rightarrow","leftarrow","leftarrow","rightarrow","leftarrow"],"horizon":5,"forced_choices":["rightarrow","leftarrow","leftarrow","rightarrow"],"right_color":"orange","left_color":"lightblue","left_mu":40,"right_mu":28,"left_numbers":[33,43,34,39,32],"right_numbers":[29,30,29,30,26],"points_earned":168,"phase":"task","trial_type":"horizons-task","trial_index":83,"time_elapsed":784662,"internal_node_id":"0.0-69.0","task_version":"0.2"},{"response_times":[439.43999998737127,474.0150000434369,416.20499989949167,439.8350000847131,434.7050000214949,543.3300000149757,270.2200000640005,534.5799999777228,250.91999990399927,450.4899999592453],"keys_pressed":["rightarrow","rightarrow","rightarrow","leftarrow","rightarrow","leftarrow","rightarrow","leftarrow","rightarrow","rightarrow"],"horizon":10,"forced_choices":["rightarrow","rightarrow","rightarrow","leftarrow"],"right_color":"orange","left_color":"lightblue","left_mu":40,"right_mu":70,"left_numbers":[48,32,53,47,31,50,37,41,33,37],"right_numbers":[68,63,67,66,74,76,64,88,68,66],"points_earned":608,"phase":"task","trial_type":"horizons-task","trial_index":84,"time_elapsed":790417,"internal_node_id":"0.0-70.0","task_version":"0.2"},{"response_times":[501.51999993249774,717.8449999773875,592.5249999854714,365.46000000089407,745.4800000414252,332.20999990589917,407.53500000573695,563.785000005737,394.510000012815,899.1900000255555],"keys_pressed":["leftarrow","leftarrow","leftarrow","rightarrow","leftarrow","rightarrow","leftarrow","rightarrow","leftarrow","leftarrow"],"horizon":10,"forced_choices":["leftarrow","leftarrow","leftarrow","rightarrow"],"right_color":"orange","left_color":"lightblue","left_mu":40,"right_mu":28,"left_numbers":[51,28,32,42,51,45,47,38,36,34],"right_numbers":[27,21,33,31,25,20,27,42,26,18],"points_earned":372,"phase":"task","trial_type":"horizons-task","trial_index":85,"time_elapsed":797439,"internal_node_id":"0.0-71.0","task_version":"0.2"},{"response_times":[5749.780000071041,359.8500000080094,472.83999994397163,392.1649999683723,494.18500007595867,335.63999994657934,453.2699999399483,401.6700000502169,337.02499989885837,475.040000048466],"keys_pressed":["leftarrow","rightarrow","rightarrow","rightarrow","leftarrow","rightarrow","leftarrow","rightarrow","leftarrow","leftarrow"],"horizon":10,"forced_choices":["leftarrow","rightarrow","rightarrow","rightarrow"],"right_color":"lightblue","left_color":"orange","left_mu":60,"right_mu":48,"left_numbers":[45,48,54,51,59,67,65,66,60,57],"right_numbers":[54,53,52,57,59,27,57,42,55,55],"points_earned":517,"phase":"task","trial_type":"horizons-task","trial_index":86,"time_elapsed":808412,"internal_node_id":"0.0-72.0","task_version":"0.2"},{"response_times":[544.7200000053272,502.0850000437349,387.97500007785857,610.4699999559671,2182.715000002645],"keys_pressed":["rightarrow","rightarrow","leftarrow","leftarrow","leftarrow"],"horizon":5,"forced_choices":["rightarrow","rightarrow","leftarrow","leftarrow"],"right_color":"lightblue","left_color":"orange","left_mu":60,"right_mu":30,"left_numbers":[73,64,53,34,64],"right_numbers":[30,39,21,24,33],"points_earned":220,"phase":"task","trial_type":"horizons-task","trial_index":87,"time_elapsed":814141,"internal_node_id":"0.0-73.0","task_version":"0.2"},{"response_times":[488.6549999937415,319.275000016205,356.9150000112131,593.7949999934062,994.9100000085309,387.845000019297,333.0149999819696,417.8149999352172,167.17500006780028,176.42000003252178],"keys_pressed":["rightarrow","leftarrow","rightarrow","rightarrow","leftarrow","rightarrow","leftarrow","rightarrow","leftarrow","leftarrow"],"horizon":10,"forced_choices":["rightarrow","leftarrow","rightarrow","rightarrow"],"right_color":"lightblue","left_color":"orange","left_mu":60,"right_mu":30,"left_numbers":[67,58,65,73,58,54,48,58,54,62],"right_numbers":[27,29,14,26,19,17,32,21,27,38],"points_earned":385,"phase":"task","trial_type":"horizons-task","trial_index":88,"time_elapsed":819878,"internal_node_id":"0.0-74.0","task_version":"0.2"},{"response_times":[516.5199999464676,620.4249999718741,360.17500003799796,440.91499992646277,398.56000000145286,371.32000003475696,235.05000001750886,345.72999994270504,224.0349999628961,361.35500005912036],"keys_pressed":["leftarrow","leftarrow","rightarrow","leftarrow","rightarrow","leftarrow","rightarrow","rightarrow","rightarrow","rightarrow"],"horizon":10,"forced_choices":["leftarrow","leftarrow","rightarrow","leftarrow"],"right_color":"orange","left_color":"lightblue","left_mu":60,"right_mu":90,"left_numbers":[53,51,62,60,56,68,69,52,61,66],"right_numbers":[96,89,97,84,93,107,83,100,92,78],"points_earned":775,"phase":"task","trial_type":"horizons-task","trial_index":89,"time_elapsed":825254,"internal_node_id":"0.0-75.0","task_version":"0.2"},{"response_times":[441.0949999000877,528.9050000719726,394.194999942556,621.2300000479445,311.4949999144301,385.65499999094754,327.5799999246374,449.0650000516325,454.66000004671514,596.0050000576302],"keys_pressed":["rightarrow","rightarrow","leftarrow","leftarrow","rightarrow","leftarrow","rightarrow","leftarrow","rightarrow","leftarrow"],"horizon":10,"forced_choices":["rightarrow","rightarrow","leftarrow","leftarrow"],"right_color":"lightblue","left_color":"orange","left_mu":60,"right_mu":30,"left_numbers":[59,51,55,65,62,50,47,62,59,49],"right_numbers":[39,25,26,37,50,37,29,21,27,16],"points_earned":451,"phase":"task","trial_type":"horizons-task","trial_index":90,"time_elapsed":831266,"internal_node_id":"0.0-76.0","task_version":"0.2"},{"response_times":[326.81500003673136,522.8749999077991,384.97000001370907,641.8100000591949,358.17499994300306,355.890000006184,299.28999999538064,385.8000000473112,474.0000000456348,606.815000064671],"keys_pressed":["rightarrow","rightarrow","leftarrow","leftarrow","rightarrow","leftarrow","rightarrow","leftarrow","rightarrow","rightarrow"],"horizon":10,"forced_choices":["rightarrow","rightarrow","leftarrow","leftarrow"],"right_color":"orange","left_color":"lightblue","left_mu":60,"right_mu":68,"left_numbers":[55,66,50,64,65,67,51,64,42,59],"right_numbers":[69,68,68,79,70,72,54,71,78,80],"points_earned":664,"phase":"task","trial_type":"horizons-task","trial_index":91,"time_elapsed":837124,"internal_node_id":"0.0-77.0","task_version":"0.2"},{"response_times":[762.4150000046939,351.7449999926612,428.7800000747666,533.460000064224,910.6799999717623],"keys_pressed":["leftarrow","rightarrow","rightarrow","rightarrow","leftarrow"],"horizon":5,"forced_choices":["leftarrow","rightarrow","rightarrow","rightarrow"],"right_color":"lightblue","left_color":"orange","left_mu":60,"right_mu":48,"left_numbers":[69,51,54,54,59],"right_numbers":[59,42,48,45,42],"points_earned":263,"phase":"task","trial_type":"horizons-task","trial_index":92,"time_elapsed":841613,"internal_node_id":"0.0-78.0","task_version":"0.2"},{"response_times":[396.669999929145,547.9650000343099,352.94999997131526,488.1199999945238,1039.1100000124425],"keys_pressed":["rightarrow","rightarrow","leftarrow","rightarrow","leftarrow"],"horizon":5,"forced_choices":["rightarrow","rightarrow","leftarrow","rightarrow"],"right_color":"orange","left_color":"lightblue","left_mu":40,"right_mu":32,"left_numbers":[50,31,46,33,29],"right_numbers":[29,32,20,44,24],"points_earned":180,"phase":"task","trial_type":"horizons-task","trial_index":93,"time_elapsed":845940,"internal_node_id":"0.0-79.0","task_version":"0.2"},{"response_times":[433.809999958612,351.6400000080466,425.61499995645136,850.1950000645593,366.4850000059232],"keys_pressed":["rightarrow","leftarrow","rightarrow","rightarrow","leftarrow"],"horizon":5,"forced_choices":["rightarrow","leftarrow","rightarrow","rightarrow"],"right_color":"lightblue","left_color":"orange","left_mu":40,"right_mu":36,"left_numbers":[50,49,47,45,35],"right_numbers":[53,39,38,28,29],"points_earned":203,"phase":"task","trial_type":"horizons-task","trial_index":94,"time_elapsed":849869,"internal_node_id":"0.0-80.0","task_version":"0.2"},{"response_times":[472.5000000325963,534.3449999345466,7590.76500008814,3964.265000075102,705.004999996163],"keys_pressed":["leftarrow","leftarrow","leftarrow","rightarrow","leftarrow"],"horizon":5,"forced_choices":["leftarrow","leftarrow","leftarrow","rightarrow"],"right_color":"orange","left_color":"lightblue","left_mu":40,"right_mu":28,"left_numbers":[19,32,40,32,33],"right_numbers":[24,23,28,14,16],"points_earned":138,"phase":"task","trial_type":"horizons-task","trial_index":95,"time_elapsed":864637,"internal_node_id":"0.0-81.0","task_version":"0.2"},{"response_times":[458.9100000448525,321.3250000262633,561.8800000520423,411.4899999694899,792.6750000333413],"keys_pressed":["leftarrow","rightarrow","rightarrow","leftarrow","rightarrow"],"horizon":5,"forced_choices":["leftarrow","rightarrow","rightarrow","leftarrow"],"right_color":"lightblue","left_color":"orange","left_mu":60,"right_mu":40,"left_numbers":[64,55,60,61,52],"right_numbers":[46,37,50,46,48],"points_earned":260,"phase":"task","trial_type":"horizons-task","trial_index":96,"time_elapsed":868685,"internal_node_id":"0.0-82.0","task_version":"0.2"},{"response_times":[412.4399999855086,517.7949999924749,498.0399999767542,379.1049999417737,338.3550000144169,369.5499999448657,380.1400000229478,294.7649999987334,414.1600000439212,465.02999996300787],"keys_pressed":["rightarrow","rightarrow","rightarrow","leftarrow","rightarrow","leftarrow","rightarrow","leftarrow","rightarrow","rightarrow"],"horizon":10,"forced_choices":["rightarrow","rightarrow","rightarrow","leftarrow"],"right_color":"orange","left_color":"lightblue","left_mu":60,"right_mu":72,"left_numbers":[66,51,57,78,53,68,61,52,62,55],"right_numbers":[68,64,71,68,67,66,75,66,68,58],"points_earned":669,"phase":"task","trial_type":"horizons-task","trial_index":97,"time_elapsed":874257,"internal_node_id":"0.0-83.0","task_version":"0.2"},{"response_times":[549.5600000722334,307.07000009715557,596.2450000224635,298.0049999896437,365.54000002797693,391.17499999701977,1206.9249999476597,342.14500000234693,168.8350000185892,152.9099999461323],"keys_pressed":["rightarrow","leftarrow","leftarrow","rightarrow","leftarrow","rightarrow","rightarrow","rightarrow","rightarrow","rightarrow"],"horizon":10,"forced_choices":["rightarrow","leftarrow","leftarrow","rightarrow"],"right_color":"orange","left_color":"lightblue","left_mu":60,"right_mu":90,"left_numbers":[55,58,60,57,61,66,58,50,50,49],"right_numbers":[85,93,77,88,90,85,96,92,83,90],"points_earned":798,"phase":"task","trial_type":"horizons-task","trial_index":98,"time_elapsed":880137,"internal_node_id":"0.0-84.0","task_version":"0.2"},{"response_times":[496.59500003326684,315.70999999530613,392.5100000342354,731.5299999900162,899.5600000489503],"keys_pressed":["leftarrow","leftarrow","rightarrow","rightarrow","leftarrow"],"horizon":5,"forced_choices":["leftarrow","leftarrow","rightarrow","rightarrow"],"right_color":"orange","left_color":"lightblue","left_mu":40,"right_mu":20,"left_numbers":[43,40,45,36,51],"right_numbers":[20,14,22,26,14],"points_earned":182,"phase":"task","trial_type":"horizons-task","trial_index":99,"time_elapsed":884475,"internal_node_id":"0.0-85.0","task_version":"0.2"},{"response_times":[395.1449999585748,336.62000007461756,440.0600000517443,986.3149999873713,479.894999996759],"keys_pressed":["leftarrow","rightarrow","rightarrow","rightarrow","rightarrow"],"horizon":5,"forced_choices":["leftarrow","rightarrow","rightarrow","rightarrow"],"right_color":"orange","left_color":"lightblue","left_mu":60,"right_mu":68,"left_numbers":[59,58,61,71,56],"right_numbers":[77,74,61,62,68],"points_earned":324,"phase":"task","trial_type":"horizons-task","trial_index":100,"time_elapsed":888614,"internal_node_id":"0.0-86.0","task_version":"0.2"},{"response_times":[608.3749999525025,424.9300000956282,409.81499990448356,395.0050000566989,2298.105000052601],"keys_pressed":["leftarrow","leftarrow","rightarrow","leftarrow","leftarrow"],"horizon":5,"forced_choices":["leftarrow","leftarrow","rightarrow","leftarrow"],"right_color":"orange","left_color":"lightblue","left_mu":40,"right_mu":20,"left_numbers":[47,27,52,36,43],"right_numbers":[11,30,32,22,14],"points_earned":185,"phase":"task","trial_type":"horizons-task","trial_index":101,"time_elapsed":894252,"internal_node_id":"0.0-87.0","task_version":"0.2"},{"rt":17874.92500001099,"responses":{"age":"21","gender-categorical":"Male","gender-free-response":"","ethnicity":"Not Hispanic or Latino","race":["White"],"language":"No","fluency":"Very well"},"survey":"demographics","trial_type":"survey-demo","trial_index":102,"time_elapsed":912129,"internal_node_id":"0.0-88.0","task_version":"0.2"},{"rt":22580.685000051744,"responses":{"difficulty":"4","fun":"3","clarity":"4","strategy":"No","feedback":""},"survey":"debrief","trial_type":"survey-debrief","trial_index":103,"time_elapsed":934711,"internal_node_id":"0.0-89.0","task_version":"0.2","interactions":"[{\"event\":\"blur\",\"trial\":30,\"time\":484633},{\"event\":\"focus\",\"trial\":30,\"time\":491297},{\"event\":\"blur\",\"trial\":41,\"time\":544727},{\"event\":\"focus\",\"trial\":41,\"time\":550385},{\"event\":\"blur\",\"trial\":86,\"time\":798538},{\"event\":\"focus\",\"trial\":86,\"time\":802340}]"}]