[{"view_history":"[{\"page_index\":0,\"viewing_time\":2961.1750000040047}]","rt":2961.5449999982957,"trial_type":"instructions","trial_index":0,"time_elapsed":2971,"internal_node_id":"0.0-0.0","task_version":"0.2"},{"item_order":[4,10,11,0,3,7,12,14,8,13,9,5,6,1,15,2],"responses":{"Q05":"1","Q11":"3","Q12":"3","Q01":"3","Q04":"4","Q08":"5","Q13":"3","Q15":"3","Q09":"4","Q14":"5","Q10":"3","Q06":"3","Q07":"4","Q02":"5","Q16":"5","Q03":"4"},"radio_events":[31432.954999996582,36059.78499999037,41114.12499999278,44201.854999992065,48166.90000001108,53374.829999986105,59505.239999998594,63821.64000000921,66728.62499998882,72512.45499998913,76191.64999999339,78651.38500000467,84734.6050000051,87299.44999999134,92685.4250000033,96529.61500000674,99525.43000000878,103600.40999998455,106105.23499999545],"key_events":[],"mouse_events":[0.07499998901039362,30792.110000009416,31432.954999996582,36059.78499999037,41114.12499999278,44201.854999992065,48166.90000001108,52940.39999999222,53374.829999986105,58977.799999993294,59505.239999998594,63174.48499999591,63821.64000000921,66041.88500001328,66728.62499998882,72512.45499998913,75701.464999991,76191.64999999339,78651.38500000467,84734.6050000051,87299.44999999134,92235.39499999606,92685.4250000033,96087.46000000974,96529.61500000674,99525.43000000878,103037.26499999175,103600.40999998455,106105.23499999545,107130.42999999016],"rt":107133.76999998582,"survey":"nfc","trial_type":"survey-template","trial_index":1,"time_elapsed":110111,"internal_node_id":"0.0-1.0","task_version":"0.2"},{"item_order":[2,1,10,7,4,13,3,11,9,6,0,12,5,15,14,8,16],"responses":{"Q03":"0","Q02":"2","Q11":"1","Q08":"4","Q05":"4","Q14":"4","Q04":"3","Q12":"2","Q10":"4","Q07":"3","Q01":"4","Q13":"2","Q06":"4","Q16":"4","Q15":"2","Q09":"2","Q17":"0"},"radio_events":[2497.8049999917857,5361.854999995558,10435.800000006566,19407.030000002123,24256.77999999607,26520.684999995865,28444.740000006277,32681.664999981876,33510.86999999825,37366.94000000716,45336.69500000542,48358.71000000043,51487.71499999566,54729.80999998981,57763.69500000146,60375.67000000854,63651.65499999421,71585.59999999125],"key_events":[],"mouse_events":[2497.8049999917857,4782.449999998789,5361.854999995558,10435.800000006566,19407.030000002123,23728.029999998398,24256.77999999607,26520.684999995865,28444.740000006277,31276.97000000626,32681.664999981876,33510.86999999825,37366.94000000716,43454.72000000882,45336.69500000542,48358.71000000043,51487.71499999566,53895.46999998856,54361.444999987725,54729.80999998981,56949.9749999959,57322.374999988824,57763.69500000146,60375.67000000854,63651.65499999421,71585.59999999125,72839.68999999342],"rt":72842.18999999575,"survey":"pswq","trial_type":"survey-template","trial_index":2,"time_elapsed":182961,"internal_node_id":"0.0-2.0","task_version":"0.2"},{"item_order":[4,3,12,6,2,9,10,1,7,5,8,11,0],"responses":{"Q05":"2","Q04":"3","Q13":"4","Q07":"2","Q03":"1","Q10":"1","Q11":"3","Q02":"4","Q08":"3","Q06":"1","Q09":"1","Q12":"0","Q01":"1"},"radio_events":[8111.609999992652,11102.879999991274,14434.785000019474,23141.505000006873,25340.69000001182,36523.48500001244,39105.5800000031,41784.57499999786,44253.54000000516,48580.42499999283,52220.43499999563,53819.4599999988,58738.11000000569,64037.19000000274,65958.32500001416],"key_events":[],"mouse_events":[8111.609999992652,11102.879999991274,14434.785000019474,20546.295000007376,23141.505000006873,25340.69000001182,36523.48500001244,39105.5800000031,41784.57499999786,44253.54000000516,48099.44499999983,48580.42499999283,52220.43499999563,53383.29500000691,53819.4599999988,58738.11000000569,63563.01000001258,64037.19000000274,65958.32500001416,66701.62999999593],"rt":66703.56500000344,"survey":"ius12","trial_type":"survey-template","trial_index":3,"time_elapsed":249673,"internal_node_id":"0.0-3.0","task_version":"0.2"},{"view_history":"[{\"page_index\":0,\"viewing_time\":5763.025000022026},{\"page_index\":1,\"viewing_time\":10008.959999977378},{\"page_index\":2,\"viewing_time\":12302.695000020321},{\"page_index\":3,\"viewing_time\":8914.924999990035},{\"page_index\":4,\"viewing_time\":9404.334999999264},{\"page_index\":5,\"viewing_time\":6730.4000000003725},{\"page_index\":6,\"viewing_time\":8921.080000000075},{\"page_index\":7,\"viewing_time\":11230.864999990445},{\"page_index\":8,\"viewing_time\":11670.95500000869},{\"page_index\":9,\"viewing_time\":9148.09500001138}]","rt":94096.16499999538,"trial_type":"instructions","trial_index":4,"time_elapsed":343773,"internal_node_id":"0.0-4.0-0.0","task_version":"0.2"},{"response_times":[1402.8800000087358,983.1799999810755,527.845000004163,1439.9299999931827,2759.6450000128243],"keys_pressed":["rightarrow","leftarrow","rightarrow","rightarrow","rightarrow"],"horizon":5,"forced_choices":["rightarrow","leftarrow","rightarrow","rightarrow"],"right_color":"lightblue","left_color":"orange","left_mu":40,"right_mu":20,"left_numbers":[28,33,32,39,44],"right_numbers":[8,13,2,10,17],"points_earned":70,"phase":"practice","trial_type":"horizons-task","trial_index":5,"time_elapsed":352396,"internal_node_id":"0.0-4.0-1.0","task_version":"0.2"},{"response_times":[1199.5599999791011,575.9599999873899,592.1849999867845,552.0850000029895,4671.919999993406,2431.61999998847,1388.0500000086613,719.9850000033621,2016.2549999949988,855.5650000052992],"keys_pressed":["leftarrow","leftarrow","rightarrow","rightarrow","rightarrow","rightarrow","rightarrow","rightarrow","rightarrow","leftarrow"],"horizon":10,"forced_choices":["leftarrow","leftarrow","rightarrow","rightarrow"],"right_color":"orange","left_color":"lightblue","left_mu":60,"right_mu":70,"left_numbers":[52,45,53,54,60,62,52,62,67,66],"right_numbers":[58,69,62,73,76,71,83,67,62,61],"points_earned":657,"phase":"practice","trial_type":"horizons-task","trial_index":6,"time_elapsed":368902,"internal_node_id":"0.0-4.0-2.0","task_version":"0.2"},{"view_history":"[{\"page_index\":0,\"viewing_time\":2862.1099999872968},{\"page_index\":1,\"viewing_time\":3282.984999998007},{\"page_index\":2,\"viewing_time\":6281.095000013011},{\"page_index\":3,\"viewing_time\":2055.915000004461}]","rt":14482.40499998792,"trial_type":"instructions","trial_index":7,"time_elapsed":383386,"internal_node_id":"0.0-4.0-3.0","task_version":"0.2"},{"responses":["true","false","true"],"num_errors":0,"rt":12208.480000001146,"trial_type":"horizons-comprehension","trial_index":8,"time_elapsed":395597,"internal_node_id":"0.0-4.0-4.0","task_version":"0.2"},{"trial_type":"call-function","trial_index":9,"time_elapsed":395603,"internal_node_id":"0.0-5.0","task_version":"0.2"},{"view_history":"[{\"page_index\":0,\"viewing_time\":2475.059999997029},{\"page_index\":1,\"viewing_time\":5706.170000019483}]","rt":8181.494999997085,"trial_type":"instructions","trial_index":10,"time_elapsed":403785,"internal_node_id":"0.0-6.0","task_version":"0.2"},{"response_times":[1487.6649999932852,407.83499999088235,467.8050000220537,460.2350000059232,3351.8349999794737],"keys_pressed":["rightarrow","leftarrow","leftarrow","rightarrow","rightarrow"],"horizon":5,"forced_choices":["rightarrow","leftarrow","leftarrow","rightarrow"],"right_color":"orange","left_color":"lightblue","left_mu":60,"right_mu":64,"left_numbers":[67,57,71,56,68],"right_numbers":[73,75,60,57,66],"points_earned":324,"phase":"task","trial_type":"horizons-task","trial_index":11,"time_elapsed":411467,"internal_node_id":"0.0-7.0","task_version":"0.2"},{"response_times":[764.6550000063144,392.04499998595566,447.63500001863576,432.12499999208376,1632.2050000017043],"keys_pressed":["leftarrow","rightarrow","rightarrow","rightarrow","rightarrow"],"horizon":5,"forced_choices":["leftarrow","rightarrow","rightarrow","rightarrow"],"right_color":"orange","left_color":"lightblue","left_mu":40,"right_mu":70,"left_numbers":[51,28,48,58,33],"right_numbers":[57,78,61,66,76],"points_earned":332,"phase":"task","trial_type":"horizons-task","trial_index":12,"time_elapsed":416638,"internal_node_id":"0.0-8.0","task_version":"0.2"},{"response_times":[640.6849999912083,416.1149999999907,471.85499998158775,383.86000000173226,1952.080000017304],"keys_pressed":["rightarrow","rightarrow","leftarrow","rightarrow","leftarrow"],"horizon":5,"forced_choices":["rightarrow","rightarrow","leftarrow","rightarrow"],"right_color":"orange","left_color":"lightblue","left_mu":40,"right_mu":36,"left_numbers":[38,31,36,45,43],"right_numbers":[25,39,48,36,44],"points_earned":179,"phase":"task","trial_type":"horizons-task","trial_index":13,"time_elapsed":422006,"internal_node_id":"0.0-9.0","task_version":"0.2"},{"response_times":[729.0149999898858,423.89999999431893,399.83500001835637,368.0750000057742,343.75500000896864,848.4049999970011,447.8299999900628,519.7549999866169,503.9450000040233,1824.1149999957997],"keys_pressed":["leftarrow","leftarrow","leftarrow","rightarrow","leftarrow","rightarrow","rightarrow","leftarrow","rightarrow","leftarrow"],"horizon":10,"forced_choices":["leftarrow","leftarrow","leftarrow","rightarrow"],"right_color":"lightblue","left_color":"orange","left_mu":60,"right_mu":56,"left_numbers":[65,63,53,55,51,67,58,54,59,58],"right_numbers":[58,61,54,51,52,67,54,65,58,55],"points_earned":574,"phase":"task","trial_type":"horizons-task","trial_index":14,"time_elapsed":429918,"internal_node_id":"0.0-10.0","task_version":"0.2"},{"response_times":[832.4399999983143,440.2950000076089,375.9050000226125,459.85499999369495,1935.8700000157114,2096.3749999937136,679.6100000210572,952.1999999997206,591.7199999967124,576.0099999897648],"keys_pressed":["rightarrow","leftarrow","rightarrow","rightarrow","leftarrow","leftarrow","rightarrow","leftarrow","rightarrow","rightarrow"],"horizon":10,"forced_choices":["rightarrow","leftarrow","rightarrow","rightarrow"],"right_color":"orange","left_color":"lightblue","left_mu":40,"right_mu":48,"left_numbers":[38,47,50,58,51,39,37,35,40,38],"right_numbers":[53,56,44,58,49,50,44,38,56,48],"points_earned":475,"phase":"task","trial_type":"horizons-task","trial_index":15,"time_elapsed":440380,"internal_node_id":"0.0-11.0","task_version":"0.2"},{"response_times":[655.2899999951478,535.7650000078138,487.7449999912642,800.2350000024308,1560.0600000179838],"keys_pressed":["leftarrow","leftarrow","rightarrow","leftarrow","leftarrow"],"horizon":5,"forced_choices":["leftarrow","leftarrow","rightarrow","leftarrow"],"right_color":"orange","left_color":"lightblue","left_mu":60,"right_mu":52,"left_numbers":[52,74,65,58,56],"right_numbers":[56,64,60,42,48],"points_earned":300,"phase":"task","trial_type":"horizons-task","trial_index":16,"time_elapsed":445922,"internal_node_id":"0.0-12.0","task_version":"0.2"},{"response_times":[538.4699999995064,454.82000001356937,431.87999998917803,471.9900000200141,752.6950000028592],"keys_pressed":["leftarrow","leftarrow","rightarrow","leftarrow","rightarrow"],"horizon":5,"forced_choices":["leftarrow","leftarrow","rightarrow","leftarrow"],"right_color":"lightblue","left_color":"orange","left_mu":60,"right_mu":80,"left_numbers":[48,58,41,37,56],"right_numbers":[68,92,64,79,80],"points_earned":287,"phase":"task","trial_type":"horizons-task","trial_index":17,"time_elapsed":450075,"internal_node_id":"0.0-13.0","task_version":"0.2"},{"response_times":[712.4349999940023,407.81000000424683,472.2300000139512,439.69500000821427,440.15999999828637,2472.0049999887124,527.8700000199024,655.7899999897927,560.1050000113901,495.6999999994878],"keys_pressed":["rightarrow","leftarrow","leftarrow","rightarrow","leftarrow","leftarrow","rightarrow","rightarrow","leftarrow","rightarrow"],"horizon":10,"forced_choices":["rightarrow","leftarrow","leftarrow","rightarrow"],"right_color":"orange","left_color":"lightblue","left_mu":60,"right_mu":64,"left_numbers":[55,69,47,50,69,52,57,66,70,58],"right_numbers":[62,75,65,55,61,67,67,68,62,63],"points_earned":622,"phase":"task","trial_type":"horizons-task","trial_index":18,"time_elapsed":458762,"internal_node_id":"0.0-14.0","task_version":"0.2"},{"response_times":[545.0150000106078,360.06500001531094,440.1699999871198,443.95499999518506,1303.4000000043306,832.1599999908358,536.2399999867193,487.97499999636784,431.8550000025425,447.8999999992084],"keys_pressed":["leftarrow","rightarrow","rightarrow","rightarrow","leftarrow","leftarrow","leftarrow","leftarrow","leftarrow","leftarrow"],"horizon":10,"forced_choices":["leftarrow","rightarrow","rightarrow","rightarrow"],"right_color":"orange","left_color":"lightblue","left_mu":60,"right_mu":30,"left_numbers":[74,64,56,60,65,53,61,62,51,49],"right_numbers":[28,25,20,30,17,27,25,32,42,41],"points_earned":490,"phase":"task","trial_type":"horizons-task","trial_index":19,"time_elapsed":466095,"internal_node_id":"0.0-15.0","task_version":"0.2"},{"response_times":[663.9250000007451,815.5749999859836,576.1099999945145,448.1049999885727,1168.0599999963306],"keys_pressed":["rightarrow","rightarrow","leftarrow","leftarrow","rightarrow"],"horizon":5,"forced_choices":["rightarrow","rightarrow","leftarrow","leftarrow"],"right_color":"lightblue","left_color":"orange","left_mu":40,"right_mu":60,"left_numbers":[44,41,48,40,34],"right_numbers":[58,68,60,67,63],"points_earned":277,"phase":"task","trial_type":"horizons-task","trial_index":20,"time_elapsed":471270,"internal_node_id":"0.0-16.0","task_version":"0.2"},{"response_times":[552.1899999876041,384.5949999813456,463.3849999809172,759.7100000130013,2344.2400000058115],"keys_pressed":["leftarrow","rightarrow","rightarrow","leftarrow","leftarrow"],"horizon":5,"forced_choices":["leftarrow","rightarrow","rightarrow","leftarrow"],"right_color":"lightblue","left_color":"orange","left_mu":60,"right_mu":80,"left_numbers":[59,59,65,79,75],"right_numbers":[71,80,79,87,76],"points_earned":372,"phase":"task","trial_type":"horizons-task","trial_index":21,"time_elapsed":477278,"internal_node_id":"0.0-17.0","task_version":"0.2"},{"response_times":[624.470000009751,379.61999999242835,356.23999999370426,431.93500000052154,1616.024999995716],"keys_pressed":["rightarrow","leftarrow","rightarrow","rightarrow","leftarrow"],"horizon":5,"forced_choices":["rightarrow","leftarrow","rightarrow","rightarrow"],"right_color":"orange","left_color":"lightblue","left_mu":40,"right_mu":48,"left_numbers":[47,41,31,37,32],"right_numbers":[47,34,47,46,43],"points_earned":213,"phase":"task","trial_type":"horizons-task","trial_index":22,"time_elapsed":482190,"internal_node_id":"0.0-18.0","task_version":"0.2"},{"response_times":[501.56000000424683,343.5450000106357,340.07999999448657,267.83999998588115,380.1099999982398,1488.050000014482,643.8999999954831,575.9050000051502,471.8949999951292,568.0699999793433],"keys_pressed":["leftarrow","rightarrow","leftarrow","rightarrow","leftarrow","rightarrow","leftarrow","leftarrow","rightarrow","leftarrow"],"horizon":10,"forced_choices":["leftarrow","rightarrow","leftarrow","rightarrow"],"right_color":"lightblue","left_color":"orange","left_mu":40,"right_mu":20,"left_numbers":[34,37,42,46,35,45,36,49,39,30],"right_numbers":[30,13,14,26,30,15,21,17,18,20],"points_earned":298,"phase":"task","trial_type":"horizons-task","trial_index":23,"time_elapsed":489274,"internal_node_id":"0.0-19.0","task_version":"0.2"},{"response_times":[552.7750000183005,384.7749999840744,430.95999999786727,448.0900000198744,711.6800000076182],"keys_pressed":["leftarrow","rightarrow","rightarrow","rightarrow","leftarrow"],"horizon":5,"forced_choices":["leftarrow","rightarrow","rightarrow","rightarrow"],"right_color":"orange","left_color":"lightblue","left_mu":60,"right_mu":30,"left_numbers":[69,39,60,60,62],"right_numbers":[22,23,28,27,16],"points_earned":209,"phase":"task","trial_type":"horizons-task","trial_index":24,"time_elapsed":493306,"internal_node_id":"0.0-20.0","task_version":"0.2"},{"response_times":[911.919999984093,407.8299999819137,447.92999999481253,455.98500000778586,1335.9200000122655,600.1800000085495,927.7149999979883,984.119999979157,527.925000002142,495.7949999952689],"keys_pressed":["rightarrow","rightarrow","leftarrow","leftarrow","leftarrow","leftarrow","rightarrow","rightarrow","leftarrow","leftarrow"],"horizon":10,"forced_choices":["rightarrow","rightarrow","leftarrow","leftarrow"],"right_color":"orange","left_color":"lightblue","left_mu":40,"right_mu":36,"left_numbers":[43,39,44,41,35,35,26,35,33,44],"right_numbers":[31,22,36,44,21,37,51,22,17,27],"points_earned":358,"phase":"task","trial_type":"horizons-task","trial_index":25,"time_elapsed":501905,"internal_node_id":"0.0-21.0","task_version":"0.2"},{"response_times":[465.23999999044463,319.8250000132248,320.11999998940155,303.9149999967776,1287.994999991497,479.9699999857694,368.10500000137836,335.8449999941513,216.1049999995157,224.51500000897795],"keys_pressed":["leftarrow","rightarrow","leftarrow","rightarrow","rightarrow","rightarrow","rightarrow","rightarrow","rightarrow","rightarrow"],"horizon":10,"forced_choices":["leftarrow","rightarrow","leftarrow","rightarrow"],"right_color":"orange","left_color":"lightblue","left_mu":60,"right_mu":68,"left_numbers":[53,49,57,50,59,43,60,59,55,60],"right_numbers":[63,80,66,75,71,67,65,76,58,69],"points_earned":671,"phase":"task","trial_type":"horizons-task","trial_index":26,"time_elapsed":507730,"internal_node_id":"0.0-22.0","task_version":"0.2"},{"response_times":[660.7399999920744,307.84000002313405,407.8250000020489,280.0050000078045,356.8799999775365,1720.3699999954551,742.8399999917019,839.9799999897368,583.7400000018533,567.9999999993015],"keys_pressed":["leftarrow","rightarrow","leftarrow","rightarrow","leftarrow","rightarrow","rightarrow","leftarrow","rightarrow","rightarrow"],"horizon":10,"forced_choices":["leftarrow","rightarrow","leftarrow","rightarrow"],"right_color":"lightblue","left_color":"orange","left_mu":40,"right_mu":44,"left_numbers":[44,38,33,34,35,38,50,37,43,36],"right_numbers":[41,48,41,31,17,35,46,42,47,36],"points_earned":392,"phase":"task","trial_type":"horizons-task","trial_index":27,"time_elapsed":515702,"internal_node_id":"0.0-23.0","task_version":"0.2"},{"response_times":[720.6000000005588,391.98999997461215,528.0050000001211,455.78000001842156,383.849999983795,711.9949999905657,752.0550000190269,495.8350000088103,560.0699999777135,471.96500000427477],"keys_pressed":["rightarrow","leftarrow","leftarrow","leftarrow","rightarrow","leftarrow","rightarrow","leftarrow","leftarrow","leftarrow"],"horizon":10,"forced_choices":["rightarrow","leftarrow","leftarrow","leftarrow"],"right_color":"lightblue","left_color":"orange","left_mu":60,"right_mu":48,"left_numbers":[56,50,45,70,54,47,57,62,62,57],"right_numbers":[49,30,61,50,36,58,39,46,49,32],"points_earned":517,"phase":"task","trial_type":"horizons-task","trial_index":28,"time_elapsed":522678,"internal_node_id":"0.0-24.0","task_version":"0.2"},{"response_times":[440.80000001122244,407.8049999952782,455.8650000253692,392.0849999994971,447.680000012042,520.2550000103656,471.92000001086853,328.0650000087917,199.71000001532957,175.8700000063982],"keys_pressed":["rightarrow","rightarrow","leftarrow","rightarrow","leftarrow","rightarrow","rightarrow","rightarrow","rightarrow","rightarrow"],"horizon":10,"forced_choices":["rightarrow","rightarrow","leftarrow","rightarrow"],"right_color":"orange","left_color":"lightblue","left_mu":60,"right_mu":90,"left_numbers":[41,48,65,57,58,45,44,73,48,52],"right_numbers":[96,111,99,68,95,92,82,85,86,91],"points_earned":834,"phase":"task","trial_type":"horizons-task","trial_index":29,"time_elapsed":528021,"internal_node_id":"0.0-25.0","task_version":"0.2"},{"response_times":[457.4150000116788,632.1199999947567,448.0299999995623,595.8899999968708,743.8350000011269],"keys_pressed":["rightarrow","rightarrow","rightarrow","leftarrow","leftarrow"],"horizon":5,"forced_choices":["rightarrow","rightarrow","rightarrow","leftarrow"],"right_color":"lightblue","left_color":"orange","left_mu":40,"right_mu":20,"left_numbers":[45,43,31,38,39],"right_numbers":[19,14,15,14,19],"points_earned":125,"phase":"task","trial_type":"horizons-task","trial_index":30,"time_elapsed":532402,"internal_node_id":"0.0-26.0","task_version":"0.2"},{"response_times":[448.4799999918323,504.0549999976065,347.6000000082422,400.11499999673106,1188.2250000198837,399.7699999890756,695.9849999984726,167.650000017602,184.01500000618398,168.34999999264255],"keys_pressed":["rightarrow","leftarrow","rightarrow","leftarrow","leftarrow","leftarrow","leftarrow","leftarrow","leftarrow","leftarrow"],"horizon":10,"forced_choices":["rightarrow","leftarrow","rightarrow","leftarrow"],"right_color":"orange","left_color":"lightblue","left_mu":60,"right_mu":30,"left_numbers":[64,53,48,56,66,63,49,72,57,44],"right_numbers":[22,42,21,34,36,41,22,24,41,25],"points_earned":503,"phase":"task","trial_type":"horizons-task","trial_index":31,"time_elapsed":538410,"internal_node_id":"0.0-27.0","task_version":"0.2"},{"response_times":[512.445000000298,328.1100000021979,335.72999999159947,456.08499998343177,2088.324999989709],"keys_pressed":["rightarrow","leftarrow","rightarrow","rightarrow","leftarrow"],"horizon":5,"forced_choices":["rightarrow","leftarrow","rightarrow","rightarrow"],"right_color":"lightblue","left_color":"orange","left_mu":40,"right_mu":32,"left_numbers":[48,25,47,36,31],"right_numbers":[23,15,32,23,27],"points_earned":134,"phase":"task","trial_type":"horizons-task","trial_index":32,"time_elapsed":543634,"internal_node_id":"0.0-28.0","task_version":"0.2"},{"response_times":[561.4049999858253,254.6499999880325,568.0600000196137,432.12499999208376,367.8749999962747,664.0250000054948,368.7199999985751,791.1849999800324,287.96000001602806,359.9850000173319],"keys_pressed":["rightarrow","leftarrow","leftarrow","leftarrow","rightarrow","rightarrow","rightarrow","rightarrow","rightarrow","leftarrow"],"horizon":10,"forced_choices":["rightarrow","leftarrow","leftarrow","leftarrow"],"right_color":"orange","left_color":"lightblue","left_mu":60,"right_mu":68,"left_numbers":[55,69,61,54,57,56,63,49,57,65],"right_numbers":[73,84,59,61,72,54,66,67,63,57],"points_earned":644,"phase":"task","trial_type":"horizons-task","trial_index":33,"time_elapsed":549794,"internal_node_id":"0.0-29.0","task_version":"0.2"},{"response_times":[512.2600000177044,663.8550000207033,528.1700000050478,331.96999999927357,387.82000000355765,640.0400000275113,480.0550000218209,367.86000002757646,415.8000000170432,356.0750000178814],"keys_pressed":["leftarrow","leftarrow","rightarrow","leftarrow","rightarrow","rightarrow","leftarrow","rightarrow","rightarrow","rightarrow"],"horizon":10,"forced_choices":["leftarrow","leftarrow","rightarrow","leftarrow"],"right_color":"lightblue","left_color":"orange","left_mu":60,"right_mu":80,"left_numbers":[50,76,56,51,50,63,58,46,44,56],"right_numbers":[81,75,79,91,81,71,83,74,86,71],"points_earned":697,"phase":"task","trial_type":"horizons-task","trial_index":34,"time_elapsed":555982,"internal_node_id":"0.0-30.0","task_version":"0.2"},{"response_times":[508.9450000086799,411.9150000042282,428.025000001071,639.9350000137929,739.9399999994785],"keys_pressed":["rightarrow","rightarrow","leftarrow","leftarrow","leftarrow"],"horizon":5,"forced_choices":["rightarrow","rightarrow","leftarrow","leftarrow"],"right_color":"orange","left_color":"lightblue","left_mu":60,"right_mu":52,"left_numbers":[53,60,64,67,62],"right_numbers":[39,60,49,44,60],"points_earned":292,"phase":"task","trial_type":"horizons-task","trial_index":35,"time_elapsed":560214,"internal_node_id":"0.0-31.0","task_version":"0.2"},{"response_times":[416.1100000201259,392.35999999800697,463.87000000686385,368.17999999038875,359.97000001952983,719.8350000253413,560.1350000069942,487.9050000163261,672.1250000118744,591.599999985192],"keys_pressed":["rightarrow","leftarrow","leftarrow","rightarrow","leftarrow","rightarrow","rightarrow","rightarrow","rightarrow","leftarrow"],"horizon":10,"forced_choices":["rightarrow","leftarrow","leftarrow","rightarrow"],"right_color":"lightblue","left_color":"orange","left_mu":40,"right_mu":52,"left_numbers":[37,36,33,35,41,38,35,33,38,43],"right_numbers":[54,72,44,53,51,55,57,65,41,57],"points_earned":478,"phase":"task","trial_type":"horizons-task","trial_index":36,"time_elapsed":566749,"internal_node_id":"0.0-32.0","task_version":"0.2"},{"response_times":[16028.82999999565,344.0100000007078,383.80499999038875,376.9800000009127,615.0349999952596],"keys_pressed":["leftarrow","rightarrow","leftarrow","rightarrow","rightarrow"],"horizon":5,"forced_choices":["leftarrow","rightarrow","leftarrow","rightarrow"],"right_color":"orange","left_color":"lightblue","left_mu":60,"right_mu":68,"left_numbers":[56,69,57,53,47],"right_numbers":[65,61,75,70,62],"points_earned":306,"phase":"task","trial_type":"horizons-task","trial_index":37,"time_elapsed":586001,"internal_node_id":"0.0-33.0","task_version":"0.2"},{"response_times":[481.48499999661,343.8000000023749,416.83000000193715,350.8350000192877,928.1300000147894,391.80499999201857,463.5650000127498,216.4150000025984,167.87000000476837,159.95500001008622],"keys_pressed":["leftarrow","rightarrow","rightarrow","rightarrow","rightarrow","rightarrow","rightarrow","rightarrow","rightarrow","rightarrow"],"horizon":10,"forced_choices":["leftarrow","rightarrow","rightarrow","rightarrow"],"right_color":"orange","left_color":"lightblue","left_mu":40,"right_mu":70,"left_numbers":[28,33,26,37,39,54,31,53,48,48],"right_numbers":[69,54,83,70,73,77,60,62,66,53],"points_earned":626,"phase":"task","trial_type":"horizons-task","trial_index":38,"time_elapsed":591426,"internal_node_id":"0.0-34.0","task_version":"0.2"},{"response_times":[512.78000001912,439.9200000043493,375.67499998840503,600.0700000149664,815.9599999780767],"keys_pressed":["leftarrow","leftarrow","rightarrow","rightarrow","rightarrow"],"horizon":5,"forced_choices":["leftarrow","leftarrow","rightarrow","rightarrow"],"right_color":"orange","left_color":"lightblue","left_mu":60,"right_mu":72,"left_numbers":[68,65,56,73,50],"right_numbers":[70,64,71,84,73],"points_earned":361,"phase":"task","trial_type":"horizons-task","trial_index":39,"time_elapsed":595674,"internal_node_id":"0.0-35.0","task_version":"0.2"},{"response_times":[368.16000001272187,416.689999983646,319.5199999900069,407.7099999994971,760.180000012042],"keys_pressed":["rightarrow","leftarrow","rightarrow","leftarrow","leftarrow"],"horizon":5,"forced_choices":["rightarrow","leftarrow","rightarrow","leftarrow"],"right_color":"lightblue","left_color":"orange","left_mu":60,"right_mu":56,"left_numbers":[57,62,62,67,54],"right_numbers":[58,62,56,56,55],"points_earned":297,"phase":"task","trial_type":"horizons-task","trial_index":40,"time_elapsed":599449,"internal_node_id":"0.0-36.0","task_version":"0.2"},{"response_times":[440.73000000207685,399.91499998723157,471.929999999702,252.02000001445413,452.13499999954365,495.5749999789987,364.2200000176672,1732.030000013765,383.7150000035763,516.0350000078324],"keys_pressed":["rightarrow","rightarrow","leftarrow","rightarrow","leftarrow","leftarrow","rightarrow","rightarrow","leftarrow","leftarrow"],"horizon":10,"forced_choices":["rightarrow","rightarrow","leftarrow","rightarrow"],"right_color":"orange","left_color":"lightblue","left_mu":40,"right_mu":28,"left_numbers":[33,41,41,40,37,40,47,53,44,41],"right_numbers":[27,25,41,36,31,24,27,25,26,22],"points_earned":343,"phase":"task","trial_type":"horizons-task","trial_index":41,"time_elapsed":606461,"internal_node_id":"0.0-37.0","task_version":"0.2"},{"response_times":[473.150000005262,343.8099999912083,351.5849999967031,744.2849999933969,1167.6549999974668],"keys_pressed":["leftarrow","rightarrow","leftarrow","leftarrow","rightarrow"],"horizon":5,"forced_choices":["leftarrow","rightarrow","leftarrow","leftarrow"],"right_color":"lightblue","left_color":"orange","left_mu":40,"right_mu":44,"left_numbers":[37,37,39,34,45],"right_numbers":[17,40,35,61,42],"points_earned":192,"phase":"task","trial_type":"horizons-task","trial_index":42,"time_elapsed":611044,"internal_node_id":"0.0-38.0","task_version":"0.2"},{"response_times":[481.01000001770444,328.8699999975506,351.62999999010935,439.459999994142,1543.7849999871105,711.9450000172947,592.0250000199303,296.135000011418,191.86500000068918,968.2400000165217],"keys_pressed":["leftarrow","rightarrow","leftarrow","rightarrow","leftarrow","leftarrow","leftarrow","leftarrow","leftarrow","leftarrow"],"horizon":10,"forced_choices":["leftarrow","rightarrow","leftarrow","rightarrow"],"right_color":"lightblue","left_color":"orange","left_mu":60,"right_mu":40,"left_numbers":[50,54,57,60,62,62,63,54,69,61],"right_numbers":[45,39,40,57,49,39,48,35,32,38],"points_earned":574,"phase":"task","trial_type":"horizons-task","trial_index":43,"time_elapsed":618453,"internal_node_id":"0.0-39.0","task_version":"0.2"},{"response_times":[576.839999994263,351.7099999880884,704.0299999935087,2679.7800000058487,2975.9849999973085],"keys_pressed":["rightarrow","leftarrow","leftarrow","leftarrow","rightarrow"],"horizon":5,"forced_choices":["rightarrow","leftarrow","leftarrow","leftarrow"],"right_color":"lightblue","left_color":"orange","left_mu":60,"right_mu":48,"left_numbers":[73,67,60,47,62],"right_numbers":[49,33,49,50,55],"points_earned":278,"phase":"task","trial_type":"horizons-task","trial_index":44,"time_elapsed":627245,"internal_node_id":"0.0-40.0","task_version":"0.2"},{"response_times":[432.6699999801349,311.6849999933038,371.6899999999441,460.17000000574626,919.7200000053272],"keys_pressed":["leftarrow","rightarrow","leftarrow","rightarrow","leftarrow"],"horizon":5,"forced_choices":["leftarrow","rightarrow","leftarrow","rightarrow"],"right_color":"lightblue","left_color":"orange","left_mu":40,"right_mu":20,"left_numbers":[39,44,24,52,38],"right_numbers":[19,26,3,24,24],"points_earned":151,"phase":"task","trial_type":"horizons-task","trial_index":45,"time_elapsed":631245,"internal_node_id":"0.0-41.0","task_version":"0.2"},{"response_times":[756.7050000070594,335.90999999432825,383.7549999880139,464.07999997609295,1231.9950000091922],"keys_pressed":["rightarrow","leftarrow","rightarrow","leftarrow","leftarrow"],"horizon":5,"forced_choices":["rightarrow","leftarrow","rightarrow","leftarrow"],"right_color":"orange","left_color":"lightblue","left_mu":60,"right_mu":30,"left_numbers":[66,55,53,61,51],"right_numbers":[28,37,30,34,35],"points_earned":225,"phase":"task","trial_type":"horizons-task","trial_index":46,"time_elapsed":635922,"internal_node_id":"0.0-42.0","task_version":"0.2"},{"response_times":[528.1149999937043,400.77999999630265,487.32500002370216,775.9749999968335,999.6699999901466,567.8800000168849,672.1149999939371,1184.224999975413,575.7450000091922,471.8900000152644],"keys_pressed":["leftarrow","leftarrow","rightarrow","leftarrow","rightarrow","rightarrow","leftarrow","leftarrow","rightarrow","rightarrow"],"horizon":10,"forced_choices":["leftarrow","leftarrow","rightarrow","leftarrow"],"right_color":"lightblue","left_color":"orange","left_mu":40,"right_mu":60,"left_numbers":[41,41,38,35,43,43,51,44,35,41],"right_numbers":[45,69,61,59,56,54,57,47,56,65],"points_earned":504,"phase":"task","trial_type":"horizons-task","trial_index":47,"time_elapsed":644088,"internal_node_id":"0.0-43.0","task_version":"0.2"},{"response_times":[41961.36499999557,503.69499999214895,447.84000000800006,367.9499999852851,400.0850000011269],"keys_pressed":["leftarrow","rightarrow","rightarrow","leftarrow","rightarrow"],"horizon":5,"forced_choices":["leftarrow","rightarrow","rightarrow","leftarrow"],"right_color":"orange","left_color":"lightblue","left_mu":40,"right_mu":70,"left_numbers":[46,34,36,23,37],"right_numbers":[57,78,73,75,60],"points_earned":280,"phase":"task","trial_type":"horizons-task","trial_index":48,"time_elapsed":689273,"internal_node_id":"0.0-44.0","task_version":"0.2"},{"response_times":[463.50499999243766,439.8650000221096,352.0400000270456,376.09999999403954,320.57999999960884,511.13500000792556,1175.9599999932107,464.03500001179054,392.14999999967404,215.7500000030268],"keys_pressed":["rightarrow","rightarrow","rightarrow","leftarrow","rightarrow","rightarrow","leftarrow","rightarrow","rightarrow","rightarrow"],"horizon":10,"forced_choices":["rightarrow","rightarrow","rightarrow","leftarrow"],"right_color":"orange","left_color":"lightblue","left_mu":60,"right_mu":64,"left_numbers":[64,61,68,60,66,62,54,55,75,68],"right_numbers":[73,68,67,50,67,59,71,66,66,67],"points_earned":647,"phase":"task","trial_type":"horizons-task","trial_index":49,"time_elapsed":695488,"internal_node_id":"0.0-45.0","task_version":"0.2"},{"response_times":[512.5000000116415,456.1499999836087,439.97000000672415,383.7700000149198,1512.0250000036322,815.7749999954831,912.8599999821745,583.1150000158232,500.0500000023749,451.9250000012107],"keys_pressed":["leftarrow","rightarrow","rightarrow","rightarrow","leftarrow","rightarrow","leftarrow","rightarrow","leftarrow","leftarrow"],"horizon":10,"forced_choices":["leftarrow","rightarrow","rightarrow","rightarrow"],"right_color":"lightblue","left_color":"orange","left_mu":40,"right_mu":10,"left_numbers":[40,39,41,41,34,38,35,24,33,46],"right_numbers":[11,5,19,9,21,0,16,19,18,17],"points_earned":240,"phase":"task","trial_type":"horizons-task","trial_index":50,"time_elapsed":703559,"internal_node_id":"0.0-46.0","task_version":"0.2"},{"view_history":"[{\"page_index\":0,\"viewing_time\":2553.5500000114553},{\"page_index\":1,\"viewing_time\":2724.8099999851547}]","rt":5278.744999988703,"trial_type":"instructions","trial_index":51,"time_elapsed":708840,"internal_node_id":"0.0-47.0","task_version":"0.2"},{"response_times":[1177.5300000153948,344.79500001179986,375.17000001389533,352.0399999979418,360.09499998181127,583.8700000022072,888.249999989057,1519.8600000003353,199.87000001128763,207.76499999919906],"keys_pressed":["rightarrow","leftarrow","leftarrow","leftarrow","rightarrow","leftarrow","leftarrow","leftarrow","leftarrow","leftarrow"],"horizon":10,"forced_choices":["rightarrow","leftarrow","leftarrow","leftarrow"],"right_color":"lightblue","left_color":"orange","left_mu":40,"right_mu":52,"left_numbers":[49,42,35,54,37,30,36,38,47,37],"right_numbers":[49,50,46,50,53,50,58,42,60,48],"points_earned":421,"phase":"task","trial_type":"horizons-task","trial_index":52,"time_elapsed":716356,"internal_node_id":"0.0-48.0","task_version":"0.2"},{"response_times":[583.9649999979883,359.8900000215508,696.0149999940768,840.1999999769032,543.615000002319],"keys_pressed":["leftarrow","rightarrow","leftarrow","leftarrow","rightarrow"],"horizon":5,"forced_choices":["leftarrow","rightarrow","leftarrow","leftarrow"],"right_color":"orange","left_color":"lightblue","left_mu":60,"right_mu":72,"left_numbers":[59,64,61,41,63],"right_numbers":[73,81,75,77,77],"points_earned":319,"phase":"task","trial_type":"horizons-task","trial_index":53,"time_elapsed":720883,"internal_node_id":"0.0-49.0","task_version":"0.2"},{"response_times":[545.235000026878,407.7650000108406,432.1500000078231,455.8699999761302,448.1200000154786],"keys_pressed":["rightarrow","leftarrow","leftarrow","leftarrow","rightarrow"],"horizon":5,"forced_choices":["rightarrow","leftarrow","leftarrow","leftarrow"],"right_color":"lightblue","left_color":"orange","left_mu":40,"right_mu":52,"left_numbers":[25,25,39,49,41],"right_numbers":[51,48,55,43,48],"points_earned":212,"phase":"task","trial_type":"horizons-task","trial_index":54,"time_elapsed":724675,"internal_node_id":"0.0-50.0","task_version":"0.2"},{"response_times":[409.4350000086706,404.0800000075251,384.12000000244007,416.03999998187646,403.8299999956507,739.9449999793433,1152.2850000183098,247.43499999749474,232.1349999983795,224.0250000031665],"keys_pressed":["rightarrow","rightarrow","leftarrow","leftarrow","rightarrow","leftarrow","leftarrow","leftarrow","leftarrow","leftarrow"],"horizon":10,"forced_choices":["rightarrow","rightarrow","leftarrow","leftarrow"],"right_color":"orange","left_color":"lightblue","left_mu":60,"right_mu":52,"left_numbers":[61,54,60,65,49,68,63,62,66,63],"right_numbers":[58,56,70,64,68,55,59,29,51,41],"points_earned":629,"phase":"task","trial_type":"horizons-task","trial_index":55,"time_elapsed":730791,"internal_node_id":"0.0-51.0","task_version":"0.2"},{"response_times":[513.5000000009313,279.33999997912906,399.7899999958463,607.9650000028778,416.16500000236556,560.5949999880977,559.209999977611,239.89500000607222,167.73000001558103,159.99499999452382],"keys_pressed":["leftarrow","leftarrow","rightarrow","rightarrow","leftarrow","rightarrow","rightarrow","rightarrow","rightarrow","rightarrow"],"horizon":10,"forced_choices":["leftarrow","leftarrow","rightarrow","rightarrow"],"right_color":"orange","left_color":"lightblue","left_mu":60,"right_mu":90,"left_numbers":[56,60,55,48,53,64,54,67,65,64],"right_numbers":[86,85,78,81,84,91,94,103,85,90],"points_earned":791,"phase":"task","trial_type":"horizons-task","trial_index":56,"time_elapsed":736199,"internal_node_id":"0.0-52.0","task_version":"0.2"},{"response_times":[624.8049999994691,399.79500000481494,616.2550000008196,503.9450000040233,287.6600000017788,432.0900000166148,304.01500000152737,343.7749999866355,392.1649999974761,511.96500001242384],"keys_pressed":["leftarrow","rightarrow","rightarrow","leftarrow","rightarrow","rightarrow","rightarrow","rightarrow","rightarrow","rightarrow"],"horizon":10,"forced_choices":["leftarrow","rightarrow","rightarrow","leftarrow"],"right_color":"lightblue","left_color":"orange","left_mu":60,"right_mu":80,"left_numbers":[52,56,69,71,51,68,58,55,52,54],"right_numbers":[82,77,78,91,81,89,79,73,84,59],"points_earned":743,"phase":"task","trial_type":"horizons-task","trial_index":57,"time_elapsed":742120,"internal_node_id":"0.0-53.0","task_version":"0.2"},{"response_times":[535.8049999922514,400.18500000587665,319.9049999821,375.86000000010245,400.1750000170432,1471.8249999859836,656.025000003865,887.9299999971408,696.4800000132527,472.22000002511777],"keys_pressed":["rightarrow","leftarrow","rightarrow","leftarrow","rightarrow","leftarrow","rightarrow","rightarrow","rightarrow","leftarrow"],"horizon":10,"forced_choices":["rightarrow","leftarrow","rightarrow","leftarrow"],"right_color":"lightblue","left_color":"orange","left_mu":60,"right_mu":56,"left_numbers":[65,60,57,55,68,55,48,78,55,61],"right_numbers":[52,56,62,62,57,57,67,67,67,49],"points_earned":603,"phase":"task","trial_type":"horizons-task","trial_index":58,"time_elapsed":749840,"internal_node_id":"0.0-54.0","task_version":"0.2"},{"response_times":[708.375000016531,576.1800000036601,479.64000000501983,344.26000001258217,1055.8449999953154],"keys_pressed":["leftarrow","leftarrow","leftarrow","rightarrow","leftarrow"],"horizon":5,"forced_choices":["leftarrow","leftarrow","leftarrow","rightarrow"],"right_color":"lightblue","left_color":"orange","left_mu":60,"right_mu":56,"left_numbers":[67,53,57,56,59],"right_numbers":[69,69,50,51,67],"points_earned":287,"phase":"task","trial_type":"horizons-task","trial_index":59,"time_elapsed":754508,"internal_node_id":"0.0-55.0","task_version":"0.2"},{"response_times":[520.7200000004377,479.8249999876134,607.8350000025239,480.0900000263937,423.9850000012666,943.9699999929871,231.81499997735955,208.00499999313615,143.98500000243075,176.6150000039488],"keys_pressed":["rightarrow","leftarrow","leftarrow","rightarrow","leftarrow","leftarrow","leftarrow","leftarrow","leftarrow","leftarrow"],"horizon":10,"forced_choices":["rightarrow","leftarrow","leftarrow","rightarrow"],"right_color":"lightblue","left_color":"orange","left_mu":40,"right_mu":10,"left_numbers":[40,34,50,51,40,35,46,47,33,56],"right_numbers":[11,0,12,3,17,0,23,0,5,9],"points_earned":355,"phase":"task","trial_type":"horizons-task","trial_index":60,"time_elapsed":760228,"internal_node_id":"0.0-56.0","task_version":"0.2"},{"response_times":[464.8750000051223,495.6999999994878,463.94999997573905,455.87500001420267,527.925000002142],"keys_pressed":["rightarrow","rightarrow","leftarrow","rightarrow","rightarrow"],"horizon":5,"forced_choices":["rightarrow","rightarrow","leftarrow","rightarrow"],"right_color":"orange","left_color":"lightblue","left_mu":60,"right_mu":90,"left_numbers":[54,58,61,57,51],"right_numbers":[89,79,91,81,79],"points_earned":389,"phase":"task","trial_type":"horizons-task","trial_index":61,"time_elapsed":764139,"internal_node_id":"0.0-57.0","task_version":"0.2"},{"response_times":[561.2599999876693,367.66000001807697,391.9600000081118,528.1700000050478,328.0500000109896],"keys_pressed":["leftarrow","leftarrow","rightarrow","leftarrow","rightarrow"],"horizon":5,"forced_choices":["leftarrow","leftarrow","rightarrow","leftarrow"],"right_color":"lightblue","left_color":"orange","left_mu":40,"right_mu":60,"left_numbers":[31,26,34,37,41],"right_numbers":[61,73,55,57,63],"points_earned":212,"phase":"task","trial_type":"horizons-task","trial_index":62,"time_elapsed":767820,"internal_node_id":"0.0-58.0","task_version":"0.2"},{"response_times":[521.1249999993015,375.5550000059884,431.71500001335517,744.1150000086054,712.1050000132527,400.1550000102725,727.790000004461,175.90000000200234,231.87500002677552,1504.2649999959394],"keys_pressed":["rightarrow","leftarrow","rightarrow","rightarrow","leftarrow","leftarrow","leftarrow","leftarrow","leftarrow","leftarrow"],"horizon":10,"forced_choices":["rightarrow","leftarrow","rightarrow","rightarrow"],"right_color":"lightblue","left_color":"orange","left_mu":40,"right_mu":32,"left_numbers":[23,29,29,33,38,42,54,52,27,43],"right_numbers":[18,39,23,37,42,14,34,21,30,41],"points_earned":363,"phase":"task","trial_type":"horizons-task","trial_index":63,"time_elapsed":775148,"internal_node_id":"0.0-59.0","task_version":"0.2"},{"response_times":[513.2849999936298,355.7250000012573,516.0949999990407,476.3800000073388,695.6150000041816],"keys_pressed":["leftarrow","rightarrow","leftarrow","rightarrow","rightarrow"],"horizon":5,"forced_choices":["leftarrow","rightarrow","leftarrow","rightarrow"],"right_color":"lightblue","left_color":"orange","left_mu":40,"right_mu":44,"left_numbers":[40,32,37,41,26],"right_numbers":[42,49,39,51,39],"points_earned":216,"phase":"task","trial_type":"horizons-task","trial_index":64,"time_elapsed":779209,"internal_node_id":"0.0-60.0","task_version":"0.2"},{"response_times":[431.54499999945983,655.8300000033341,455.98999998765066,440.41000001016073,647.5950000167359,559.9000000220258,976.0149999929126,695.8699999959208,231.81500000646338,216.23499999986961],"keys_pressed":["rightarrow","rightarrow","rightarrow","leftarrow","rightarrow","leftarrow","leftarrow","leftarrow","leftarrow","leftarrow"],"horizon":10,"forced_choices":["rightarrow","rightarrow","rightarrow","leftarrow"],"right_color":"lightblue","left_color":"orange","left_mu":40,"right_mu":20,"left_numbers":[39,33,37,39,49,32,49,30,52,40],"right_numbers":[18,35,26,40,31,21,16,9,12,26],"points_earned":352,"phase":"task","trial_type":"horizons-task","trial_index":65,"time_elapsed":786023,"internal_node_id":"0.0-61.0","task_version":"0.2"},{"response_times":[521.390000008978,376.01000000722706,407.98499999800697,559.9349999974947,312.30000001960434],"keys_pressed":["leftarrow","leftarrow","rightarrow","rightarrow","leftarrow"],"horizon":5,"forced_choices":["leftarrow","leftarrow","rightarrow","rightarrow"],"right_color":"lightblue","left_color":"orange","left_mu":40,"right_mu":32,"left_numbers":[43,42,46,35,47],"right_numbers":[34,22,26,36,25],"points_earned":194,"phase":"task","trial_type":"horizons-task","trial_index":66,"time_elapsed":789703,"internal_node_id":"0.0-62.0","task_version":"0.2"},{"response_times":[473.42500000377186,424.60999998729676,407.3799999896437,1040.0850000150967,2055.9550000180025],"keys_pressed":["rightarrow","rightarrow","rightarrow","leftarrow","leftarrow"],"horizon":5,"forced_choices":["rightarrow","rightarrow","rightarrow","leftarrow"],"right_color":"orange","left_color":"lightblue","left_mu":60,"right_mu":64,"left_numbers":[65,54,50,68,60],"right_numbers":[63,66,59,60,68],"points_earned":316,"phase":"task","trial_type":"horizons-task","trial_index":67,"time_elapsed":795608,"internal_node_id":"0.0-63.0","task_version":"0.2"},{"response_times":[520.4399999929592,719.7449999803212,447.97499998821877,503.7399999855552,1040.225000004284],"keys_pressed":["rightarrow","rightarrow","leftarrow","rightarrow","leftarrow"],"horizon":5,"forced_choices":["rightarrow","rightarrow","leftarrow","rightarrow"],"right_color":"orange","left_color":"lightblue","left_mu":40,"right_mu":28,"left_numbers":[36,50,55,43,33],"right_numbers":[36,18,29,41,32],"points_earned":183,"phase":"task","trial_type":"horizons-task","trial_index":68,"time_elapsed":800344,"internal_node_id":"0.0-64.0","task_version":"0.2"},{"response_times":[508.82499999715947,568.055000010645,383.7949999724515,520.4500000108965,1335.4350000154227,576.2849999882746,192.66499998047948,182.88000000757165,168.0849999829661,239.9299999815412],"keys_pressed":["leftarrow","leftarrow","rightarrow","rightarrow","rightarrow","rightarrow","rightarrow","rightarrow","rightarrow","rightarrow"],"horizon":10,"forced_choices":["leftarrow","leftarrow","rightarrow","rightarrow"],"right_color":"orange","left_color":"lightblue","left_mu":60,"right_mu":72,"left_numbers":[62,58,61,60,51,67,53,46,55,62],"right_numbers":[77,79,70,52,68,76,72,75,64,72],"points_earned":669,"phase":"task","trial_type":"horizons-task","trial_index":69,"time_elapsed":806524,"internal_node_id":"0.0-65.0","task_version":"0.2"},{"response_times":[417.01500001363456,328.00500001758337,415.75000001466833,407.8299999819137,704.1400000161957,463.98000000044703,303.67500000284053,216.0299999814015,192.2449999838136,199.87500002025627],"keys_pressed":["rightarrow","rightarrow","leftarrow","rightarrow","leftarrow","leftarrow","leftarrow","leftarrow","leftarrow","leftarrow"],"horizon":10,"forced_choices":["rightarrow","rightarrow","leftarrow","rightarrow"],"right_color":"orange","left_color":"lightblue","left_mu":40,"right_mu":36,"left_numbers":[40,43,39,31,34,43,25,50,51,41],"right_numbers":[30,35,42,32,38,26,36,42,41,35],"points_earned":380,"phase":"task","trial_type":"horizons-task","trial_index":70,"time_elapsed":811675,"internal_node_id":"0.0-66.0","task_version":"0.2"},{"response_times":[433.54500000714324,271.91499999025837,711.570000014035,904.2149999877438,3144.155000016326],"keys_pressed":["leftarrow","rightarrow","rightarrow","leftarrow","leftarrow"],"horizon":5,"forced_choices":["leftarrow","rightarrow","rightarrow","leftarrow"],"right_color":"lightblue","left_color":"orange","left_mu":60,"right_mu":48,"left_numbers":[58,51,51,60,57],"right_numbers":[44,61,54,34,47],"points_earned":290,"phase":"task","trial_type":"horizons-task","trial_index":71,"time_elapsed":818643,"internal_node_id":"0.0-67.0","task_version":"0.2"},{"response_times":[474.1599999833852,343.0149999912828,448.15499999094754,319.80999998631887,368.0600000079721,799.9249999993481,631.9749999966007,183.98999999044463,191.980000003241,207.85000000614673],"keys_pressed":["leftarrow","rightarrow","rightarrow","leftarrow","rightarrow","leftarrow","leftarrow","leftarrow","leftarrow","leftarrow"],"horizon":10,"forced_choices":["leftarrow","rightarrow","rightarrow","leftarrow"],"right_color":"lightblue","left_color":"orange","left_mu":60,"right_mu":48,"left_numbers":[62,59,67,64,77,74,53,47,64,63],"right_numbers":[35,37,55,50,47,51,47,54,50,46],"points_earned":566,"phase":"task","trial_type":"horizons-task","trial_index":72,"time_elapsed":824115,"internal_node_id":"0.0-68.0","task_version":"0.2"},{"response_times":[484.77000001003034,331.8499999877531,484.119999979157,743.9350000058766,1079.8300000024028],"keys_pressed":["leftarrow","rightarrow","rightarrow","rightarrow","leftarrow"],"horizon":5,"forced_choices":["leftarrow","rightarrow","rightarrow","rightarrow"],"right_color":"lightblue","left_color":"orange","left_mu":40,"right_mu":10,"left_numbers":[35,22,39,44,30],"right_numbers":[3,10,10,7,16],"points_earned":92,"phase":"task","trial_type":"horizons-task","trial_index":73,"time_elapsed":828742,"internal_node_id":"0.0-69.0","task_version":"0.2"},{"response_times":[481.48499999661,311.5449999750126,376.0699999984354,415.6150000053458,1640.3899999859277,599.9750000191852,183.91500000143424,175.77500001061708,160.02000001026317,151.9749999861233],"keys_pressed":["leftarrow","rightarrow","leftarrow","leftarrow","rightarrow","rightarrow","rightarrow","rightarrow","rightarrow","rightarrow"],"horizon":10,"forced_choices":["leftarrow","rightarrow","leftarrow","leftarrow"],"right_color":"orange","left_color":"lightblue","left_mu":60,"right_mu":72,"left_numbers":[48,65,67,58,57,58,68,52,53,50],"right_numbers":[71,76,50,82,76,71,72,65,69,68],"points_earned":670,"phase":"task","trial_type":"horizons-task","trial_index":74,"time_elapsed":834743,"internal_node_id":"0.0-70.0","task_version":"0.2"},{"response_times":[448.37500000721775,408.545000012964,591.4749999938067,375.7949999999255,391.9799999857787,615.9549999865703,191.74999999813735,183.87500001699664,183.86499999905936,168.2100000034552],"keys_pressed":["rightarrow","leftarrow","leftarrow","rightarrow","leftarrow","leftarrow","leftarrow","leftarrow","leftarrow","leftarrow"],"horizon":10,"forced_choices":["rightarrow","leftarrow","leftarrow","rightarrow"],"right_color":"orange","left_color":"lightblue","left_mu":40,"right_mu":28,"left_numbers":[34,34,43,38,44,33,38,49,40,28],"right_numbers":[28,29,36,18,20,41,17,36,29,21],"points_earned":355,"phase":"task","trial_type":"horizons-task","trial_index":75,"time_elapsed":839807,"internal_node_id":"0.0-71.0","task_version":"0.2"},{"response_times":[432.8899999964051,327.85500001045875,328.1999999890104,431.79499998223037,559.8950000130571],"keys_pressed":["rightarrow","leftarrow","rightarrow","leftarrow","rightarrow"],"horizon":5,"forced_choices":["rightarrow","leftarrow","rightarrow","leftarrow"],"right_color":"orange","left_color":"lightblue","left_mu":40,"right_mu":48,"left_numbers":[39,45,42,41,37],"right_numbers":[52,54,54,41,40],"points_earned":232,"phase":"task","trial_type":"horizons-task","trial_index":76,"time_elapsed":843391,"internal_node_id":"0.0-72.0","task_version":"0.2"},{"response_times":[440.7350000110455,359.97000001952983,407.8999999910593,591.5950000053272,504.13999997545034],"keys_pressed":["rightarrow","leftarrow","leftarrow","rightarrow","leftarrow"],"horizon":5,"forced_choices":["rightarrow","leftarrow","leftarrow","rightarrow"],"right_color":"orange","left_color":"lightblue","left_mu":40,"right_mu":28,"left_numbers":[37,34,49,45,43],"right_numbers":[7,25,20,28,37],"points_earned":161,"phase":"task","trial_type":"horizons-task","trial_index":77,"time_elapsed":847199,"internal_node_id":"0.0-73.0","task_version":"0.2"},{"response_times":[644.7500000067521,488.0700000212528,603.9949999831151,851.8700000131503,1120.0250000110827,327.9200000106357,183.84500002139248,135.81500001600944,184.10000001313165,160.02999999909662],"keys_pressed":["rightarrow","rightarrow","leftarrow","leftarrow","rightarrow","rightarrow","rightarrow","rightarrow","rightarrow","rightarrow"],"horizon":10,"forced_choices":["rightarrow","rightarrow","leftarrow","leftarrow"],"right_color":"lightblue","left_color":"orange","left_mu":40,"right_mu":60,"left_numbers":[37,54,31,33,39,30,37,42,39,34],"right_numbers":[64,59,58,57,69,54,66,55,62,55],"points_earned":548,"phase":"task","trial_type":"horizons-task","trial_index":78,"time_elapsed":853403,"internal_node_id":"0.0-74.0","task_version":"0.2"},{"response_times":[584.9849999940488,503.740000014659,455.78499999828637,1072.4449999979697,615.6750000081956],"keys_pressed":["rightarrow","leftarrow","leftarrow","rightarrow","leftarrow"],"horizon":5,"forced_choices":["rightarrow","leftarrow","leftarrow","rightarrow"],"right_color":"lightblue","left_color":"orange","left_mu":40,"right_mu":10,"left_numbers":[42,22,34,46,35],"right_numbers":[11,20,5,0,25],"points_earned":102,"phase":"task","trial_type":"horizons-task","trial_index":79,"time_elapsed":858138,"internal_node_id":"0.0-75.0","task_version":"0.2"},{"response_times":[489.1349999816157,415.8400000014808,464.87499997601844,815.3400000010151,655.7500000053551],"keys_pressed":["leftarrow","leftarrow","rightarrow","rightarrow","rightarrow"],"horizon":5,"forced_choices":["leftarrow","leftarrow","rightarrow","rightarrow"],"right_color":"orange","left_color":"lightblue","left_mu":60,"right_mu":90,"left_numbers":[59,68,75,56,58],"right_numbers":[88,77,80,98,81],"points_earned":386,"phase":"task","trial_type":"horizons-task","trial_index":80,"time_elapsed":862484,"internal_node_id":"0.0-76.0","task_version":"0.2"},{"response_times":[503.87999997474253,376.00999997812323,527.7950000017881,416.1450000246987,872.8450000053272],"keys_pressed":["leftarrow","leftarrow","leftarrow","rightarrow","leftarrow"],"horizon":5,"forced_choices":["leftarrow","leftarrow","leftarrow","rightarrow"],"right_color":"lightblue","left_color":"orange","left_mu":60,"right_mu":40,"left_numbers":[57,60,60,66,57],"right_numbers":[43,35,35,43,32],"points_earned":277,"phase":"task","trial_type":"horizons-task","trial_index":81,"time_elapsed":866683,"internal_node_id":"0.0-77.0","task_version":"0.2"},{"response_times":[432.6149999978952,360.3550000116229,375.42499997653067,616.0600000002887,2115.829999995185],"keys_pressed":["rightarrow","rightarrow","leftarrow","leftarrow","rightarrow"],"horizon":5,"forced_choices":["rightarrow","rightarrow","leftarrow","leftarrow"],"right_color":"orange","left_color":"lightblue","left_mu":40,"right_mu":36,"left_numbers":[32,27,35,36,37],"right_numbers":[33,37,24,18,24],"points_earned":165,"phase":"task","trial_type":"horizons-task","trial_index":82,"time_elapsed":872087,"internal_node_id":"0.0-78.0","task_version":"0.2"},{"response_times":[476.3749999983702,395.66999999806285,428.06500001461245,404.03500001411885,479.93999999016523],"keys_pressed":["rightarrow","leftarrow","leftarrow","rightarrow","rightarrow"],"horizon":5,"forced_choices":["rightarrow","leftarrow","leftarrow","rightarrow"],"right_color":"lightblue","left_color":"orange","left_mu":40,"right_mu":52,"left_numbers":[42,33,28,39,48],"right_numbers":[65,53,42,50,56],"points_earned":232,"phase":"task","trial_type":"horizons-task","trial_index":83,"time_elapsed":875774,"internal_node_id":"0.0-79.0","task_version":"0.2"},{"response_times":[537.465000001248,335.70500000496395,416.1900000181049,519.5150000217836,696.2599999969825,711.7900000012014,168.01500000292435,175.97999999998137,159.9350000033155,183.43499998445623],"keys_pressed":["leftarrow","leftarrow","rightarrow","leftarrow","leftarrow","leftarrow","leftarrow","leftarrow","leftarrow","leftarrow"],"horizon":10,"forced_choices":["leftarrow","leftarrow","rightarrow","leftarrow"],"right_color":"orange","left_color":"lightblue","left_mu":60,"right_mu":52,"left_numbers":[62,60,59,60,68,55,67,64,55,58],"right_numbers":[31,36,52,44,56,42,59,57,54,50],"points_earned":601,"phase":"task","trial_type":"horizons-task","trial_index":84,"time_elapsed":881182,"internal_node_id":"0.0-80.0","task_version":"0.2"},{"response_times":[496.99000001419336,311.93500000517815,383.9999999909196,600.1149999792688,407.74499997496605,576.759999996284,182.96000000555068,200.15999997849576,183.95000000600703,175.81499999505468],"keys_pressed":["leftarrow","leftarrow","leftarrow","rightarrow","leftarrow","leftarrow","leftarrow","leftarrow","leftarrow","leftarrow"],"horizon":10,"forced_choices":["leftarrow","leftarrow","leftarrow","rightarrow"],"right_color":"lightblue","left_color":"orange","left_mu":60,"right_mu":40,"left_numbers":[47,62,66,70,62,50,40,69,66,50],"right_numbers":[39,44,46,49,40,40,31,37,33,38],"points_earned":561,"phase":"task","trial_type":"horizons-task","trial_index":85,"time_elapsed":886206,"internal_node_id":"0.0-81.0","task_version":"0.2"},{"response_times":[401.3850000046659,320.4799999948591,367.1700000122655,735.9149999974761,1335.865000000922,231.79499999969266,176.01500000455417,160.12000001501292,167.9299999959767,839.9749999807682],"keys_pressed":["leftarrow","rightarrow","leftarrow","leftarrow","leftarrow","leftarrow","leftarrow","leftarrow","leftarrow","leftarrow"],"horizon":10,"forced_choices":["leftarrow","rightarrow","leftarrow","leftarrow"],"right_color":"lightblue","left_color":"orange","left_mu":40,"right_mu":44,"left_numbers":[52,40,21,40,32,40,37,40,26,41],"right_numbers":[41,43,42,56,58,50,52,34,41,52],"points_earned":372,"phase":"task","trial_type":"horizons-task","trial_index":86,"time_elapsed":892447,"internal_node_id":"0.0-82.0","task_version":"0.2"},{"response_times":[500.8300000044983,307.7800000028219,524.0149999735877,532.0000000065193,855.9899999818299],"keys_pressed":["rightarrow","leftarrow","leftarrow","leftarrow","leftarrow"],"horizon":5,"forced_choices":["rightarrow","leftarrow","leftarrow","leftarrow"],"right_color":"orange","left_color":"lightblue","left_mu":60,"right_mu":68,"left_numbers":[73,66,67,71,63],"right_numbers":[63,66,79,70,67],"points_earned":330,"phase":"task","trial_type":"horizons-task","trial_index":87,"time_elapsed":896671,"internal_node_id":"0.0-83.0","task_version":"0.2"},{"response_times":[633.2849999889731,411.6150000190828,384.4700000190642,375.4849999968428,944.0349999931641,352.03000000910833,175.6749999767635,143.85500000207685,152.0299999974668,143.89999999548309],"keys_pressed":["rightarrow","leftarrow","rightarrow","leftarrow","rightarrow","rightarrow","rightarrow","rightarrow","rightarrow","rightarrow"],"horizon":10,"forced_choices":["rightarrow","leftarrow","rightarrow","leftarrow"],"right_color":"orange","left_color":"lightblue","left_mu":40,"right_mu":48,"left_numbers":[51,37,50,48,41,50,40,38,34,43],"right_numbers":[56,39,37,63,45,42,47,48,57,50],"points_earned":467,"phase":"task","trial_type":"horizons-task","trial_index":88,"time_elapsed":901890,"internal_node_id":"0.0-84.0","task_version":"0.2"},{"response_times":[521.3149999908637,343.82999999797903,560.1850000093691,623.9800000039395,568.7549999856856,383.10000000637956,175.86000001756474,151.74500001012348,144.11500000278465,152.13000000221655],"keys_pressed":["leftarrow","rightarrow","rightarrow","leftarrow","rightarrow","rightarrow","rightarrow","rightarrow","rightarrow","rightarrow"],"horizon":10,"forced_choices":["leftarrow","rightarrow","rightarrow","leftarrow"],"right_color":"orange","left_color":"lightblue","left_mu":40,"right_mu":70,"left_numbers":[43,38,30,44,44,36,52,19,35,35],"right_numbers":[85,77,68,74,65,69,61,74,59,70],"points_earned":630,"phase":"task","trial_type":"horizons-task","trial_index":89,"time_elapsed":907020,"internal_node_id":"0.0-85.0","task_version":"0.2"},{"response_times":[616.1200000206009,440.0150000001304,416.54499998549,495.3650000097696,1607.895000022836,2319.7849999996834,496.6849999909755,175.0750000064727,167.8949999914039,200.01499998033978],"keys_pressed":["leftarrow","leftarrow","rightarrow","rightarrow","rightarrow","leftarrow","leftarrow","leftarrow","leftarrow","leftarrow"],"horizon":10,"forced_choices":["leftarrow","leftarrow","rightarrow","rightarrow"],"right_color":"lightblue","left_color":"orange","left_mu":40,"right_mu":32,"left_numbers":[32,42,45,19,41,46,47,43,38,38],"right_numbers":[46,39,38,32,22,20,46,26,15,40],"points_earned":378,"phase":"task","trial_type":"horizons-task","trial_index":90,"time_elapsed":915459,"internal_node_id":"0.0-86.0","task_version":"0.2"},{"response_times":[504.625000001397,324.02999998885207,380.219999991823,399.7149999777321,576.2249999970663],"keys_pressed":["leftarrow","rightarrow","leftarrow","rightarrow","leftarrow"],"horizon":5,"forced_choices":["leftarrow","rightarrow","leftarrow","rightarrow"],"right_color":"lightblue","left_color":"orange","left_mu":60,"right_mu":40,"left_numbers":[60,65,77,56,50],"right_numbers":[53,29,59,50,36],"points_earned":266,"phase":"task","trial_type":"horizons-task","trial_index":91,"time_elapsed":919147,"internal_node_id":"0.0-87.0","task_version":"0.2"},{"rt":15331.950000021607,"responses":{"age":"32","gender-categorical":"Female","gender-free-response":"","ethnicity":"Not Hispanic or Latino","race":["Asian"],"language":"Yes","fluency":"Very well"},"survey":"demographics","trial_type":"survey-demo","trial_index":92,"time_elapsed":934483,"internal_node_id":"0.0-88.0","task_version":"0.2"},{"rt":42941.40499999048,"responses":{"difficulty":"5","fun":"4","clarity":"5","strategy":"I tried to find a pattern on payout and see whether the previous 4 patterns affect the rest of the pay out of the machine.","feedback":"Thank you for the survey!"},"survey":"debrief","trial_type":"survey-debrief","trial_index":93,"time_elapsed":977431,"internal_node_id":"0.0-89.0","task_version":"0.2","interactions":"[{\"event\":\"blur\",\"trial\":37,\"time\":569011},{\"event\":\"focus\",\"trial\":37,\"time\":580220}]"}]