[{"view_history":"[{\"page_index\":0,\"viewing_time\":5386.979999952018}]","rt":5388.455000007525,"trial_type":"instructions","trial_index":0,"time_elapsed":5428,"internal_node_id":"0.0-0.0","task_version":"0.2"},{"item_order":[9,0,5,7,8,12,4,6,11,10,3,2,1],"responses":{"Q10":"1","Q01":"1","Q06":"1","Q08":"0","Q09":"0","Q13":"4","Q05":"1","Q07":"1","Q12":"0","Q11":"3","Q04":"4","Q03":"0","Q02":"0"},"radio_events":[32081.47000009194,46196.475000004284,59905.00000002794,85907.29000000283,88724.1150001064,97760.08999999613,102751.15500006359,113194.03500005137,158256.01000001188,163192.2650000779,166771.47000003606,173895.15500003472,181797.48500010464,199831.15000010002],"key_events":[],"mouse_events":[0.46500004827976227,32081.47000009194,46196.475000004284,59905.00000002794,85907.29000000283,88724.1150001064,97760.08999999613,102751.15500006359,113194.03500005137,156536.29499999806,158256.01000001188,163192.2650000779,166771.47000003606,170232.11000009906,173895.15500003472,181797.48500010464,182996.29500007723,199831.15000010002,203902.45000005234],"rt":203907.57999999914,"survey":"ius12","trial_type":"survey-template","trial_index":1,"time_elapsed":209366,"internal_node_id":"0.0-1.0","task_version":"0.2"},{"item_order":[5,8,14,10,6,0,4,7,2,12,9,16,15,3,13,11,1],"responses":{"Q06":"2","Q09":"2","Q15":"0","Q11":"1","Q07":"0","Q01":"2","Q05":"0","Q08":"3","Q03":"2","Q13":"0","Q10":"1","Q17":"0","Q16":"0","Q04":"0","Q14":"1","Q12":"0","Q02":"0"},"radio_events":[23139.685000060126,26951.46000001114,29284.020000020973,34610.33000005409,37380.05500007421,43455.58000006713,46846.46500006784,52176.96000006981,55864.200000069104,60292.80000005383,64144.3900000304,69426.93499999586,73111.35000002105,75472.00000006706,77612.14500002097,79347.80000010505,81872.71000002511,84217.51000010408,85131.10500003677],"key_events":[],"mouse_events":[23139.685000060126,26951.46000001114,29284.020000020973,34610.33000005409,37380.05500007421,43455.58000006713,46846.46500006784,51058.670000056736,52176.96000006981,55864.200000069104,59050.50000001211,60292.80000005383,64144.3900000304,69426.93499999586,73111.35000002105,75472.00000006706,77612.14500002097,79347.80000010505,81872.71000002511,84217.51000010408,85131.10500003677,87204.06500005629],"rt":87209.94000008795,"survey":"pswq","trial_type":"survey-template","trial_index":2,"time_elapsed":296590,"internal_node_id":"0.0-2.0","task_version":"0.2"},{"item_order":[2,8,7,1,11,13,9,10,0,3,12,4,5,14,6,15],"responses":{"Q03":"3","Q09":"3","Q08":"4","Q02":"4","Q12":"4","Q14":"4","Q10":"1","Q11":"1","Q01":"1","Q04":"0","Q13":"4","Q05":"3","Q06":"3","Q15":"1","Q07":"3","Q16":"5"},"radio_events":[63095.30000004452,68477.46000008192,73899.18000006583,77413.47500006668,80933.53000003844,90660.16500000842,94695.090000052,101178.39999997523,107177.52999998629,114899.25000001676,117612.19000001438,124056.82499997783,128432.20999999903,133140.69500006735,138357.5650000712,144306.67000007816],"key_events":[],"mouse_events":[63095.30000004452,68477.46000008192,73899.18000006583,77413.47500006668,80933.53000003844,90660.16500000842,94695.090000052,101178.39999997523,107177.52999998629,114899.25000001676,117612.19000001438,124056.82499997783,128432.20999999903,133140.69500006735,138357.5650000712,144306.67000007816,145613.645000034],"rt":145636.30999997258,"survey":"nfc","trial_type":"survey-template","trial_index":3,"time_elapsed":442247,"internal_node_id":"0.0-3.0","task_version":"0.2"},{"view_history":"[{\"page_index\":0,\"viewing_time\":42935.16499991529},{\"page_index\":1,\"viewing_time\":6434.255000087433},{\"page_index\":2,\"viewing_time\":10540.764999925159},{\"page_index\":3,\"viewing_time\":13488.935000030324},{\"page_index\":4,\"viewing_time\":8775.314999977127},{\"page_index\":5,\"viewing_time\":3931.8200000561774},{\"page_index\":6,\"viewing_time\":6195.130000007339},{\"page_index\":7,\"viewing_time\":11322.394999908283},{\"page_index\":8,\"viewing_time\":5720.445000100881},{\"page_index\":9,\"viewing_time\":3110.229999991134}]","rt":112464.68499989714,"trial_type":"instructions","trial_index":4,"time_elapsed":554748,"internal_node_id":"0.0-4.0-0.0","task_version":"0.2"},{"response_times":[1800.9200000669807,1368.9399999566376,469.5549999596551,624.0550000220537,1304.64500002563],"keys_pressed":["rightarrow","leftarrow","rightarrow","rightarrow","rightarrow"],"horizon":5,"forced_choices":["rightarrow","leftarrow","rightarrow","rightarrow"],"right_color":"lightblue","left_color":"orange","left_mu":40,"right_mu":20,"left_numbers":[41,29,38,46,28],"right_numbers":[30,11,14,7,13],"points_earned":93,"phase":"practice","trial_type":"horizons-task","trial_index":5,"time_elapsed":561861,"internal_node_id":"0.0-4.0-1.0","task_version":"0.2"},{"response_times":[1237.2400000458583,692.6150000654161,480.5800000904128,508.1550000468269,823.8950000377372,23.90000002924353,973.0800000252202,4.4450000859797,760.0800000363961,8.019999950192869],"keys_pressed":["leftarrow","leftarrow","rightarrow","rightarrow","rightarrow","leftarrow","rightarrow","leftarrow","rightarrow","leftarrow"],"horizon":10,"forced_choices":["leftarrow","leftarrow","rightarrow","rightarrow"],"right_color":"orange","left_color":"lightblue","left_mu":60,"right_mu":70,"left_numbers":[46,75,53,65,64,57,40,47,51,64],"right_numbers":[78,61,71,61,75,64,78,60,66,84],"points_earned":640,"phase":"practice","trial_type":"horizons-task","trial_index":6,"time_elapsed":568880,"internal_node_id":"0.0-4.0-2.0","task_version":"0.2"},{"view_history":"[{\"page_index\":0,\"viewing_time\":1996.0949999513105},{\"page_index\":1,\"viewing_time\":3888.3950000163168},{\"page_index\":2,\"viewing_time\":4368.125000037253},{\"page_index\":3,\"viewing_time\":3819.9150000000373}]","rt":14073.050000006333,"trial_type":"instructions","trial_index":7,"time_elapsed":582955,"internal_node_id":"0.0-4.0-3.0","task_version":"0.2"},{"responses":["true","false","true"],"num_errors":0,"rt":12280.135000008158,"trial_type":"horizons-comprehension","trial_index":8,"time_elapsed":595248,"internal_node_id":"0.0-4.0-4.0","task_version":"0.2"},{"trial_type":"call-function","trial_index":9,"time_elapsed":595268,"internal_node_id":"0.0-5.0","task_version":"0.2"},{"view_history":"[{\"page_index\":0,\"viewing_time\":1744.6399999316782},{\"page_index\":1,\"viewing_time\":4089.7200000472367}]","rt":5834.904999937862,"trial_type":"instructions","trial_index":10,"time_elapsed":601104,"internal_node_id":"0.0-6.0","task_version":"0.2"},{"response_times":[1026.7749999184161,678.5049999598414,993.9050000393763,910.9750000061467,3110.7099999208003,2276.7100000055507,1263.9049999415874,1080.1500000525266,1589.6600000560284,693.970000022091],"keys_pressed":["rightarrow","rightarrow","leftarrow","leftarrow","leftarrow","leftarrow","leftarrow","leftarrow","leftarrow","rightarrow"],"horizon":10,"forced_choices":["rightarrow","rightarrow","leftarrow","leftarrow"],"right_color":"lightblue","left_color":"orange","left_mu":60,"right_mu":64,"left_numbers":[63,55,62,64,51,52,75,58,64,61],"right_numbers":[51,66,71,75,67,55,66,74,59,58],"points_earned":601,"phase":"task","trial_type":"horizons-task","trial_index":11,"time_elapsed":616250,"internal_node_id":"0.0-7.0","task_version":"0.2"},{"response_times":[820.5399999860674,816.9149999739602,672.9150000028312,649.9649999896064,2479.7099999850616,782.0150000043213,581.7100000567734,771.1049999343231,1156.1449998989701,950.6749999709427],"keys_pressed":["leftarrow","rightarrow","rightarrow","leftarrow","rightarrow","rightarrow","rightarrow","rightarrow","rightarrow","leftarrow"],"horizon":10,"forced_choices":["leftarrow","rightarrow","rightarrow","leftarrow"],"right_color":"orange","left_color":"lightblue","left_mu":40,"right_mu":60,"left_numbers":[36,38,63,48,31,52,43,42,33,38],"right_numbers":[66,69,63,45,64,61,54,58,52,54],"points_earned":543,"phase":"task","trial_type":"horizons-task","trial_index":12,"time_elapsed":627441,"internal_node_id":"0.0-8.0","task_version":"0.2"},{"response_times":[745.2849999535829,808.9250000193715,618.8850000035018,764.945000060834,1295.0950000667945],"keys_pressed":["rightarrow","rightarrow","leftarrow","rightarrow","leftarrow"],"horizon":5,"forced_choices":["rightarrow","rightarrow","leftarrow","rightarrow"],"right_color":"orange","left_color":"lightblue","left_mu":40,"right_mu":20,"left_numbers":[45,18,31,32,45],"right_numbers":[31,24,5,13,18],"points_earned":144,"phase":"task","trial_type":"horizons-task","trial_index":13,"time_elapsed":633178,"internal_node_id":"0.0-9.0","task_version":"0.2"},{"response_times":[1279.2799999006093,515.7049999106675,520.8550000097603,439.97499998658895,3182.7749999938533,572.0100000035018,645.9350000368431,477.8500000247732,539.7700000321493,656.0899999458343],"keys_pressed":["leftarrow","rightarrow","rightarrow","leftarrow","leftarrow","leftarrow","leftarrow","leftarrow","leftarrow","leftarrow"],"horizon":10,"forced_choices":["leftarrow","rightarrow","rightarrow","leftarrow"],"right_color":"orange","left_color":"lightblue","left_mu":60,"right_mu":48,"left_numbers":[69,57,57,66,50,69,52,67,63,70],"right_numbers":[52,50,42,54,42,38,52,49,51,61],"points_earned":598,"phase":"task","trial_type":"horizons-task","trial_index":14,"time_elapsed":643517,"internal_node_id":"0.0-10.0","task_version":"0.2"},{"response_times":[711.0000000102445,783.2000000635162,1320.5699999816716,2384.944999939762,2123.890000046231],"keys_pressed":["rightarrow","leftarrow","leftarrow","rightarrow","leftarrow"],"horizon":5,"forced_choices":["rightarrow","leftarrow","leftarrow","rightarrow"],"right_color":"orange","left_color":"lightblue","left_mu":40,"right_mu":20,"left_numbers":[21,36,34,49,33],"right_numbers":[25,5,13,33,13],"points_earned":161,"phase":"task","trial_type":"horizons-task","trial_index":15,"time_elapsed":652357,"internal_node_id":"0.0-11.0","task_version":"0.2"},{"response_times":[821.0150001104921,385.9849999425933,455.92500001657754,573.0450000846758,2433.8449999922886],"keys_pressed":["leftarrow","rightarrow","leftarrow","leftarrow","leftarrow"],"horizon":5,"forced_choices":["leftarrow","rightarrow","leftarrow","leftarrow"],"right_color":"lightblue","left_color":"orange","left_mu":40,"right_mu":36,"left_numbers":[46,46,46,49,35],"right_numbers":[39,47,21,45,43],"points_earned":223,"phase":"task","trial_type":"horizons-task","trial_index":16,"time_elapsed":658530,"internal_node_id":"0.0-12.0","task_version":"0.2"},{"response_times":[1137.6300000119954,850.0750000821427,673.9800000796095,716.7249999474734,3730.0249999389052,562.5999999465421,883.9799999259412,608.8299999246374,4655.105000012554,450.46500000171363],"keys_pressed":["rightarrow","leftarrow","leftarrow","leftarrow","rightarrow","leftarrow","leftarrow","rightarrow","leftarrow","leftarrow"],"horizon":10,"forced_choices":["rightarrow","leftarrow","leftarrow","leftarrow"],"right_color":"lightblue","left_color":"orange","left_mu":60,"right_mu":64,"left_numbers":[54,80,55,57,72,63,53,69,58,63],"right_numbers":[64,61,76,59,63,61,65,56,65,55],"points_earned":612,"phase":"task","trial_type":"horizons-task","trial_index":17,"time_elapsed":674308,"internal_node_id":"0.0-13.0","task_version":"0.2"},{"response_times":[612.3199999565259,434.92500006686896,372.8800000390038,408.86500000488013,1826.0800000280142,468.8199999509379,365.79499999061227,513.0350000690669,534.9500000011176,976.8549998989329],"keys_pressed":["leftarrow","rightarrow","leftarrow","rightarrow","leftarrow","leftarrow","leftarrow","leftarrow","leftarrow","leftarrow"],"horizon":10,"forced_choices":["leftarrow","rightarrow","leftarrow","rightarrow"],"right_color":"orange","left_color":"lightblue","left_mu":60,"right_mu":52,"left_numbers":[52,58,71,69,58,64,56,58,59,63],"right_numbers":[53,43,45,44,52,39,44,54,52,67],"points_earned":568,"phase":"task","trial_type":"horizons-task","trial_index":18,"time_elapsed":682329,"internal_node_id":"0.0-14.0","task_version":"0.2"},{"response_times":[1036.5449999226257,553.82999998983,831.7600000882521,452.3300000000745,3381.0250000096858,607.2350000031292,1106.2399999937043,409.7649999894202,405.9000000124797,490.97000004258007],"keys_pressed":["rightarrow","rightarrow","rightarrow","leftarrow","leftarrow","leftarrow","rightarrow","leftarrow","leftarrow","leftarrow"],"horizon":10,"forced_choices":["rightarrow","rightarrow","rightarrow","leftarrow"],"right_color":"orange","left_color":"lightblue","left_mu":60,"right_mu":30,"left_numbers":[54,58,59,56,46,37,62,62,60,65],"right_numbers":[14,28,26,40,23,34,23,38,34,28],"points_earned":417,"phase":"task","trial_type":"horizons-task","trial_index":19,"time_elapsed":693113,"internal_node_id":"0.0-15.0","task_version":"0.2"},{"response_times":[1042.4699999857694,618.0549999698997,440.8300000941381,723.9299999782816,3837.794999941252,1017.8999999770895,696.7400000430644,468.0050000315532,446.92499993834645,562.9249999765307],"keys_pressed":["leftarrow","leftarrow","rightarrow","rightarrow","leftarrow","rightarrow","leftarrow","leftarrow","leftarrow","leftarrow"],"horizon":10,"forced_choices":["leftarrow","leftarrow","rightarrow","rightarrow"],"right_color":"lightblue","left_color":"orange","left_mu":60,"right_mu":68,"left_numbers":[64,69,69,67,55,76,62,63,57,65],"right_numbers":[67,61,62,69,59,63,69,83,66,82],"points_earned":629,"phase":"task","trial_type":"horizons-task","trial_index":20,"time_elapsed":704477,"internal_node_id":"0.0-16.0","task_version":"0.2"},{"response_times":[1467.9900000337511,803.9900000439957,913.7900000205263,605.9400000376627,1411.8400000734255],"keys_pressed":["leftarrow","rightarrow","rightarrow","leftarrow","rightarrow"],"horizon":5,"forced_choices":["leftarrow","rightarrow","rightarrow","leftarrow"],"right_color":"lightblue","left_color":"orange","left_mu":40,"right_mu":52,"left_numbers":[49,44,42,47,58],"right_numbers":[37,60,60,57,59],"points_earned":275,"phase":"task","trial_type":"horizons-task","trial_index":21,"time_elapsed":711188,"internal_node_id":"0.0-17.0","task_version":"0.2"},{"response_times":[1181.5900000510737,375.0350000336766,537.5700000440702,397.89000002201647,1295.0450000353158],"keys_pressed":["leftarrow","rightarrow","leftarrow","rightarrow","leftarrow"],"horizon":5,"forced_choices":["leftarrow","rightarrow","leftarrow","rightarrow"],"right_color":"orange","left_color":"lightblue","left_mu":40,"right_mu":10,"left_numbers":[30,50,53,34,34],"right_numbers":[8,5,14,14,11],"points_earned":136,"phase":"task","trial_type":"horizons-task","trial_index":22,"time_elapsed":716483,"internal_node_id":"0.0-18.0","task_version":"0.2"},{"response_times":[609.595000045374,478.9300000993535,379.78499999735504,500.8699999889359,1990.8249999862164],"keys_pressed":["rightarrow","rightarrow","leftarrow","leftarrow","rightarrow"],"horizon":5,"forced_choices":["rightarrow","rightarrow","leftarrow","leftarrow"],"right_color":"orange","left_color":"lightblue","left_mu":60,"right_mu":80,"left_numbers":[51,40,74,63,55],"right_numbers":[74,79,84,94,94],"points_earned":384,"phase":"task","trial_type":"horizons-task","trial_index":23,"time_elapsed":721951,"internal_node_id":"0.0-19.0","task_version":"0.2"},{"response_times":[552.6049999753013,333.7150000734255,495.8549999864772,376.94500002544373,2189.960000105202,364.81499997898936,312.91500001680106,516.9400000013411,431.0449999757111,397.884999983944],"keys_pressed":["leftarrow","rightarrow","leftarrow","rightarrow","rightarrow","rightarrow","rightarrow","rightarrow","rightarrow","rightarrow"],"horizon":10,"forced_choices":["leftarrow","rightarrow","leftarrow","rightarrow"],"right_color":"orange","left_color":"lightblue","left_mu":40,"right_mu":48,"left_numbers":[43,30,42,51,26,23,34,33,34,50],"right_numbers":[46,48,31,65,56,49,62,54,47,59],"points_earned":525,"phase":"task","trial_type":"horizons-task","trial_index":24,"time_elapsed":729428,"internal_node_id":"0.0-20.0","task_version":"0.2"},{"response_times":[651.2749999528751,423.9199999719858,625.9349999018013,397.11000001989305,1646.0600000573322],"keys_pressed":["rightarrow","leftarrow","leftarrow","rightarrow","rightarrow"],"horizon":5,"forced_choices":["rightarrow","leftarrow","leftarrow","rightarrow"],"right_color":"lightblue","left_color":"orange","left_mu":40,"right_mu":70,"left_numbers":[49,31,50,41,41],"right_numbers":[82,79,64,80,72],"points_earned":315,"phase":"task","trial_type":"horizons-task","trial_index":25,"time_elapsed":734676,"internal_node_id":"0.0-21.0","task_version":"0.2"},{"response_times":[598.2200000435114,530.1800000015646,382.77000002563,518.9000000245869,2509.5999999903142,475.25999997742474,413.9200000790879,310.9999999869615,269.8949999175966,471.8599999323487],"keys_pressed":["rightarrow","rightarrow","leftarrow","rightarrow","rightarrow","rightarrow","rightarrow","rightarrow","rightarrow","rightarrow"],"horizon":10,"forced_choices":["rightarrow","rightarrow","leftarrow","rightarrow"],"right_color":"orange","left_color":"lightblue","left_mu":60,"right_mu":90,"left_numbers":[69,46,55,57,53,59,60,57,75,59],"right_numbers":[77,89,85,71,97,77,94,94,86,96],"points_earned":836,"phase":"task","trial_type":"horizons-task","trial_index":26,"time_elapsed":742663,"internal_node_id":"0.0-22.0","task_version":"0.2"},{"response_times":[519.9799999827519,464.8999999044463,500.7700000423938,474.9200000660494,2389.9449999444187],"keys_pressed":["leftarrow","rightarrow","rightarrow","rightarrow","leftarrow"],"horizon":5,"forced_choices":["leftarrow","rightarrow","rightarrow","rightarrow"],"right_color":"orange","left_color":"lightblue","left_mu":60,"right_mu":52,"left_numbers":[66,63,56,60,65],"right_numbers":[55,47,51,54,48],"points_earned":283,"phase":"task","trial_type":"horizons-task","trial_index":27,"time_elapsed":748521,"internal_node_id":"0.0-23.0","task_version":"0.2"},{"response_times":[708.1649999599904,408.7600000202656,591.0650000441819,521.7750000301749,1193.1399999884889],"keys_pressed":["leftarrow","rightarrow","leftarrow","rightarrow","rightarrow"],"horizon":5,"forced_choices":["leftarrow","rightarrow","leftarrow","rightarrow"],"right_color":"lightblue","left_color":"orange","left_mu":40,"right_mu":36,"left_numbers":[36,33,45,40,30],"right_numbers":[12,43,49,40,47],"points_earned":211,"phase":"task","trial_type":"horizons-task","trial_index":28,"time_elapsed":753449,"internal_node_id":"0.0-24.0","task_version":"0.2"},{"response_times":[897.8400001069531,510.46499994117767,464.16500001214445,529.0599999716505,2614.560000016354],"keys_pressed":["rightarrow","rightarrow","leftarrow","leftarrow","rightarrow"],"horizon":5,"forced_choices":["rightarrow","rightarrow","leftarrow","leftarrow"],"right_color":"lightblue","left_color":"orange","left_mu":60,"right_mu":64,"left_numbers":[52,49,63,58,55],"right_numbers":[63,71,47,46,64],"points_earned":319,"phase":"task","trial_type":"horizons-task","trial_index":29,"time_elapsed":759969,"internal_node_id":"0.0-25.0","task_version":"0.2"},{"response_times":[618.1450000731274,386.5799999330193,479.2499999748543,640.8799999626353,3587.3249999713153,432.4100000085309,533.945000031963,320.8249999443069,282.08999999333173,359.88000000361353],"keys_pressed":["leftarrow","leftarrow","rightarrow","leftarrow","rightarrow","leftarrow","leftarrow","leftarrow","leftarrow","leftarrow"],"horizon":10,"forced_choices":["leftarrow","leftarrow","rightarrow","leftarrow"],"right_color":"orange","left_color":"lightblue","left_mu":60,"right_mu":48,"left_numbers":[69,42,70,57,63,60,53,65,62,39],"right_numbers":[51,47,51,30,47,56,55,48,45,39],"points_earned":545,"phase":"task","trial_type":"horizons-task","trial_index":30,"time_elapsed":769118,"internal_node_id":"0.0-26.0","task_version":"0.2"},{"response_times":[595.0799999991432,355.9250000398606,522.9350000154227,546.7700000153854,1371.1200000252575],"keys_pressed":["rightarrow","leftarrow","leftarrow","leftarrow","leftarrow"],"horizon":5,"forced_choices":["rightarrow","leftarrow","leftarrow","leftarrow"],"right_color":"lightblue","left_color":"orange","left_mu":60,"right_mu":56,"left_numbers":[68,58,53,67,52],"right_numbers":[63,46,60,54,74],"points_earned":293,"phase":"task","trial_type":"horizons-task","trial_index":31,"time_elapsed":774015,"internal_node_id":"0.0-27.0","task_version":"0.2"},{"response_times":[892.2200000379235,367.03000008128583,468.0200000293553,530.7899999897927,2212.8100000554696,288.93999999854714,231.81500006467104,245.02000003121793,246.95500009693205,353.4300000173971],"keys_pressed":["rightarrow","leftarrow","rightarrow","leftarrow","rightarrow","rightarrow","rightarrow","rightarrow","rightarrow","rightarrow"],"horizon":10,"forced_choices":["rightarrow","leftarrow","rightarrow","leftarrow"],"right_color":"orange","left_color":"lightblue","left_mu":60,"right_mu":90,"left_numbers":[59,39,50,66,51,67,61,48,63,61],"right_numbers":[91,96,90,84,91,96,93,97,96,86],"points_earned":845,"phase":"task","trial_type":"horizons-task","trial_index":32,"time_elapsed":781361,"internal_node_id":"0.0-28.0","task_version":"0.2"},{"response_times":[595.9449999500066,621.915000025183,618.9749999903142,810.7799999415874,2035.0349999498576],"keys_pressed":["rightarrow","leftarrow","leftarrow","leftarrow","rightarrow"],"horizon":5,"forced_choices":["rightarrow","leftarrow","leftarrow","leftarrow"],"right_color":"lightblue","left_color":"orange","left_mu":60,"right_mu":64,"left_numbers":[63,61,56,54,48],"right_numbers":[70,66,62,50,59],"points_earned":300,"phase":"task","trial_type":"horizons-task","trial_index":33,"time_elapsed":787549,"internal_node_id":"0.0-29.0","task_version":"0.2"},{"response_times":[577.0550000015646,453.9299999596551,605.0200000172481,448.70000006631017,2992.9799999808893,295.9949999349192,259.8299999954179,258.8000000687316,281.0900000622496,508.88999993912876],"keys_pressed":["rightarrow","leftarrow","leftarrow","rightarrow","leftarrow","leftarrow","leftarrow","leftarrow","leftarrow","leftarrow"],"horizon":10,"forced_choices":["rightarrow","leftarrow","leftarrow","rightarrow"],"right_color":"orange","left_color":"lightblue","left_mu":60,"right_mu":72,"left_numbers":[70,67,66,53,56,62,51,40,63,63],"right_numbers":[56,68,69,68,69,70,69,62,80,69],"points_earned":592,"phase":"task","trial_type":"horizons-task","trial_index":34,"time_elapsed":795734,"internal_node_id":"0.0-30.0","task_version":"0.2"},{"response_times":[14423.639999935403,525.2399999881163,1067.5449999980628,538.7949999421835,1968.6350000556558,246.06999999377877,184.04500000178814,203.80999997723848,166.81999992579222,702.1200000308454],"keys_pressed":["rightarrow","rightarrow","leftarrow","leftarrow","leftarrow","leftarrow","leftarrow","leftarrow","leftarrow","leftarrow"],"horizon":10,"forced_choices":["rightarrow","rightarrow","leftarrow","leftarrow"],"right_color":"lightblue","left_color":"orange","left_mu":60,"right_mu":40,"left_numbers":[70,52,64,70,77,53,63,49,55,55],"right_numbers":[28,35,28,37,34,49,27,41,51,43],"points_earned":549,"phase":"task","trial_type":"horizons-task","trial_index":35,"time_elapsed":817267,"internal_node_id":"0.0-31.0","task_version":"0.2"},{"response_times":[1479.905000072904,695.8349999040365,1726.9800000358373,828.6650000372902,1723.1400000164285],"keys_pressed":["rightarrow","leftarrow","leftarrow","leftarrow","rightarrow"],"horizon":5,"forced_choices":["rightarrow","leftarrow","leftarrow","leftarrow"],"right_color":"orange","left_color":"lightblue","left_mu":40,"right_mu":60,"left_numbers":[52,49,30,37,48],"right_numbers":[53,61,54,48,54],"points_earned":223,"phase":"task","trial_type":"horizons-task","trial_index":36,"time_elapsed":825229,"internal_node_id":"0.0-32.0","task_version":"0.2"},{"response_times":[503.11000004876405,375.00499992165715,490.8999999752268,406.9450000533834,1287.015000008978],"keys_pressed":["rightarrow","leftarrow","rightarrow","leftarrow","rightarrow"],"horizon":5,"forced_choices":["rightarrow","leftarrow","rightarrow","leftarrow"],"right_color":"orange","left_color":"lightblue","left_mu":60,"right_mu":90,"left_numbers":[62,76,53,56,44],"right_numbers":[82,97,84,95,95],"points_earned":393,"phase":"task","trial_type":"horizons-task","trial_index":37,"time_elapsed":829798,"internal_node_id":"0.0-33.0","task_version":"0.2"},{"response_times":[3036.1500000581145,1084.859999944456,1421.970000024885,515.9599999897182,2754.60500002373,619.8899999726564,234.08999992534518,205.93000005465,298.9500000840053,584.9650000454858],"keys_pressed":["rightarrow","leftarrow","rightarrow","rightarrow","rightarrow","rightarrow","rightarrow","rightarrow","rightarrow","rightarrow"],"horizon":10,"forced_choices":["rightarrow","leftarrow","rightarrow","rightarrow"],"right_color":"orange","left_color":"lightblue","left_mu":40,"right_mu":48,"left_numbers":[51,32,43,49,38,47,32,47,50,40],"right_numbers":[66,48,42,53,46,26,54,50,50,53],"points_earned":472,"phase":"task","trial_type":"horizons-task","trial_index":38,"time_elapsed":842066,"internal_node_id":"0.0-34.0","task_version":"0.2"},{"response_times":[824.5350000215694,449.77000006474555,599.0699999965727,452.9249999905005,1211.71000006143,231.99500003829598,198.95999995060265,176.97000002954155,163.9450000366196,495.28999999165535],"keys_pressed":["rightarrow","leftarrow","leftarrow","rightarrow","leftarrow","leftarrow","leftarrow","leftarrow","leftarrow","leftarrow"],"horizon":10,"forced_choices":["rightarrow","leftarrow","leftarrow","rightarrow"],"right_color":"orange","left_color":"lightblue","left_mu":40,"right_mu":20,"left_numbers":[23,44,39,40,38,42,42,32,38,33],"right_numbers":[16,34,16,25,11,18,28,14,6,23],"points_earned":349,"phase":"task","trial_type":"horizons-task","trial_index":39,"time_elapsed":848378,"internal_node_id":"0.0-35.0","task_version":"0.2"},{"response_times":[883.6249999003485,431.8649999331683,445.94499992672354,796.9199999934062,619.7349999565631],"keys_pressed":["rightarrow","rightarrow","leftarrow","rightarrow","rightarrow"],"horizon":5,"forced_choices":["rightarrow","rightarrow","leftarrow","rightarrow"],"right_color":"orange","left_color":"lightblue","left_mu":60,"right_mu":90,"left_numbers":[56,56,65,65,65],"right_numbers":[88,92,85,81,89],"points_earned":415,"phase":"task","trial_type":"horizons-task","trial_index":40,"time_elapsed":853062,"internal_node_id":"0.0-36.0","task_version":"0.2"},{"response_times":[756.1449999921024,648.5200000461191,2120.795000111684,425.1849999418482,2528.4750000573695],"keys_pressed":["leftarrow","leftarrow","leftarrow","rightarrow","leftarrow"],"horizon":5,"forced_choices":["leftarrow","leftarrow","leftarrow","rightarrow"],"right_color":"lightblue","left_color":"orange","left_mu":40,"right_mu":70,"left_numbers":[53,25,36,32,39],"right_numbers":[75,74,59,56,62],"points_earned":209,"phase":"task","trial_type":"horizons-task","trial_index":41,"time_elapsed":861044,"internal_node_id":"0.0-37.0","task_version":"0.2"},{"response_times":[422.38999996334314,446.9950000056997,425.7299999007955,428.1150000169873,1149.0700000431389,383.7350000394508,301.9900000654161,229.894999996759,189.06499992590398,445.70999999996275],"keys_pressed":["leftarrow","leftarrow","leftarrow","rightarrow","rightarrow","rightarrow","rightarrow","rightarrow","rightarrow","rightarrow"],"horizon":10,"forced_choices":["leftarrow","leftarrow","leftarrow","rightarrow"],"right_color":"lightblue","left_color":"orange","left_mu":40,"right_mu":70,"left_numbers":[35,26,46,37,31,38,30,35,49,32],"right_numbers":[59,58,78,80,66,67,75,60,72,75],"points_earned":602,"phase":"task","trial_type":"horizons-task","trial_index":42,"time_elapsed":866971,"internal_node_id":"0.0-38.0","task_version":"0.2"},{"response_times":[599.6799999848008,456.9500000216067,362.9600000567734,419.8349999496713,2764.854999957606],"keys_pressed":["leftarrow","leftarrow","rightarrow","rightarrow","leftarrow"],"horizon":5,"forced_choices":["leftarrow","leftarrow","rightarrow","rightarrow"],"right_color":"orange","left_color":"lightblue","left_mu":60,"right_mu":30,"left_numbers":[53,58,47,53,74],"right_numbers":[41,23,31,25,26],"points_earned":241,"phase":"task","trial_type":"horizons-task","trial_index":43,"time_elapsed":873084,"internal_node_id":"0.0-39.0","task_version":"0.2"},{"response_times":[431.1949999537319,399.70499998889863,548.3450000174344,396.70000004116446,3886.0000000568107],"keys_pressed":["leftarrow","leftarrow","leftarrow","rightarrow","rightarrow"],"horizon":5,"forced_choices":["leftarrow","leftarrow","leftarrow","rightarrow"],"right_color":"lightblue","left_color":"orange","left_mu":40,"right_mu":44,"left_numbers":[39,21,50,39,43],"right_numbers":[33,43,61,46,42],"points_earned":198,"phase":"task","trial_type":"horizons-task","trial_index":44,"time_elapsed":880253,"internal_node_id":"0.0-40.0","task_version":"0.2"},{"response_times":[685.6699999189004,1204.810000024736,345.0749999610707,379.6549999387935,1497.594999964349],"keys_pressed":["leftarrow","leftarrow","rightarrow","leftarrow","leftarrow"],"horizon":5,"forced_choices":["leftarrow","leftarrow","rightarrow","leftarrow"],"right_color":"orange","left_color":"lightblue","left_mu":60,"right_mu":48,"left_numbers":[64,51,67,74,72],"right_numbers":[60,48,35,45,43],"points_earned":296,"phase":"task","trial_type":"horizons-task","trial_index":45,"time_elapsed":885873,"internal_node_id":"0.0-41.0","task_version":"0.2"},{"response_times":[402.11000002454966,353.2450000056997,512.4599999981001,500.9800000116229,1220.7750000525266],"keys_pressed":["leftarrow","rightarrow","rightarrow","rightarrow","leftarrow"],"horizon":5,"forced_choices":["leftarrow","rightarrow","rightarrow","rightarrow"],"right_color":"orange","left_color":"lightblue","left_mu":40,"right_mu":10,"left_numbers":[39,35,34,50,45],"right_numbers":[15,20,12,0,11],"points_earned":116,"phase":"task","trial_type":"horizons-task","trial_index":46,"time_elapsed":890366,"internal_node_id":"0.0-42.0","task_version":"0.2"},{"response_times":[1282.245000009425,476.2199999531731,464.2549999989569,571.9650000100955,2505.78000000678],"keys_pressed":["leftarrow","rightarrow","leftarrow","rightarrow","rightarrow"],"horizon":5,"forced_choices":["leftarrow","rightarrow","leftarrow","rightarrow"],"right_color":"orange","left_color":"lightblue","left_mu":60,"right_mu":52,"left_numbers":[63,62,59,52,60],"right_numbers":[64,55,60,72,54],"points_earned":303,"phase":"task","trial_type":"horizons-task","trial_index":47,"time_elapsed":897170,"internal_node_id":"0.0-43.0","task_version":"0.2"},{"response_times":[666.0649999976158,387.8549999790266,442.7099999738857,393.9849999733269,1600.914999959059],"keys_pressed":["leftarrow","rightarrow","rightarrow","rightarrow","rightarrow"],"horizon":5,"forced_choices":["leftarrow","rightarrow","rightarrow","rightarrow"],"right_color":"lightblue","left_color":"orange","left_mu":40,"right_mu":52,"left_numbers":[48,47,37,40,39],"right_numbers":[59,43,49,48,50],"points_earned":238,"phase":"task","trial_type":"horizons-task","trial_index":48,"time_elapsed":902168,"internal_node_id":"0.0-44.0","task_version":"0.2"},{"response_times":[527.5299999630079,393.97000009194016,479.9049999564886,485.9249999281019,492.73499997798353,3876.550000044517,422.4349999567494,277.0399999571964,402.83000003546476,438.8249999610707],"keys_pressed":["leftarrow","rightarrow","leftarrow","leftarrow","rightarrow","rightarrow","rightarrow","rightarrow","rightarrow","rightarrow"],"horizon":10,"forced_choices":["leftarrow","rightarrow","leftarrow","leftarrow"],"right_color":"orange","left_color":"lightblue","left_mu":60,"right_mu":80,"left_numbers":[49,64,60,53,40,40,67,57,58,55],"right_numbers":[78,69,76,74,82,69,81,78,88,92],"points_earned":721,"phase":"task","trial_type":"horizons-task","trial_index":49,"time_elapsed":911472,"internal_node_id":"0.0-45.0","task_version":"0.2"},{"response_times":[947.4400000181049,581.0699999565259,617.8650000365451,459.83500010333955,1819.734999909997],"keys_pressed":["leftarrow","leftarrow","rightarrow","leftarrow","leftarrow"],"horizon":5,"forced_choices":["leftarrow","leftarrow","rightarrow","leftarrow"],"right_color":"lightblue","left_color":"orange","left_mu":40,"right_mu":28,"left_numbers":[45,47,41,63,16],"right_numbers":[19,35,17,26,16],"points_earned":188,"phase":"task","trial_type":"horizons-task","trial_index":50,"time_elapsed":917401,"internal_node_id":"0.0-46.0","task_version":"0.2"},{"view_history":"[{\"page_index\":0,\"viewing_time\":41424.54999999609},{\"page_index\":1,\"viewing_time\":2439.0800000401214}]","rt":43864.33000001125,"trial_type":"instructions","trial_index":51,"time_elapsed":961268,"internal_node_id":"0.0-47.0","task_version":"0.2"},{"response_times":[944.359999964945,444.9950000271201,508.1749999662861,791.7499999748543,1240.6099999789149,349.7699999716133,197.2049999749288,151.85500006191432,150.9500000393018,796.9900000607595],"keys_pressed":["leftarrow","leftarrow","rightarrow","leftarrow","leftarrow","leftarrow","leftarrow","leftarrow","leftarrow","leftarrow"],"horizon":10,"forced_choices":["leftarrow","leftarrow","rightarrow","leftarrow"],"right_color":"lightblue","left_color":"orange","left_mu":60,"right_mu":40,"left_numbers":[50,66,59,60,64,63,60,67,72,54],"right_numbers":[32,37,20,36,49,37,32,32,44,40],"points_earned":576,"phase":"task","trial_type":"horizons-task","trial_index":52,"time_elapsed":968355,"internal_node_id":"0.0-48.0","task_version":"0.2"},{"response_times":[686.879999935627,631.8250000476837,629.8899999819696,427.01999994460493,1621.6799999820068],"keys_pressed":["rightarrow","rightarrow","leftarrow","rightarrow","leftarrow"],"horizon":5,"forced_choices":["rightarrow","rightarrow","leftarrow","rightarrow"],"right_color":"lightblue","left_color":"orange","left_mu":40,"right_mu":32,"left_numbers":[28,44,42,33,40],"right_numbers":[25,32,36,35,33],"points_earned":174,"phase":"task","trial_type":"horizons-task","trial_index":53,"time_elapsed":973856,"internal_node_id":"0.0-49.0","task_version":"0.2"},{"response_times":[543.6049998970702,526.0899999411777,474.845000077039,591.8149999342859,2734.6000000834465],"keys_pressed":["rightarrow","rightarrow","leftarrow","leftarrow","leftarrow"],"horizon":5,"forced_choices":["rightarrow","rightarrow","leftarrow","leftarrow"],"right_color":"lightblue","left_color":"orange","left_mu":60,"right_mu":40,"left_numbers":[65,61,64,55,61],"right_numbers":[46,32,51,42,45],"points_earned":258,"phase":"task","trial_type":"horizons-task","trial_index":54,"time_elapsed":980230,"internal_node_id":"0.0-50.0","task_version":"0.2"},{"response_times":[574.0150000201538,396.82500006165355,404.05999997165054,642.809999990277,1586.9200000306591],"keys_pressed":["leftarrow","leftarrow","rightarrow","rightarrow","rightarrow"],"horizon":5,"forced_choices":["leftarrow","leftarrow","rightarrow","rightarrow"],"right_color":"lightblue","left_color":"orange","left_mu":40,"right_mu":44,"left_numbers":[32,33,37,33,54],"right_numbers":[34,47,48,52,45],"points_earned":210,"phase":"task","trial_type":"horizons-task","trial_index":55,"time_elapsed":985339,"internal_node_id":"0.0-51.0","task_version":"0.2"},{"response_times":[547.0849999692291,381.15000003017485,384.8400000715628,420.82500003743917,2043.874999973923,297.72499995306134,156.9700000109151,161.05499991681427,155.9899999992922,430.8599999640137],"keys_pressed":["leftarrow","rightarrow","leftarrow","rightarrow","leftarrow","leftarrow","leftarrow","leftarrow","leftarrow","leftarrow"],"horizon":10,"forced_choices":["leftarrow","rightarrow","leftarrow","rightarrow"],"right_color":"orange","left_color":"lightblue","left_mu":40,"right_mu":10,"left_numbers":[33,44,39,35,33,47,33,29,45,43],"right_numbers":[8,18,2,4,10,8,10,4,11,0],"points_earned":324,"phase":"task","trial_type":"horizons-task","trial_index":56,"time_elapsed":991823,"internal_node_id":"0.0-52.0","task_version":"0.2"},{"response_times":[607.3900000192225,335.8050000388175,327.7649999363348,472.0300000626594,13106.870000017807,528.6149999592453,853.0349999200553,736.7899999953806,155.08499997667968,358.99500001687557],"keys_pressed":["leftarrow","rightarrow","leftarrow","rightarrow","leftarrow","leftarrow","leftarrow","leftarrow","leftarrow","leftarrow"],"horizon":10,"forced_choices":["leftarrow","rightarrow","leftarrow","rightarrow"],"right_color":"lightblue","left_color":"orange","left_mu":40,"right_mu":36,"left_numbers":[35,34,45,36,35,45,47,42,37,34],"right_numbers":[20,31,44,31,35,33,32,30,33,38],"points_earned":382,"phase":"task","trial_type":"horizons-task","trial_index":57,"time_elapsed":1010811,"internal_node_id":"0.0-53.0","task_version":"0.2"},{"response_times":[3298.9700000034645,586.7700000526384,630.9750000946224,532.924999948591,2836.9100000709295,528.859999962151,478.620000067167,481.09500005375594,190.97999995574355,180.83499989006668],"keys_pressed":["rightarrow","leftarrow","rightarrow","leftarrow","rightarrow","rightarrow","rightarrow","rightarrow","rightarrow","rightarrow"],"horizon":10,"forced_choices":["rightarrow","leftarrow","rightarrow","leftarrow"],"right_color":"lightblue","left_color":"orange","left_mu":60,"right_mu":56,"left_numbers":[61,50,61,52,65,57,67,65,70,53],"right_numbers":[61,52,56,58,49,61,40,66,60,54],"points_earned":549,"phase":"task","trial_type":"horizons-task","trial_index":58,"time_elapsed":1022062,"internal_node_id":"0.0-54.0","task_version":"0.2"},{"response_times":[2824.739999952726,388.5749999899417,1288.7249999912456,773.990000016056,4750.484999967739,429.14000002201647,180.35000003874302,165.56500003207475,191.06999994255602,401.7600000370294],"keys_pressed":["leftarrow","leftarrow","leftarrow","rightarrow","leftarrow","leftarrow","leftarrow","leftarrow","leftarrow","leftarrow"],"horizon":10,"forced_choices":["leftarrow","leftarrow","leftarrow","rightarrow"],"right_color":"lightblue","left_color":"orange","left_mu":40,"right_mu":44,"left_numbers":[48,30,42,47,43,35,38,40,34,27],"right_numbers":[52,55,54,48,54,56,47,46,36,43],"points_earned":385,"phase":"task","trial_type":"horizons-task","trial_index":59,"time_elapsed":1034961,"internal_node_id":"0.0-55.0","task_version":"0.2"},{"response_times":[449.77000006474555,459.0299999108538,359.94999995455146,381.9099999964237,942.8750000661239,162.98500006087124,173.86500001884997,153.95999990869313,160.00500007066876,157.78500004671514],"keys_pressed":["leftarrow","leftarrow","rightarrow","rightarrow","leftarrow","leftarrow","leftarrow","leftarrow","leftarrow","leftarrow"],"horizon":10,"forced_choices":["leftarrow","leftarrow","rightarrow","rightarrow"],"right_color":"orange","left_color":"lightblue","left_mu":60,"right_mu":30,"left_numbers":[55,53,49,62,67,51,61,69,62,59],"right_numbers":[33,22,35,19,29,28,29,43,24,12],"points_earned":531,"phase":"task","trial_type":"horizons-task","trial_index":60,"time_elapsed":1039871,"internal_node_id":"0.0-56.0","task_version":"0.2"},{"response_times":[536.1649999395013,442.8600000683218,329.1600000811741,356.71500000171363,3163.065000087954],"keys_pressed":["leftarrow","leftarrow","rightarrow","rightarrow","leftarrow"],"horizon":5,"forced_choices":["leftarrow","leftarrow","rightarrow","rightarrow"],"right_color":"lightblue","left_color":"orange","left_mu":60,"right_mu":68,"left_numbers":[73,69,65,69,68],"right_numbers":[74,61,67,73,65],"points_earned":350,"phase":"task","trial_type":"horizons-task","trial_index":61,"time_elapsed":1046217,"internal_node_id":"0.0-57.0","task_version":"0.2"},{"response_times":[533.0649999668822,366.1050000227988,587.8449999727309,380.8799999533221,4741.980000049807,174.54499995801598,178.01499995402992,165.92499997932464,157.13000006508082,166.04000004008412],"keys_pressed":["leftarrow","rightarrow","rightarrow","rightarrow","rightarrow","rightarrow","rightarrow","rightarrow","rightarrow","rightarrow"],"horizon":10,"forced_choices":["leftarrow","rightarrow","rightarrow","rightarrow"],"right_color":"orange","left_color":"lightblue","left_mu":60,"right_mu":52,"left_numbers":[55,62,60,57,43,51,52,58,56,52],"right_numbers":[61,53,55,58,53,62,53,50,53,49],"points_earned":541,"phase":"task","trial_type":"horizons-task","trial_index":62,"time_elapsed":1055175,"internal_node_id":"0.0-58.0","task_version":"0.2"},{"response_times":[645.6250000046566,343.97000004537404,463.90500001143664,455.8800000231713,10265.14999999199,537.1850000228733,290.0499999523163,191.80000002961606,163.93499996047467,378.90500004868954],"keys_pressed":["rightarrow","rightarrow","leftarrow","rightarrow","leftarrow","leftarrow","leftarrow","leftarrow","leftarrow","leftarrow"],"horizon":10,"forced_choices":["rightarrow","rightarrow","leftarrow","rightarrow"],"right_color":"orange","left_color":"lightblue","left_mu":40,"right_mu":20,"left_numbers":[49,25,48,37,36,26,33,43,44,31],"right_numbers":[14,26,9,21,16,10,18,18,5,0],"points_earned":322,"phase":"task","trial_type":"horizons-task","trial_index":63,"time_elapsed":1070419,"internal_node_id":"0.0-59.0","task_version":"0.2"},{"response_times":[625.5799999926239,336.2150000175461,395.72999998927116,419.88499998115003,2362.745000049472],"keys_pressed":["leftarrow","rightarrow","leftarrow","leftarrow","rightarrow"],"horizon":5,"forced_choices":["leftarrow","rightarrow","leftarrow","leftarrow"],"right_color":"orange","left_color":"lightblue","left_mu":60,"right_mu":80,"left_numbers":[63,42,57,70,46],"right_numbers":[84,89,88,83,80],"points_earned":359,"phase":"task","trial_type":"horizons-task","trial_index":64,"time_elapsed":1076062,"internal_node_id":"0.0-60.0","task_version":"0.2"},{"response_times":[3803.569999989122,415.77500000130385,422.8049999801442,392.92499993462116,3310.660000075586,186.42500007990748,185.07000000681728,168.9600000390783,168.94000000320375,163.99499995168298],"keys_pressed":["rightarrow","leftarrow","leftarrow","rightarrow","leftarrow","leftarrow","leftarrow","leftarrow","leftarrow","leftarrow"],"horizon":10,"forced_choices":["rightarrow","leftarrow","leftarrow","rightarrow"],"right_color":"lightblue","left_color":"orange","left_mu":40,"right_mu":28,"left_numbers":[25,34,40,34,59,38,40,38,54,41],"right_numbers":[20,38,40,28,38,23,16,14,21,3],"points_earned":392,"phase":"task","trial_type":"horizons-task","trial_index":65,"time_elapsed":1086788,"internal_node_id":"0.0-61.0","task_version":"0.2"},{"response_times":[586.8350000819191,444.03499993495643,481.8450000602752,1210.854999953881,2720.9999999031425],"keys_pressed":["leftarrow","leftarrow","rightarrow","leftarrow","leftarrow"],"horizon":5,"forced_choices":["leftarrow","leftarrow","rightarrow","leftarrow"],"right_color":"lightblue","left_color":"orange","left_mu":60,"right_mu":40,"left_numbers":[62,67,63,53,53],"right_numbers":[37,41,46,35,37],"points_earned":281,"phase":"task","trial_type":"horizons-task","trial_index":66,"time_elapsed":1093735,"internal_node_id":"0.0-62.0","task_version":"0.2"},{"response_times":[618.7899999786168,364.9999999906868,361.92499997559935,463.94500008318573,1798.7050000810996],"keys_pressed":["rightarrow","leftarrow","rightarrow","rightarrow","rightarrow"],"horizon":5,"forced_choices":["rightarrow","leftarrow","rightarrow","rightarrow"],"right_color":"orange","left_color":"lightblue","left_mu":60,"right_mu":72,"left_numbers":[46,72,60,49,44],"right_numbers":[65,63,75,75,74],"points_earned":361,"phase":"task","trial_type":"horizons-task","trial_index":67,"time_elapsed":1098847,"internal_node_id":"0.0-63.0","task_version":"0.2"},{"response_times":[637.1900000376627,335.8399999560788,291.92999994847924,365.9800000023097,1710.8200000366196,190.09000004734844,176.80000001564622,171.9750000629574,165.88000010233372,163.93999999854714],"keys_pressed":["rightarrow","leftarrow","rightarrow","leftarrow","leftarrow","leftarrow","leftarrow","leftarrow","leftarrow","leftarrow"],"horizon":10,"forced_choices":["rightarrow","leftarrow","rightarrow","leftarrow"],"right_color":"lightblue","left_color":"orange","left_mu":40,"right_mu":32,"left_numbers":[25,36,25,54,28,36,53,36,35,44],"right_numbers":[26,32,32,21,36,31,35,28,37,46],"points_earned":380,"phase":"task","trial_type":"horizons-task","trial_index":68,"time_elapsed":1104561,"internal_node_id":"0.0-64.0","task_version":"0.2"},{"response_times":[551.2800000142306,332.5450000120327,507.4049999238923,380.0649999175221,4358.66500006523,195.56999998167157,192.66000005882233,198.1099999975413,190.73499995283782,170.685000019148],"keys_pressed":["rightarrow","leftarrow","leftarrow","rightarrow","rightarrow","rightarrow","rightarrow","rightarrow","rightarrow","rightarrow"],"horizon":10,"forced_choices":["rightarrow","leftarrow","leftarrow","rightarrow"],"right_color":"lightblue","left_color":"orange","left_mu":40,"right_mu":70,"left_numbers":[56,37,37,34,37,42,53,29,47,49],"right_numbers":[67,70,89,78,63,62,59,70,62,67],"points_earned":602,"phase":"task","trial_type":"horizons-task","trial_index":69,"time_elapsed":1113145,"internal_node_id":"0.0-65.0","task_version":"0.2"},{"response_times":[1418.3350000530481,503.65500000771135,429.7699999297038,542.0250000897795,1108.9600000996143,189.97499998658895,201.8699999898672,173.1900000013411,176.92999995779246,158.67500007152557],"keys_pressed":["rightarrow","rightarrow","leftarrow","leftarrow","rightarrow","rightarrow","rightarrow","rightarrow","rightarrow","rightarrow"],"horizon":10,"forced_choices":["rightarrow","rightarrow","leftarrow","leftarrow"],"right_color":"orange","left_color":"lightblue","left_mu":60,"right_mu":80,"left_numbers":[64,63,51,56,59,52,69,62,39,57],"right_numbers":[82,84,78,74,67,76,63,90,87,88],"points_earned":744,"phase":"task","trial_type":"horizons-task","trial_index":70,"time_elapsed":1119554,"internal_node_id":"0.0-66.0","task_version":"0.2"},{"response_times":[649.0149999735877,353.7650000071153,345.9000000730157,541.969999903813,5841.090000001714,371.7999999644235,241.93999997805804,208.10000004712492,202.84499996341765,385.98999998066574],"keys_pressed":["leftarrow","rightarrow","leftarrow","leftarrow","rightarrow","rightarrow","rightarrow","rightarrow","rightarrow","rightarrow"],"horizon":10,"forced_choices":["leftarrow","rightarrow","leftarrow","leftarrow"],"right_color":"lightblue","left_color":"orange","left_mu":40,"right_mu":36,"left_numbers":[36,40,23,42,30,42,46,43,47,31],"right_numbers":[56,32,18,30,33,33,21,28,39,30],"points_earned":317,"phase":"task","trial_type":"horizons-task","trial_index":71,"time_elapsed":1130205,"internal_node_id":"0.0-67.0","task_version":"0.2"},{"response_times":[2737.4650000128895,416.09499999322,520.0849999673665,380.5350000038743,5419.070000061765],"keys_pressed":["leftarrow","rightarrow","rightarrow","leftarrow","rightarrow"],"horizon":5,"forced_choices":["leftarrow","rightarrow","rightarrow","leftarrow"],"right_color":"orange","left_color":"lightblue","left_mu":40,"right_mu":60,"left_numbers":[39,51,36,26,23],"right_numbers":[60,55,65,54,60],"points_earned":245,"phase":"task","trial_type":"horizons-task","trial_index":72,"time_elapsed":1141184,"internal_node_id":"0.0-68.0","task_version":"0.2"},{"response_times":[768.2299999287352,2001.6250000335276,671.1150000337511,823.0300000868738,1779.7450000653043],"keys_pressed":["rightarrow","leftarrow","leftarrow","rightarrow","leftarrow"],"horizon":5,"forced_choices":["rightarrow","leftarrow","leftarrow","rightarrow"],"right_color":"lightblue","left_color":"orange","left_mu":40,"right_mu":28,"left_numbers":[36,38,39,37,41],"right_numbers":[24,42,41,28,28],"points_earned":170,"phase":"task","trial_type":"horizons-task","trial_index":73,"time_elapsed":1148734,"internal_node_id":"0.0-69.0","task_version":"0.2"},{"response_times":[558.5999999893829,424.22499996609986,503.03499994333833,989.2600000603124,2116.8099999194965],"keys_pressed":["rightarrow","leftarrow","rightarrow","leftarrow","leftarrow"],"horizon":5,"forced_choices":["rightarrow","leftarrow","rightarrow","leftarrow"],"right_color":"lightblue","left_color":"orange","left_mu":40,"right_mu":32,"left_numbers":[36,46,48,24,20],"right_numbers":[20,36,40,17,30],"points_earned":150,"phase":"task","trial_type":"horizons-task","trial_index":74,"time_elapsed":1154833,"internal_node_id":"0.0-70.0","task_version":"0.2"},{"response_times":[1917.26999997627,431.9150000810623,374.0850000176579,498.84999997448176,2177.460000035353],"keys_pressed":["leftarrow","rightarrow","leftarrow","rightarrow","rightarrow"],"horizon":5,"forced_choices":["leftarrow","rightarrow","leftarrow","rightarrow"],"right_color":"orange","left_color":"lightblue","left_mu":40,"right_mu":48,"left_numbers":[41,42,32,29,48],"right_numbers":[53,49,54,67,65],"points_earned":254,"phase":"task","trial_type":"horizons-task","trial_index":75,"time_elapsed":1161739,"internal_node_id":"0.0-71.0","task_version":"0.2"},{"response_times":[642.4500000430271,441.15500000771135,616.9950000476092,362.98999993596226,2381.4499999862164,254.91999997757375,181.7550000268966,159.68499996233732,196.43500004895031,418.1650000391528],"keys_pressed":["rightarrow","rightarrow","leftarrow","rightarrow","leftarrow","leftarrow","leftarrow","leftarrow","leftarrow","leftarrow"],"horizon":10,"forced_choices":["rightarrow","rightarrow","leftarrow","rightarrow"],"right_color":"lightblue","left_color":"orange","left_mu":40,"right_mu":32,"left_numbers":[35,45,40,38,36,46,49,27,37,30],"right_numbers":[37,33,30,23,30,26,43,20,40,33],"points_earned":358,"phase":"task","trial_type":"horizons-task","trial_index":76,"time_elapsed":1168898,"internal_node_id":"0.0-72.0","task_version":"0.2"},{"response_times":[644.630000111647,465.76499997172505,556.1200000811368,446.7949999962002,1878.759999992326,179.74000005051494,150.99500003270805,183.14499990083277,170.99000001326203,441.8550000991672],"keys_pressed":["leftarrow","leftarrow","rightarrow","leftarrow","leftarrow","leftarrow","leftarrow","leftarrow","leftarrow","leftarrow"],"horizon":10,"forced_choices":["leftarrow","leftarrow","rightarrow","leftarrow"],"right_color":"lightblue","left_color":"orange","left_mu":40,"right_mu":28,"left_numbers":[51,44,36,31,52,26,47,26,42,41],"right_numbers":[19,32,16,33,32,32,23,26,20,45],"points_earned":376,"phase":"task","trial_type":"horizons-task","trial_index":77,"time_elapsed":1175522,"internal_node_id":"0.0-73.0","task_version":"0.2"},{"response_times":[638.1200000178069,619.6050000144169,764.324999996461,727.9450000496581,1860.854999977164,266.63500000722706,225.37000000011176,181.79499998223037,224.78499996941537,1169.9149999767542],"keys_pressed":["rightarrow","leftarrow","leftarrow","leftarrow","leftarrow","leftarrow","leftarrow","leftarrow","leftarrow","rightarrow"],"horizon":10,"forced_choices":["rightarrow","leftarrow","leftarrow","leftarrow"],"right_color":"orange","left_color":"lightblue","left_mu":40,"right_mu":60,"left_numbers":[49,50,41,29,35,28,35,43,46,38],"right_numbers":[56,67,61,71,51,63,65,64,55,77],"points_earned":440,"phase":"task","trial_type":"horizons-task","trial_index":78,"time_elapsed":1183707,"internal_node_id":"0.0-74.0","task_version":"0.2"},{"response_times":[633.0500000622123,523.005000082776,645.0249999761581,425.9850000962615,2653.6850000265986,246.01500004064292,201.02000003680587,240.01499998848885,3272.224999964237,360.70000007748604],"keys_pressed":["rightarrow","leftarrow","leftarrow","leftarrow","leftarrow","leftarrow","leftarrow","leftarrow","rightarrow","rightarrow"],"horizon":10,"forced_choices":["rightarrow","leftarrow","leftarrow","leftarrow"],"right_color":"lightblue","left_color":"orange","left_mu":60,"right_mu":56,"left_numbers":[59,53,61,80,64,57,66,53,55,58],"right_numbers":[58,61,62,68,44,62,46,45,50,52],"points_earned":594,"phase":"task","trial_type":"horizons-task","trial_index":79,"time_elapsed":1194412,"internal_node_id":"0.0-75.0","task_version":"0.2"},{"response_times":[733.7149999802932,460.1349999429658,401.77499991841614,490.9800000023097,1196.7849999200553,869.025000021793,384.9149999441579,708.8550000917166,518.9000000245869,393.9349999418482],"keys_pressed":["leftarrow","rightarrow","rightarrow","rightarrow","leftarrow","leftarrow","rightarrow","leftarrow","leftarrow","leftarrow"],"horizon":10,"forced_choices":["leftarrow","rightarrow","rightarrow","rightarrow"],"right_color":"orange","left_color":"lightblue","left_mu":40,"right_mu":10,"left_numbers":[34,31,48,38,29,52,42,49,39,42],"right_numbers":[17,23,8,2,18,23,5,8,14,0],"points_earned":283,"phase":"task","trial_type":"horizons-task","trial_index":80,"time_elapsed":1202074,"internal_node_id":"0.0-76.0","task_version":"0.2"},{"response_times":[694.5449999766424,568.5999999986961,822.7000000188127,2157.134999986738,1580.6249999441206],"keys_pressed":["rightarrow","rightarrow","rightarrow","leftarrow","leftarrow"],"horizon":5,"forced_choices":["rightarrow","rightarrow","rightarrow","leftarrow"],"right_color":"lightblue","left_color":"orange","left_mu":60,"right_mu":68,"left_numbers":[59,52,61,70,49],"right_numbers":[67,67,66,63,74],"points_earned":319,"phase":"task","trial_type":"horizons-task","trial_index":81,"time_elapsed":1209401,"internal_node_id":"0.0-77.0","task_version":"0.2"},{"response_times":[602.5300000328571,425.8299999637529,484.84000004827976,768.0699999909848,1730.9250000398606,950.7150000426918,685.8199998969212,2193.1750000221655,1231.5550000639632,286.0450000735],"keys_pressed":["leftarrow","rightarrow","rightarrow","rightarrow","leftarrow","rightarrow","leftarrow","leftarrow","rightarrow","rightarrow"],"horizon":10,"forced_choices":["leftarrow","rightarrow","rightarrow","rightarrow"],"right_color":"lightblue","left_color":"orange","left_mu":40,"right_mu":52,"left_numbers":[35,47,41,31,39,45,63,34,48,27],"right_numbers":[50,42,62,53,56,54,50,42,48,48],"points_earned":478,"phase":"task","trial_type":"horizons-task","trial_index":82,"time_elapsed":1220268,"internal_node_id":"0.0-78.0","task_version":"0.2"},{"response_times":[627.9050000011921,362.0549999177456,403.8799999980256,2036.1699999775738,4209.789999993518],"keys_pressed":["rightarrow","leftarrow","leftarrow","rightarrow","rightarrow"],"horizon":5,"forced_choices":["rightarrow","leftarrow","leftarrow","rightarrow"],"right_color":"orange","left_color":"lightblue","left_mu":60,"right_mu":72,"left_numbers":[54,60,52,65,65],"right_numbers":[54,76,80,63,81],"points_earned":310,"phase":"task","trial_type":"horizons-task","trial_index":83,"time_elapsed":1229411,"internal_node_id":"0.0-79.0","task_version":"0.2"},{"response_times":[679.4549999758601,385.09500003419816,408.9699999894947,869.9049999704584,2200.070000020787,1124.6700000483543,1484.2550000175834,464.29000003263354,3204.9450000049546,326.960000093095],"keys_pressed":["leftarrow","rightarrow","rightarrow","leftarrow","rightarrow","leftarrow","rightarrow","leftarrow","rightarrow","rightarrow"],"horizon":10,"forced_choices":["leftarrow","rightarrow","rightarrow","leftarrow"],"right_color":"lightblue","left_color":"orange","left_mu":40,"right_mu":52,"left_numbers":[47,47,40,43,41,50,43,40,38,41],"right_numbers":[63,50,45,48,56,56,51,46,44,56],"points_earned":482,"phase":"task","trial_type":"horizons-task","trial_index":84,"time_elapsed":1242068,"internal_node_id":"0.0-80.0","task_version":"0.2"},{"response_times":[526.0550000239164,364.97499991673976,457.89499999955297,706.1600000597537,6857.264999998733],"keys_pressed":["leftarrow","rightarrow","rightarrow","leftarrow","leftarrow"],"horizon":5,"forced_choices":["leftarrow","rightarrow","rightarrow","leftarrow"],"right_color":"orange","left_color":"lightblue","left_mu":60,"right_mu":48,"left_numbers":[42,58,62,64,59],"right_numbers":[52,36,61,51,58],"points_earned":262,"phase":"task","trial_type":"horizons-task","trial_index":85,"time_elapsed":1252487,"internal_node_id":"0.0-81.0","task_version":"0.2"},{"response_times":[556.8750000093132,462.93499995954335,490.9800000023097,621.2000000523403,1870.5250000348315,866.8649999890476,637.0250000618398,359.90500007756054,3822.6599999470636,392.8850000957027],"keys_pressed":["leftarrow","leftarrow","rightarrow","rightarrow","leftarrow","rightarrow","leftarrow","rightarrow","rightarrow","rightarrow"],"horizon":10,"forced_choices":["leftarrow","leftarrow","rightarrow","rightarrow"],"right_color":"lightblue","left_color":"orange","left_mu":40,"right_mu":44,"left_numbers":[40,41,31,27,33,48,42,36,64,45],"right_numbers":[41,35,38,41,49,46,50,49,44,54],"points_earned":428,"phase":"task","trial_type":"horizons-task","trial_index":86,"time_elapsed":1264077,"internal_node_id":"0.0-82.0","task_version":"0.2"},{"response_times":[707.9499999526888,485.4899999918416,845.0449999654666,1201.835000072606,2084.8900000564754],"keys_pressed":["rightarrow","leftarrow","rightarrow","leftarrow","rightarrow"],"horizon":5,"forced_choices":["rightarrow","leftarrow","rightarrow","leftarrow"],"right_color":"lightblue","left_color":"orange","left_mu":60,"right_mu":56,"left_numbers":[46,65,49,54,58],"right_numbers":[64,65,67,59,55],"points_earned":305,"phase":"task","trial_type":"horizons-task","trial_index":87,"time_elapsed":1270909,"internal_node_id":"0.0-83.0","task_version":"0.2"},{"response_times":[824.1350000025705,462.95999991707504,531.7750000394881,549.0699999500066,1663.7000000337139],"keys_pressed":["rightarrow","rightarrow","rightarrow","leftarrow","leftarrow"],"horizon":5,"forced_choices":["rightarrow","rightarrow","rightarrow","leftarrow"],"right_color":"orange","left_color":"lightblue","left_mu":60,"right_mu":30,"left_numbers":[60,52,43,66,49],"right_numbers":[34,15,21,24,23],"points_earned":185,"phase":"task","trial_type":"horizons-task","trial_index":88,"time_elapsed":1276449,"internal_node_id":"0.0-84.0","task_version":"0.2"},{"response_times":[597.4799999967217,512.955000041984,513.7799999210984,1142.1099998988211,1979.8350000055507],"keys_pressed":["rightarrow","leftarrow","rightarrow","rightarrow","rightarrow"],"horizon":5,"forced_choices":["rightarrow","leftarrow","rightarrow","rightarrow"],"right_color":"orange","left_color":"lightblue","left_mu":40,"right_mu":48,"left_numbers":[37,52,45,36,49],"right_numbers":[58,51,43,47,50],"points_earned":250,"phase":"task","trial_type":"horizons-task","trial_index":89,"time_elapsed":1282702,"internal_node_id":"0.0-85.0","task_version":"0.2"},{"response_times":[1333.379999967292,760.6900000246242,498.3149999752641,640.6349999597296,853.8600000320002,1094.9000000255182,1770.8449999336153,714.8899999447167,2015.7749999780208,1387.8549999790266],"keys_pressed":["rightarrow","rightarrow","rightarrow","leftarrow","leftarrow","leftarrow","rightarrow","rightarrow","leftarrow","rightarrow"],"horizon":10,"forced_choices":["rightarrow","rightarrow","rightarrow","leftarrow"],"right_color":"lightblue","left_color":"orange","left_mu":60,"right_mu":68,"left_numbers":[47,54,75,64,53,65,61,64,50,69],"right_numbers":[83,69,67,58,67,68,62,66,76,68],"points_earned":647,"phase":"task","trial_type":"horizons-task","trial_index":90,"time_elapsed":1295282,"internal_node_id":"0.0-86.0","task_version":"0.2"},{"response_times":[627.515000058338,418.4750000713393,302.12000000756234,407.80499996617436,1693.985000019893,285.00499995425344,2047.9249999625608,1199.8000000603497,1131.9149999180809,3396.7999999877065],"keys_pressed":["rightarrow","leftarrow","rightarrow","rightarrow","leftarrow","leftarrow","leftarrow","rightarrow","rightarrow","rightarrow"],"horizon":10,"forced_choices":["rightarrow","leftarrow","rightarrow","rightarrow"],"right_color":"orange","left_color":"lightblue","left_mu":60,"right_mu":72,"left_numbers":[59,56,48,74,68,53,59,74,57,45],"right_numbers":[68,59,64,76,78,72,76,80,73,75],"points_earned":672,"phase":"task","trial_type":"horizons-task","trial_index":91,"time_elapsed":1308319,"internal_node_id":"0.0-87.0","task_version":"0.2"},{"rt":20328.61500000581,"responses":{"age":"28","gender-categorical":"Male","gender-free-response":"","ethnicity":"Hispanic or Latino","race":["White"],"language":"No","fluency":"Very well"},"survey":"demographics","trial_type":"survey-demo","trial_index":92,"time_elapsed":1328653,"internal_node_id":"0.0-88.0","task_version":"0.2"},{"rt":23673.150000046007,"responses":{"difficulty":"3","fun":"4","clarity":"5","strategy":"Just tried to average the numbers in my head","feedback":""},"survey":"debrief","trial_type":"survey-debrief","trial_index":93,"time_elapsed":1352335,"internal_node_id":"0.0-89.0","task_version":"0.2","interactions":"[]"}]