[{"view_history":"[{\"page_index\":0,\"viewing_time\":4906.379999998535}]","rt":4909.415000000081,"trial_type":"instructions","trial_index":0,"time_elapsed":4961,"internal_node_id":"0.0-0.0","task_version":"0.2"},{"item_order":[0,8,10,11,15,13,12,7,9,14,3,2,4,6,1,5],"responses":{"Q01":"2","Q09":"3","Q11":"4","Q12":"4","Q16":"1","Q14":"0","Q13":"4","Q08":"4","Q10":"1","Q15":"4","Q04":"3","Q03":"4","Q05":"2","Q07":"3","Q02":"5","Q06":"4"},"radio_events":[9371.815000000424,14556.125000000975,18473.94499999973,23081.790000000183,27311.885000000984,35509.925000000294,40571.77500000034,46236.12499999945,54351.575000000594,60383.975000000646,67859.55000000104,73106.06000000007,78735.46999999962,83183.5800000008,85193.54500000009,85261.86000000052,90769.81499999965,96497.5599999998],"key_events":[],"mouse_events":[0.7850000001781154,9371.815000000424,14556.125000000975,18473.94499999973,23081.790000000183,27311.885000000984,35509.925000000294,40571.77500000034,46236.12499999945,54351.575000000594,60383.975000000646,67859.55000000104,73106.06000000007,78735.46999999962,83183.5800000008,84225.63000000082,85193.54500000009,85261.86000000052,90769.81499999965,96497.5599999998,103027.89500000108],"rt":103064.6799999995,"survey":"nfc","trial_type":"survey-template","trial_index":1,"time_elapsed":108051,"internal_node_id":"0.0-1.0","task_version":"0.2"},{"item_order":[4,10,0,11,12,7,8,2,1,5,3,6,9],"responses":{"Q05":"2","Q11":"3","Q01":"1","Q12":"1","Q13":"4","Q08":"1","Q09":"3","Q03":"1","Q02":"2","Q06":"0","Q04":"3","Q07":"1","Q10":"1"},"radio_events":[7389.510000000882,11459.66000000044,14807.585000000472,20713.030000000814,23022.77499999947,30271.399999999645,33175.5150000008,40637.270000001095,45020.12000000104,49674.10500000007,54537.2100000004,55681.54999999932,60433.7200000009,64317.510000000766],"key_events":[],"mouse_events":[7389.510000000882,11459.66000000044,14807.585000000472,20713.030000000814,23022.77499999947,30271.399999999645,33175.5150000008,39917.489999999816,40637.270000001095,45020.12000000104,49674.10500000007,54537.2100000004,55681.54999999932,60433.7200000009,64317.510000000766,66457.34000000084],"rt":66483.73499999978,"survey":"ius12","trial_type":"survey-template","trial_index":2,"time_elapsed":174547,"internal_node_id":"0.0-2.0","task_version":"0.2"},{"item_order":[3,6,16,1,14,4,9,10,7,11,2,15,8,13,12,0,5],"responses":{"Q04":"1","Q07":"1","Q17":"0","Q02":"1","Q15":"1","Q05":"2","Q10":"4","Q11":"2","Q08":"2","Q12":"2","Q03":"3","Q16":"2","Q09":"1","Q14":"2","Q13":"2","Q01":"3","Q06":"2"},"radio_events":[7511.029999999679,13000.990000000456,16917.199999999895,20794.664999999455,22814.739999999816,30486.899999999907,32898.8300000001,39916.714999999385,46764.96000000043,49969.31500000029,53119.01500000025,56227.05499999941,61667.054999999906,66281.2350000004,71992.87499999994,77953.13499999978,81413.11499999941,81525.18500000043],"key_events":[],"mouse_events":[7511.029999999679,13000.990000000456,16917.199999999895,20794.664999999455,22814.739999999816,30486.899999999907,32898.8300000001,39916.714999999385,46764.96000000043,49969.31500000029,53119.01500000025,56227.05499999941,61667.054999999906,66281.2350000004,71992.87499999994,77953.13499999978,81413.11499999941,81525.18500000043,83401.18999999869],"rt":83434.97000000026,"survey":"pswq","trial_type":"survey-template","trial_index":3,"time_elapsed":257996,"internal_node_id":"0.0-3.0","task_version":"0.2"},{"view_history":"[{\"page_index\":0,\"viewing_time\":5716.12999999887},{\"page_index\":1,\"viewing_time\":7601.674999999872},{\"page_index\":2,\"viewing_time\":9781.055000001332},{\"page_index\":3,\"viewing_time\":7598.399999998917},{\"page_index\":4,\"viewing_time\":7918.545000000449},{\"page_index\":5,\"viewing_time\":6047.480000001087},{\"page_index\":6,\"viewing_time\":9600.554999999062},{\"page_index\":7,\"viewing_time\":11032.815000000526},{\"page_index\":8,\"viewing_time\":11773.90000000014},{\"page_index\":9,\"viewing_time\":8943.794999999227}]","rt":86015.80999999898,"trial_type":"instructions","trial_index":4,"time_elapsed":344016,"internal_node_id":"0.0-4.0-0.0","task_version":"0.2"},{"response_times":[1333.0249999999069,1210.9450000007055,625.1549999997369,787.9149999989895,1614.3350000001956],"keys_pressed":["rightarrow","leftarrow","rightarrow","rightarrow","leftarrow"],"horizon":5,"forced_choices":["rightarrow","leftarrow","rightarrow","rightarrow"],"right_color":"lightblue","left_color":"orange","left_mu":40,"right_mu":20,"left_numbers":[43,46,52,52,43],"right_numbers":[4,29,25,8,22],"points_earned":126,"phase":"practice","trial_type":"horizons-task","trial_index":5,"time_elapsed":351135,"internal_node_id":"0.0-4.0-1.0","task_version":"0.2"},{"response_times":[1390.330000000191,969.2599999998347,601.7300000003306,905.5000000006985,1060.9449999992503,2.500000000523869,673.8049999985378,9.649999999906868,521.5749999987893,40.25499999988824],"keys_pressed":["leftarrow","leftarrow","rightarrow","rightarrow","leftarrow","rightarrow","leftarrow","rightarrow","rightarrow","leftarrow"],"horizon":10,"forced_choices":["leftarrow","leftarrow","rightarrow","rightarrow"],"right_color":"orange","left_color":"lightblue","left_mu":60,"right_mu":70,"left_numbers":[62,55,60,50,52,63,63,67,55,53],"right_numbers":[63,72,54,77,74,65,76,80,67,83],"points_earned":628,"phase":"practice","trial_type":"horizons-task","trial_index":6,"time_elapsed":358816,"internal_node_id":"0.0-4.0-2.0","task_version":"0.2"},{"view_history":"[{\"page_index\":0,\"viewing_time\":2018.9300000001676},{\"page_index\":1,\"viewing_time\":3364.2049999998417},{\"page_index\":2,\"viewing_time\":4501.659999999916},{\"page_index\":3,\"viewing_time\":3264.210000001185}]","rt":13149.415000001667,"trial_type":"instructions","trial_index":7,"time_elapsed":371967,"internal_node_id":"0.0-4.0-3.0","task_version":"0.2"},{"responses":["true","false","true"],"num_errors":0,"rt":16312.099999999162,"trial_type":"horizons-comprehension","trial_index":8,"time_elapsed":388286,"internal_node_id":"0.0-4.0-4.0","task_version":"0.2"},{"trial_type":"call-function","trial_index":9,"time_elapsed":388298,"internal_node_id":"0.0-5.0","task_version":"0.2"},{"view_history":"[{\"page_index\":0,\"viewing_time\":2106.759999998787},{\"page_index\":1,\"viewing_time\":5438.060000000405}]","rt":7545.2299999997485,"trial_type":"instructions","trial_index":10,"time_elapsed":395846,"internal_node_id":"0.0-6.0","task_version":"0.2"},{"response_times":[2129.7149999991525,1302.679999998887,1090.3600000001607,758.5549999985378,778.2250000000349,11.119999999180436,542.105000000447,58.33499999972992,618.4799999991665,10.519999999844003],"keys_pressed":["rightarrow","rightarrow","leftarrow","leftarrow","rightarrow","leftarrow","rightarrow","leftarrow","leftarrow","rightarrow"],"horizon":10,"forced_choices":["rightarrow","rightarrow","leftarrow","leftarrow"],"right_color":"orange","left_color":"lightblue","left_mu":40,"right_mu":48,"left_numbers":[28,44,39,46,43,23,60,35,47,49],"right_numbers":[54,44,46,45,54,52,47,55,51,37],"points_earned":426,"phase":"task","trial_type":"horizons-task","trial_index":11,"time_elapsed":404681,"internal_node_id":"0.0-7.0","task_version":"0.2"},{"response_times":[1344.1449999991455,493.7449999997625,613.2999999991152,648.810000000638,605.8499999999185],"keys_pressed":["leftarrow","rightarrow","leftarrow","leftarrow","leftarrow"],"horizon":5,"forced_choices":["leftarrow","rightarrow","leftarrow","leftarrow"],"right_color":"orange","left_color":"lightblue","left_mu":40,"right_mu":32,"left_numbers":[43,41,46,36,29],"right_numbers":[42,46,28,36,47],"points_earned":200,"phase":"task","trial_type":"horizons-task","trial_index":12,"time_elapsed":409891,"internal_node_id":"0.0-8.0","task_version":"0.2"},{"response_times":[1113.9800000000978,1389.390000000305,780.8399999994435,1060.2099999996717,715.1700000012643,9.705000000365544,807.5649999991292,10.389999999431893,900.7099999999045,6.545000000158325],"keys_pressed":["leftarrow","rightarrow","leftarrow","rightarrow","leftarrow","rightarrow","rightarrow","leftarrow","rightarrow","leftarrow"],"horizon":10,"forced_choices":["leftarrow","rightarrow","leftarrow","rightarrow"],"right_color":"orange","left_color":"lightblue","left_mu":60,"right_mu":48,"left_numbers":[61,63,69,66,50,53,65,53,61,51],"right_numbers":[54,56,52,47,49,43,55,60,49,44],"points_earned":534,"phase":"task","trial_type":"horizons-task","trial_index":13,"time_elapsed":418192,"internal_node_id":"0.0-9.0","task_version":"0.2"},{"response_times":[1798.5599999992992,1186.7650000004214,711.4250000013271,955.045000000624,720.1949999998906,9.395000000949949,579.7549999988405,16.465000000607688,830.944999999716,20.54999999923166],"keys_pressed":["leftarrow","rightarrow","leftarrow","rightarrow","rightarrow","leftarrow","rightarrow","leftarrow","rightarrow","leftarrow"],"horizon":10,"forced_choices":["leftarrow","rightarrow","leftarrow","rightarrow"],"right_color":"lightblue","left_color":"orange","left_mu":40,"right_mu":20,"left_numbers":[39,44,37,42,41,31,43,52,41,47],"right_numbers":[15,12,6,16,15,26,9,27,25,18],"points_earned":283,"phase":"task","trial_type":"horizons-task","trial_index":14,"time_elapsed":426525,"internal_node_id":"0.0-10.0","task_version":"0.2"},{"response_times":[2009.845000000496,836.104999998468,909.8699999994715,800.414999999688,733.8449999988661,10.449999999778811,1194.9650000006077,14.025000000372529,986.3800000002957,1471.1800000004587],"keys_pressed":["rightarrow","leftarrow","rightarrow","rightarrow","rightarrow","leftarrow","rightarrow","leftarrow","rightarrow","leftarrow"],"horizon":10,"forced_choices":["rightarrow","leftarrow","rightarrow","rightarrow"],"right_color":"lightblue","left_color":"orange","left_mu":40,"right_mu":28,"left_numbers":[42,56,38,41,23,49,48,48,50,33],"right_numbers":[19,22,38,33,25,28,23,20,29,25],"points_earned":353,"phase":"task","trial_type":"horizons-task","trial_index":15,"time_elapsed":437013,"internal_node_id":"0.0-11.0","task_version":"0.2"},{"response_times":[3582.0050000002375,811.8849999991362,1031.7450000002282,888.320000000007,4629.440000000584],"keys_pressed":["rightarrow","leftarrow","leftarrow","rightarrow","leftarrow"],"horizon":5,"forced_choices":["rightarrow","leftarrow","leftarrow","rightarrow"],"right_color":"lightblue","left_color":"orange","left_mu":60,"right_mu":80,"left_numbers":[54,52,59,55,61],"right_numbers":[74,90,86,85,78],"points_earned":331,"phase":"task","trial_type":"horizons-task","trial_index":16,"time_elapsed":449463,"internal_node_id":"0.0-12.0","task_version":"0.2"},{"response_times":[1488.9949999997043,617.6749999995227,732.9500000014668,572.8650000001071,9557.98999999935,1703.165000000794,3700.204999999143,2857.0600000002887,2137.85999999888,2105.144999999553],"keys_pressed":["leftarrow","rightarrow","leftarrow","rightarrow","rightarrow","leftarrow","leftarrow","leftarrow","leftarrow","rightarrow"],"horizon":10,"forced_choices":["leftarrow","rightarrow","leftarrow","rightarrow"],"right_color":"lightblue","left_color":"orange","left_mu":40,"right_mu":60,"left_numbers":[38,47,39,22,37,39,43,29,32,41],"right_numbers":[59,67,54,62,60,55,54,48,50,54],"points_earned":463,"phase":"task","trial_type":"horizons-task","trial_index":17,"time_elapsed":476441,"internal_node_id":"0.0-13.0","task_version":"0.2"},{"response_times":[1445.354999999865,409.29499999945983,768.8749999997672,627.6450000004843,2938.2500000010477,1931.6749999998137,3877.1300000007614,1151.6150000006892,2942.5449999998673,4052.584999999439],"keys_pressed":["rightarrow","leftarrow","rightarrow","leftarrow","rightarrow","leftarrow","leftarrow","rightarrow","leftarrow","leftarrow"],"horizon":10,"forced_choices":["rightarrow","leftarrow","rightarrow","leftarrow"],"right_color":"lightblue","left_color":"orange","left_mu":40,"right_mu":28,"left_numbers":[50,34,29,41,32,40,36,39,39,22],"right_numbers":[28,21,39,43,35,19,33,30,33,14],"points_earned":344,"phase":"task","trial_type":"horizons-task","trial_index":18,"time_elapsed":498090,"internal_node_id":"0.0-14.0","task_version":"0.2"},{"response_times":[1046.5949999998556,636.1949999991339,948.3749999998836,1009.6400000002468,3540.000000000873],"keys_pressed":["rightarrow","leftarrow","leftarrow","rightarrow","leftarrow"],"horizon":5,"forced_choices":["rightarrow","leftarrow","leftarrow","rightarrow"],"right_color":"orange","left_color":"lightblue","left_mu":60,"right_mu":68,"left_numbers":[55,58,54,61,58],"right_numbers":[54,60,68,71,86],"points_earned":295,"phase":"task","trial_type":"horizons-task","trial_index":19,"time_elapsed":506775,"internal_node_id":"0.0-15.0","task_version":"0.2"},{"response_times":[992.7950000001001,703.6150000003399,727.0550000011572,751.5450000009732,2973.470000000845,1153.8600000003353,3833.114999999467,1522.3050000004005,1334.9299999990617,4706.7699999988545],"keys_pressed":["leftarrow","leftarrow","rightarrow","rightarrow","rightarrow","leftarrow","rightarrow","rightarrow","leftarrow","leftarrow"],"horizon":10,"forced_choices":["leftarrow","leftarrow","rightarrow","rightarrow"],"right_color":"lightblue","left_color":"orange","left_mu":40,"right_mu":44,"left_numbers":[26,58,47,54,34,38,47,29,49,42],"right_numbers":[50,28,61,48,42,62,38,45,39,47],"points_earned":447,"phase":"task","trial_type":"horizons-task","trial_index":20,"time_elapsed":526993,"internal_node_id":"0.0-16.0","task_version":"0.2"},{"response_times":[1207.640000000596,847.9250000000466,881.1900000000605,2480.1250000001164,2519.1750000012107],"keys_pressed":["rightarrow","rightarrow","leftarrow","leftarrow","rightarrow"],"horizon":5,"forced_choices":["rightarrow","rightarrow","leftarrow","leftarrow"],"right_color":"lightblue","left_color":"orange","left_mu":60,"right_mu":72,"left_numbers":[68,69,56,56,64],"right_numbers":[68,71,75,58,65],"points_earned":316,"phase":"task","trial_type":"horizons-task","trial_index":21,"time_elapsed":536433,"internal_node_id":"0.0-17.0","task_version":"0.2"},{"response_times":[899.1949999999488,725.6999999990221,651.0749999997206,1151.60499999905,1386.7250000002095,2656.270000001299,1099.174999999348,4917.419999999693,29425.93999999913,3340.8599999984726],"keys_pressed":["leftarrow","rightarrow","rightarrow","rightarrow","leftarrow","rightarrow","leftarrow","leftarrow","rightarrow","leftarrow"],"horizon":10,"forced_choices":["leftarrow","rightarrow","rightarrow","rightarrow"],"right_color":"orange","left_color":"lightblue","left_mu":40,"right_mu":48,"left_numbers":[35,37,43,36,46,30,54,43,44,35],"right_numbers":[56,53,49,54,48,48,50,50,50,48],"points_earned":467,"phase":"task","trial_type":"horizons-task","trial_index":22,"time_elapsed":584191,"internal_node_id":"0.0-18.0","task_version":"0.2"},{"response_times":[1078.9250000016764,937.9650000008987,1314.3150000014575,904.18500000122,5849.734999999753],"keys_pressed":["leftarrow","rightarrow","leftarrow","rightarrow","leftarrow"],"horizon":5,"forced_choices":["leftarrow","rightarrow","leftarrow","rightarrow"],"right_color":"lightblue","left_color":"orange","left_mu":40,"right_mu":20,"left_numbers":[39,59,35,38,45],"right_numbers":[4,21,23,4,18],"points_earned":144,"phase":"task","trial_type":"horizons-task","trial_index":23,"time_elapsed":595780,"internal_node_id":"0.0-19.0","task_version":"0.2"},{"response_times":[1015.5350000003818,889.7649999998976,705.0449999987613,1609.6699999999255,4479.830000000191],"keys_pressed":["leftarrow","leftarrow","rightarrow","leftarrow","rightarrow"],"horizon":5,"forced_choices":["leftarrow","leftarrow","rightarrow","leftarrow"],"right_color":"lightblue","left_color":"orange","left_mu":40,"right_mu":70,"left_numbers":[48,33,43,31,39],"right_numbers":[82,54,65,71,77],"points_earned":254,"phase":"task","trial_type":"horizons-task","trial_index":24,"time_elapsed":605983,"internal_node_id":"0.0-20.0","task_version":"0.2"},{"response_times":[785.2649999987334,710.3000000006286,532.6600000007311,889.7499999984866,3200.9649999999674],"keys_pressed":["rightarrow","rightarrow","leftarrow","leftarrow","rightarrow"],"horizon":5,"forced_choices":["rightarrow","rightarrow","leftarrow","leftarrow"],"right_color":"orange","left_color":"lightblue","left_mu":40,"right_mu":48,"left_numbers":[51,40,53,35,39],"right_numbers":[46,51,46,55,56],"points_earned":241,"phase":"task","trial_type":"horizons-task","trial_index":25,"time_elapsed":613607,"internal_node_id":"0.0-21.0","task_version":"0.2"},{"response_times":[797.0250000016531,782.1700000003912,589.1699999993434,660.4699999989243,4062.8049999995856,1113.4400000008754,2781.6550000007264,832.7249999984633,2931.1250000010477,2575.549999999581],"keys_pressed":["rightarrow","rightarrow","leftarrow","leftarrow","rightarrow","leftarrow","leftarrow","rightarrow","rightarrow","rightarrow"],"horizon":10,"forced_choices":["rightarrow","rightarrow","leftarrow","leftarrow"],"right_color":"orange","left_color":"lightblue","left_mu":60,"right_mu":64,"left_numbers":[62,62,62,65,62,66,58,58,59,52],"right_numbers":[62,67,71,63,61,64,60,71,71,84],"points_earned":667,"phase":"task","trial_type":"horizons-task","trial_index":26,"time_elapsed":632238,"internal_node_id":"0.0-22.0","task_version":"0.2"},{"response_times":[912.6999999989057,573.8999999994412,687.4900000003399,710.2499999982538,3423.0000000006985],"keys_pressed":["rightarrow","rightarrow","rightarrow","leftarrow","leftarrow"],"horizon":5,"forced_choices":["rightarrow","rightarrow","rightarrow","leftarrow"],"right_color":"orange","left_color":"lightblue","left_mu":60,"right_mu":40,"left_numbers":[66,71,57,55,74],"right_numbers":[44,41,40,29,38],"points_earned":254,"phase":"task","trial_type":"horizons-task","trial_index":27,"time_elapsed":640050,"internal_node_id":"0.0-23.0","task_version":"0.2"},{"response_times":[864.0400000003865,629.6700000002747,518.4950000002282,503.1200000012759,1852.7649999996647,1305.2650000008289,1481.1150000004563,2391.369999999297,1328.8999999986263,4836.365000001038],"keys_pressed":["rightarrow","leftarrow","leftarrow","rightarrow","leftarrow","rightarrow","rightarrow","leftarrow","rightarrow","rightarrow"],"horizon":10,"forced_choices":["rightarrow","leftarrow","leftarrow","rightarrow"],"right_color":"orange","left_color":"lightblue","left_mu":60,"right_mu":68,"left_numbers":[68,60,56,66,66,67,65,42,56,62],"right_numbers":[57,59,71,66,71,66,77,73,73,68],"points_earned":631,"phase":"task","trial_type":"horizons-task","trial_index":28,"time_elapsed":657266,"internal_node_id":"0.0-24.0","task_version":"0.2"},{"response_times":[908.3599999995204,450.1450000007171,464.1600000014296,957.7550000012852,2946.7299999997485],"keys_pressed":["rightarrow","leftarrow","rightarrow","rightarrow","rightarrow"],"horizon":5,"forced_choices":["rightarrow","leftarrow","rightarrow","rightarrow"],"right_color":"orange","left_color":"lightblue","left_mu":60,"right_mu":64,"left_numbers":[62,57,65,56,61],"right_numbers":[55,63,70,71,69],"points_earned":322,"phase":"task","trial_type":"horizons-task","trial_index":29,"time_elapsed":664498,"internal_node_id":"0.0-25.0","task_version":"0.2"},{"response_times":[962.9249999998137,543.0949999990407,690.4749999993946,537.180000001099,1413.8450000010198,938.7999999998137,2476.4950000008103,651.480000000447,3114.9749999985797,1375.8550000003306],"keys_pressed":["leftarrow","rightarrow","leftarrow","leftarrow","rightarrow","rightarrow","rightarrow","leftarrow","leftarrow","leftarrow"],"horizon":10,"forced_choices":["leftarrow","rightarrow","leftarrow","leftarrow"],"right_color":"orange","left_color":"lightblue","left_mu":40,"right_mu":32,"left_numbers":[21,22,32,50,18,39,42,44,41,48],"right_numbers":[33,25,26,27,39,21,13,26,35,40],"points_earned":334,"phase":"task","trial_type":"horizons-task","trial_index":30,"time_elapsed":678708,"internal_node_id":"0.0-26.0","task_version":"0.2"},{"response_times":[676.5899999991525,421.8149999997113,663.5299999997951,697.7849999984028,1794.8749999995343,785.6200000005774,2810.3800000008196,528.6400000004796,5251.290000000154,1992.7150000003166],"keys_pressed":["leftarrow","rightarrow","rightarrow","rightarrow","leftarrow","leftarrow","rightarrow","leftarrow","rightarrow","leftarrow"],"horizon":10,"forced_choices":["leftarrow","rightarrow","rightarrow","rightarrow"],"right_color":"orange","left_color":"lightblue","left_mu":60,"right_mu":30,"left_numbers":[63,58,40,60,59,66,57,59,55,71],"right_numbers":[31,18,37,25,25,38,29,31,32,41],"points_earned":459,"phase":"task","trial_type":"horizons-task","trial_index":31,"time_elapsed":695836,"internal_node_id":"0.0-27.0","task_version":"0.2"},{"response_times":[7378.22499999858,771.4300000007497,774.5250000008382,502.1049999995157,1579.4999999998836,1094.6350000012899,802.7899999998044,2792.269999999902,986.0900000003166,1972.2450000008103],"keys_pressed":["leftarrow","rightarrow","rightarrow","leftarrow","leftarrow","rightarrow","leftarrow","leftarrow","rightarrow","rightarrow"],"horizon":10,"forced_choices":["leftarrow","rightarrow","rightarrow","leftarrow"],"right_color":"orange","left_color":"lightblue","left_mu":40,"right_mu":52,"left_numbers":[42,46,50,29,39,28,29,20,35,44],"right_numbers":[48,53,52,49,50,48,47,49,50,51],"points_earned":413,"phase":"task","trial_type":"horizons-task","trial_index":32,"time_elapsed":715995,"internal_node_id":"0.0-28.0","task_version":"0.2"},{"response_times":[1258.2299999993993,663.8050000000512,577.3250000001863,1892.1350000000093,2130.920000001439],"keys_pressed":["rightarrow","rightarrow","leftarrow","rightarrow","rightarrow"],"horizon":5,"forced_choices":["rightarrow","rightarrow","leftarrow","rightarrow"],"right_color":"lightblue","left_color":"orange","left_mu":60,"right_mu":72,"left_numbers":[61,63,67,58,65],"right_numbers":[74,77,70,77,65],"points_earned":360,"phase":"task","trial_type":"horizons-task","trial_index":33,"time_elapsed":724021,"internal_node_id":"0.0-29.0","task_version":"0.2"},{"response_times":[1125.6300000004703,596.9850000001024,540.535000000149,763.2599999996601,1132.4850000001024,744.0949999999721,1781.1049999999814,7901.060000000172,913.9500000000698,6359.264999999199],"keys_pressed":["rightarrow","rightarrow","leftarrow","rightarrow","leftarrow","leftarrow","rightarrow","rightarrow","leftarrow","rightarrow"],"horizon":10,"forced_choices":["rightarrow","rightarrow","leftarrow","rightarrow"],"right_color":"lightblue","left_color":"orange","left_mu":60,"right_mu":72,"left_numbers":[65,73,58,68,56,59,64,64,68,66],"right_numbers":[63,67,73,65,79,64,72,80,72,73],"points_earned":661,"phase":"task","trial_type":"horizons-task","trial_index":34,"time_elapsed":747383,"internal_node_id":"0.0-30.0","task_version":"0.2"},{"response_times":[860.2300000002142,743.6799999995856,503.45000000018626,930.6049999996321,2170.8250000011176],"keys_pressed":["rightarrow","rightarrow","leftarrow","rightarrow","rightarrow"],"horizon":5,"forced_choices":["rightarrow","rightarrow","leftarrow","rightarrow"],"right_color":"orange","left_color":"lightblue","left_mu":60,"right_mu":68,"left_numbers":[64,66,67,52,55],"right_numbers":[74,67,61,76,66],"points_earned":350,"phase":"task","trial_type":"horizons-task","trial_index":35,"time_elapsed":754097,"internal_node_id":"0.0-31.0","task_version":"0.2"},{"response_times":[747.3549999995157,525.7799999999115,653.4400000000605,538.6400000007125,1489.1999999999534],"keys_pressed":["leftarrow","leftarrow","leftarrow","rightarrow","rightarrow"],"horizon":5,"forced_choices":["leftarrow","leftarrow","leftarrow","rightarrow"],"right_color":"lightblue","left_color":"orange","left_mu":60,"right_mu":90,"left_numbers":[49,59,63,53,64],"right_numbers":[85,95,88,102,93],"points_earned":366,"phase":"task","trial_type":"horizons-task","trial_index":36,"time_elapsed":759556,"internal_node_id":"0.0-32.0","task_version":"0.2"},{"response_times":[761.9349999986589,565.915000001085,564.1550000000279,548.8399999995017,1100.8899999997811,734.5499999992317,676.3049999991199,1730.30499999912,1987.7900000009686,4929.380000001402],"keys_pressed":["leftarrow","leftarrow","rightarrow","rightarrow","leftarrow","leftarrow","rightarrow","rightarrow","leftarrow","leftarrow"],"horizon":10,"forced_choices":["leftarrow","leftarrow","rightarrow","rightarrow"],"right_color":"lightblue","left_color":"orange","left_mu":60,"right_mu":52,"left_numbers":[62,68,50,69,69,55,55,61,58,62],"right_numbers":[48,59,44,47,54,69,58,46,58,55],"points_earned":569,"phase":"task","trial_type":"horizons-task","trial_index":37,"time_elapsed":774660,"internal_node_id":"0.0-33.0","task_version":"0.2"},{"response_times":[1108.9849999989383,445.9299999999348,747.1249999998836,1154.9350000004051,2310.674999998766],"keys_pressed":["rightarrow","leftarrow","rightarrow","rightarrow","leftarrow"],"horizon":5,"forced_choices":["rightarrow","leftarrow","rightarrow","rightarrow"],"right_color":"lightblue","left_color":"orange","left_mu":40,"right_mu":28,"left_numbers":[37,44,42,47,62],"right_numbers":[14,23,45,28,28],"points_earned":193,"phase":"task","trial_type":"horizons-task","trial_index":38,"time_elapsed":781932,"internal_node_id":"0.0-34.0","task_version":"0.2"},{"response_times":[785.185000000638,439.4350000001723,1106.8549999999814,722.8149999991292,2993.4200000007404],"keys_pressed":["leftarrow","rightarrow","leftarrow","rightarrow","rightarrow"],"horizon":5,"forced_choices":["leftarrow","rightarrow","leftarrow","rightarrow"],"right_color":"lightblue","left_color":"orange","left_mu":40,"right_mu":60,"left_numbers":[30,39,32,36,38],"right_numbers":[55,65,54,51,77],"points_earned":255,"phase":"task","trial_type":"horizons-task","trial_index":39,"time_elapsed":789487,"internal_node_id":"0.0-35.0","task_version":"0.2"},{"response_times":[671.0699999984354,651.5950000012526,570.2750000000233,617.9750000010245,1351.7399999999907,815.899999999674,700.5799999989104,1448.8350000010105,1431.1450000004843,7082.664999999921],"keys_pressed":["leftarrow","rightarrow","rightarrow","leftarrow","rightarrow","rightarrow","leftarrow","rightarrow","leftarrow","leftarrow"],"horizon":10,"forced_choices":["leftarrow","rightarrow","rightarrow","leftarrow"],"right_color":"orange","left_color":"lightblue","left_mu":60,"right_mu":40,"left_numbers":[55,61,63,65,53,48,54,63,52,66],"right_numbers":[55,20,37,33,28,40,46,32,49,51],"points_earned":449,"phase":"task","trial_type":"horizons-task","trial_index":40,"time_elapsed":806334,"internal_node_id":"0.0-36.0","task_version":"0.2"},{"response_times":[712.5850000011269,445.49499999999534,520.8500000007916,710.7550000000047,1875.7999999998137],"keys_pressed":["leftarrow","rightarrow","leftarrow","rightarrow","rightarrow"],"horizon":5,"forced_choices":["leftarrow","rightarrow","leftarrow","rightarrow"],"right_color":"lightblue","left_color":"orange","left_mu":60,"right_mu":90,"left_numbers":[51,61,51,52,65],"right_numbers":[89,90,105,80,81],"points_earned":353,"phase":"task","trial_type":"horizons-task","trial_index":41,"time_elapsed":812104,"internal_node_id":"0.0-37.0","task_version":"0.2"},{"response_times":[656.5599999994738,620.0549999994691,479.4399999991292,577.9899999998743,1134.08499999973,656.6849999999395,1338.134999999893,454.1550000011921,1455.2349999995204,1300.8199999985518],"keys_pressed":["leftarrow","leftarrow","rightarrow","leftarrow","rightarrow","rightarrow","leftarrow","leftarrow","rightarrow","leftarrow"],"horizon":10,"forced_choices":["leftarrow","leftarrow","rightarrow","leftarrow"],"right_color":"lightblue","left_color":"orange","left_mu":40,"right_mu":20,"left_numbers":[35,31,45,32,49,27,45,47,47,49],"right_numbers":[18,18,33,11,27,24,31,23,11,28],"points_earned":334,"phase":"task","trial_type":"horizons-task","trial_index":42,"time_elapsed":822282,"internal_node_id":"0.0-38.0","task_version":"0.2"},{"response_times":[1032.3150000004098,555.9400000002934,557.3100000001723,595.9449999990175,1478.8649999990594,1661.17999999912,679.0450000007404,496.01500000059605,6384.7299999997485,5163.719999998575],"keys_pressed":["leftarrow","leftarrow","rightarrow","rightarrow","leftarrow","leftarrow","rightarrow","rightarrow","leftarrow","leftarrow"],"horizon":10,"forced_choices":["leftarrow","leftarrow","rightarrow","rightarrow"],"right_color":"lightblue","left_color":"orange","left_mu":60,"right_mu":56,"left_numbers":[58,70,64,66,54,66,56,50,56,54],"right_numbers":[61,52,49,49,39,53,59,55,46,60],"points_earned":570,"phase":"task","trial_type":"horizons-task","trial_index":43,"time_elapsed":842391,"internal_node_id":"0.0-39.0","task_version":"0.2"},{"response_times":[1016.1300000000047,482.2149999999674,636.9899999990594,805.5599999987753,2411.4399999998277],"keys_pressed":["rightarrow","leftarrow","rightarrow","leftarrow","leftarrow"],"horizon":5,"forced_choices":["rightarrow","leftarrow","rightarrow","leftarrow"],"right_color":"lightblue","left_color":"orange","left_mu":40,"right_mu":28,"left_numbers":[45,28,60,37,58],"right_numbers":[39,30,21,35,29],"points_earned":183,"phase":"task","trial_type":"horizons-task","trial_index":44,"time_elapsed":849247,"internal_node_id":"0.0-40.0","task_version":"0.2"},{"response_times":[1012.494999999064,446.0999999992782,678.2849999999162,554.6099999992875,2720.4749999999767],"keys_pressed":["leftarrow","rightarrow","rightarrow","leftarrow","leftarrow"],"horizon":5,"forced_choices":["leftarrow","rightarrow","rightarrow","leftarrow"],"right_color":"orange","left_color":"lightblue","left_mu":40,"right_mu":36,"left_numbers":[48,37,46,37,29],"right_numbers":[27,27,35,28,28],"points_earned":176,"phase":"task","trial_type":"horizons-task","trial_index":45,"time_elapsed":856164,"internal_node_id":"0.0-41.0","task_version":"0.2"},{"response_times":[715.7700000007171,492.1749999993481,828.4549999989104,917.6999999999534,2567.274999999441],"keys_pressed":["leftarrow","rightarrow","rightarrow","rightarrow","leftarrow"],"horizon":5,"forced_choices":["leftarrow","rightarrow","rightarrow","rightarrow"],"right_color":"orange","left_color":"lightblue","left_mu":40,"right_mu":36,"left_numbers":[50,56,42,47,45],"right_numbers":[37,46,43,28,58],"points_earned":212,"phase":"task","trial_type":"horizons-task","trial_index":46,"time_elapsed":863189,"internal_node_id":"0.0-42.0","task_version":"0.2"},{"response_times":[743.3349999991478,612.1849999999395,519.229999999865,729.0649999995949,962.2849999996834,672.4599999997299,2736.100000000093,738.2099999996135,719.9249999993481,3867.4850000006845],"keys_pressed":["leftarrow","rightarrow","rightarrow","rightarrow","leftarrow","leftarrow","leftarrow","rightarrow","rightarrow","leftarrow"],"horizon":10,"forced_choices":["leftarrow","rightarrow","rightarrow","rightarrow"],"right_color":"orange","left_color":"lightblue","left_mu":40,"right_mu":36,"left_numbers":[42,49,38,35,37,49,38,44,43,49],"right_numbers":[53,32,36,32,25,39,47,29,36,35],"points_earned":380,"phase":"task","trial_type":"horizons-task","trial_index":47,"time_elapsed":876994,"internal_node_id":"0.0-43.0","task_version":"0.2"},{"response_times":[902.6599999997998,514.6250000016298,515.3449999998556,712.1999999999534,1751.88499999966,879.34499999939,543.8500000000931,1700.969999999972,1998.299999999348,984.5850000000792],"keys_pressed":["rightarrow","leftarrow","rightarrow","leftarrow","leftarrow","rightarrow","rightarrow","leftarrow","rightarrow","rightarrow"],"horizon":10,"forced_choices":["rightarrow","leftarrow","rightarrow","leftarrow"],"right_color":"lightblue","left_color":"orange","left_mu":40,"right_mu":70,"left_numbers":[42,50,40,47,34,46,30,38,32,31],"right_numbers":[58,81,75,58,68,63,66,70,68,49],"points_earned":548,"phase":"task","trial_type":"horizons-task","trial_index":48,"time_elapsed":889003,"internal_node_id":"0.0-44.0","task_version":"0.2"},{"response_times":[826.600000000326,434.3900000002468,684.4700000002049,511.67999999958556,898.4599999985658,1894.9050000009593,737.9700000000885,495.18499999982305,3404.7299999983516,1877.4850000009174],"keys_pressed":["rightarrow","rightarrow","rightarrow","leftarrow","leftarrow","leftarrow","rightarrow","rightarrow","leftarrow","leftarrow"],"horizon":10,"forced_choices":["rightarrow","rightarrow","rightarrow","leftarrow"],"right_color":"orange","left_color":"lightblue","left_mu":60,"right_mu":40,"left_numbers":[50,61,71,62,75,65,49,69,68,58],"right_numbers":[35,42,33,59,44,41,21,33,40,33],"points_earned":492,"phase":"task","trial_type":"horizons-task","trial_index":49,"time_elapsed":902274,"internal_node_id":"0.0-45.0","task_version":"0.2"},{"response_times":[804.2299999997485,452.8050000007497,622.8050000008661,662.3249999992549,4254.869999998831],"keys_pressed":["rightarrow","leftarrow","rightarrow","leftarrow","leftarrow"],"horizon":5,"forced_choices":["rightarrow","leftarrow","rightarrow","leftarrow"],"right_color":"orange","left_color":"lightblue","left_mu":60,"right_mu":30,"left_numbers":[60,60,68,59,53],"right_numbers":[36,31,36,33,18],"points_earned":244,"phase":"task","trial_type":"horizons-task","trial_index":50,"time_elapsed":910576,"internal_node_id":"0.0-46.0","task_version":"0.2"},{"view_history":"[{\"page_index\":0,\"viewing_time\":15374.535000000848},{\"page_index\":1,\"viewing_time\":4380.395000000019}]","rt":19755.820000000298,"trial_type":"instructions","trial_index":51,"time_elapsed":930336,"internal_node_id":"0.0-47.0","task_version":"0.2"},{"response_times":[1109.6600000000326,896.8499999991618,1195.8149999991292,491.93499999993946,2722.3499999999767],"keys_pressed":["rightarrow","rightarrow","leftarrow","leftarrow","leftarrow"],"horizon":5,"forced_choices":["rightarrow","rightarrow","leftarrow","leftarrow"],"right_color":"orange","left_color":"lightblue","left_mu":60,"right_mu":64,"left_numbers":[67,50,52,63,63],"right_numbers":[66,58,72,54,75],"points_earned":302,"phase":"task","trial_type":"horizons-task","trial_index":52,"time_elapsed":938289,"internal_node_id":"0.0-48.0","task_version":"0.2"},{"response_times":[700.2900000006193,489.28499999968335,451.31500000029337,586.4949999996461,1267.8649999998743,579.4850000002189,1161.265000000596,416.9999999994179,1326.2149999991525,954.7299999995157],"keys_pressed":["leftarrow","rightarrow","leftarrow","leftarrow","rightarrow","rightarrow","rightarrow","leftarrow","leftarrow","rightarrow"],"horizon":10,"forced_choices":["leftarrow","rightarrow","leftarrow","leftarrow"],"right_color":"lightblue","left_color":"orange","left_mu":40,"right_mu":60,"left_numbers":[47,44,50,47,35,36,40,47,45,52],"right_numbers":[61,54,61,47,60,55,74,61,60,64],"points_earned":543,"phase":"task","trial_type":"horizons-task","trial_index":53,"time_elapsed":947727,"internal_node_id":"0.0-49.0","task_version":"0.2"},{"response_times":[1011.3700000001118,502.89499999955297,671.9149999989895,567.2599999998929,1235.4650000015972],"keys_pressed":["leftarrow","rightarrow","rightarrow","leftarrow","leftarrow"],"horizon":5,"forced_choices":["leftarrow","rightarrow","rightarrow","leftarrow"],"right_color":"orange","left_color":"lightblue","left_mu":60,"right_mu":40,"left_numbers":[61,55,68,67,64],"right_numbers":[37,29,38,39,30],"points_earned":259,"phase":"task","trial_type":"horizons-task","trial_index":54,"time_elapsed":953220,"internal_node_id":"0.0-50.0","task_version":"0.2"},{"response_times":[672.234999999986,394.1100000011502,579.100000000908,680.8549999987008,2701.789999999106],"keys_pressed":["leftarrow","leftarrow","rightarrow","rightarrow","rightarrow"],"horizon":5,"forced_choices":["leftarrow","leftarrow","rightarrow","rightarrow"],"right_color":"lightblue","left_color":"orange","left_mu":40,"right_mu":44,"left_numbers":[38,44,35,44,35],"right_numbers":[46,41,46,49,46],"points_earned":223,"phase":"task","trial_type":"horizons-task","trial_index":55,"time_elapsed":959751,"internal_node_id":"0.0-51.0","task_version":"0.2"},{"response_times":[809.8900000004796,526.2550000005867,502.6549999983981,668.7250000013737,1359.2450000013923,1018.6850000009872,370.6950000014622,582.6400000004796,1063.6049999992829,1681.8750000002328],"keys_pressed":["leftarrow","leftarrow","rightarrow","leftarrow","leftarrow","leftarrow","rightarrow","rightarrow","rightarrow","rightarrow"],"horizon":10,"forced_choices":["leftarrow","leftarrow","rightarrow","leftarrow"],"right_color":"lightblue","left_color":"orange","left_mu":40,"right_mu":70,"left_numbers":[52,47,37,49,40,29,34,35,51,40],"right_numbers":[74,49,93,71,83,80,76,66,77,59],"points_earned":588,"phase":"task","trial_type":"horizons-task","trial_index":56,"time_elapsed":969841,"internal_node_id":"0.0-52.0","task_version":"0.2"},{"response_times":[1017.1549999995623,388.50500000081956,493.6900000011083,649.2200000011362,1144.4350000001723,503.2250000004424,488.64000000129454,511.7850000006147,1152.509999999893,4381.85999999952],"keys_pressed":["leftarrow","leftarrow","rightarrow","leftarrow","leftarrow","leftarrow","rightarrow","rightarrow","rightarrow","leftarrow"],"horizon":10,"forced_choices":["leftarrow","leftarrow","rightarrow","leftarrow"],"right_color":"orange","left_color":"lightblue","left_mu":40,"right_mu":52,"left_numbers":[49,41,37,37,32,39,40,46,39,38],"right_numbers":[61,44,54,62,52,46,54,59,52,47],"points_earned":455,"phase":"task","trial_type":"horizons-task","trial_index":57,"time_elapsed":982076,"internal_node_id":"0.0-53.0","task_version":"0.2"},{"response_times":[888.34499999939,505.72999999893364,690.2049999990268,597.2550000005867,958.229999998468,381.3300000001909,1828.2500000004657,405.1849999995902,844.4350000008708,3095.745000000461],"keys_pressed":["rightarrow","rightarrow","rightarrow","leftarrow","leftarrow","leftarrow","leftarrow","rightarrow","rightarrow","leftarrow"],"horizon":10,"forced_choices":["rightarrow","rightarrow","rightarrow","leftarrow"],"right_color":"lightblue","left_color":"orange","left_mu":60,"right_mu":52,"left_numbers":[73,65,59,65,38,63,56,50,68,64],"right_numbers":[63,58,65,49,55,41,41,55,41,52],"points_earned":568,"phase":"task","trial_type":"horizons-task","trial_index":58,"time_elapsed":993775,"internal_node_id":"0.0-54.0","task_version":"0.2"},{"response_times":[766.7149999997346,492.51499999989755,430.9149999989895,926.739999998943,1968.955000000191],"keys_pressed":["leftarrow","rightarrow","leftarrow","leftarrow","rightarrow"],"horizon":5,"forced_choices":["leftarrow","rightarrow","leftarrow","leftarrow"],"right_color":"lightblue","left_color":"orange","left_mu":40,"right_mu":60,"left_numbers":[44,29,50,40,34],"right_numbers":[62,53,45,59,68],"points_earned":255,"phase":"task","trial_type":"horizons-task","trial_index":59,"time_elapsed":999866,"internal_node_id":"0.0-55.0","task_version":"0.2"},{"response_times":[715.3149999994785,511.26499999919906,656.4300000008661,543.9750000004424,5790.689999999828],"keys_pressed":["rightarrow","leftarrow","rightarrow","leftarrow","leftarrow"],"horizon":5,"forced_choices":["rightarrow","leftarrow","rightarrow","leftarrow"],"right_color":"lightblue","left_color":"orange","left_mu":40,"right_mu":70,"left_numbers":[49,29,31,58,49],"right_numbers":[67,74,66,66,72],"points_earned":269,"phase":"task","trial_type":"horizons-task","trial_index":60,"time_elapsed":1009588,"internal_node_id":"0.0-56.0","task_version":"0.2"},{"response_times":[702.0899999988033,436.1350000000093,463.11999999848194,636.6699999999255,1021.0499999993481,764.8250000001863,730.7550000004703,437.82999999891035,730.0150000010617,1881.1100000002189],"keys_pressed":["rightarrow","leftarrow","leftarrow","rightarrow","leftarrow","leftarrow","leftarrow","rightarrow","rightarrow","leftarrow"],"horizon":10,"forced_choices":["rightarrow","leftarrow","leftarrow","rightarrow"],"right_color":"orange","left_color":"lightblue","left_mu":40,"right_mu":32,"left_numbers":[34,38,27,38,42,41,45,40,50,39],"right_numbers":[28,26,27,32,29,23,35,24,23,31],"points_earned":339,"phase":"task","trial_type":"horizons-task","trial_index":61,"time_elapsed":1018896,"internal_node_id":"0.0-57.0","task_version":"0.2"},{"response_times":[963.9200000001583,699.8850000000093,1994.4949999989476,396.3349999994971,1288.800000000163,329.25500000058673,569.9199999999255,457.60999999952037,1116.8350000006612,1214.4000000007218],"keys_pressed":["leftarrow","rightarrow","leftarrow","rightarrow","rightarrow","rightarrow","leftarrow","leftarrow","leftarrow","rightarrow"],"horizon":10,"forced_choices":["leftarrow","rightarrow","leftarrow","rightarrow"],"right_color":"lightblue","left_color":"orange","left_mu":60,"right_mu":90,"left_numbers":[62,48,55,72,58,43,56,55,52,72],"right_numbers":[92,90,93,79,85,80,103,82,87,90],"points_earned":704,"phase":"task","trial_type":"horizons-task","trial_index":62,"time_elapsed":1029431,"internal_node_id":"0.0-58.0","task_version":"0.2"},{"response_times":[737.8899999985006,402.2600000007078,642.6100000008009,550.1199999998789,2112.5700000012293],"keys_pressed":["rightarrow","leftarrow","leftarrow","rightarrow","leftarrow"],"horizon":5,"forced_choices":["rightarrow","leftarrow","leftarrow","rightarrow"],"right_color":"orange","left_color":"lightblue","left_mu":40,"right_mu":32,"left_numbers":[45,44,48,38,32],"right_numbers":[40,30,24,30,22],"points_earned":194,"phase":"task","trial_type":"horizons-task","trial_index":63,"time_elapsed":1035380,"internal_node_id":"0.0-59.0","task_version":"0.2"},{"response_times":[714.614999998943,396.34499999927357,1373.704999999958,423.0450000013225,1803.9899999984773],"keys_pressed":["leftarrow","leftarrow","rightarrow","rightarrow","leftarrow"],"horizon":5,"forced_choices":["leftarrow","leftarrow","rightarrow","rightarrow"],"right_color":"lightblue","left_color":"orange","left_mu":60,"right_mu":52,"left_numbers":[41,64,72,58,60],"right_numbers":[53,54,44,62,55],"points_earned":271,"phase":"task","trial_type":"horizons-task","trial_index":64,"time_elapsed":1041596,"internal_node_id":"0.0-60.0","task_version":"0.2"},{"response_times":[1828.140000001411,418.9100000002654,1073.4649999995017,932.684999999823,1435.279999999795,380.1600000006147,972.0349999989849,318.6850000002887,568.0449999999255,2412.85500000068],"keys_pressed":["rightarrow","rightarrow","leftarrow","rightarrow","rightarrow","rightarrow","leftarrow","leftarrow","leftarrow","rightarrow"],"horizon":10,"forced_choices":["rightarrow","rightarrow","leftarrow","rightarrow"],"right_color":"orange","left_color":"lightblue","left_mu":60,"right_mu":68,"left_numbers":[48,66,60,55,55,51,52,56,51,55],"right_numbers":[77,64,64,60,61,59,68,73,70,45],"points_earned":585,"phase":"task","trial_type":"horizons-task","trial_index":65,"time_elapsed":1053440,"internal_node_id":"0.0-61.0","task_version":"0.2"},{"response_times":[1876.8199999995995,895.1299999989569,512.3199999998324,436.9050000004936,590.9300000004005,370.3449999995064,688.759999999078,2146.4950000008103,349.81499999947846,967.5250000001397],"keys_pressed":["rightarrow","leftarrow","leftarrow","leftarrow","rightarrow","rightarrow","rightarrow","rightarrow","leftarrow","rightarrow"],"horizon":10,"forced_choices":["rightarrow","leftarrow","leftarrow","leftarrow"],"right_color":"lightblue","left_color":"orange","left_mu":60,"right_mu":80,"left_numbers":[54,59,68,61,61,61,54,63,72,57],"right_numbers":[80,70,84,90,79,73,65,91,77,88],"points_earned":736,"phase":"task","trial_type":"horizons-task","trial_index":66,"time_elapsed":1063780,"internal_node_id":"0.0-62.0","task_version":"0.2"},{"response_times":[912.7550000012852,438.6400000003632,429.49000000045635,523.6850000002887,613.7049999998417,417.68000000040047,865.8049999994691,1046.1199999989476,865.7450000010431,1754.380000000354],"keys_pressed":["rightarrow","leftarrow","leftarrow","leftarrow","rightarrow","rightarrow","rightarrow","rightarrow","leftarrow","leftarrow"],"horizon":10,"forced_choices":["rightarrow","leftarrow","leftarrow","leftarrow"],"right_color":"orange","left_color":"lightblue","left_mu":60,"right_mu":48,"left_numbers":[63,69,62,76,53,56,58,71,54,71],"right_numbers":[44,43,51,46,61,49,48,49,52,50],"points_earned":583,"phase":"task","trial_type":"horizons-task","trial_index":67,"time_elapsed":1073153,"internal_node_id":"0.0-63.0","task_version":"0.2"},{"response_times":[742.615000000922,502.089999999851,472.1449999997858,573.2650000008289,1161.4900000004563,515.0799999991432,1343.8100000002887,489.0750000013504,1065.0550000008661,854.5450000001583],"keys_pressed":["rightarrow","leftarrow","rightarrow","leftarrow","leftarrow","leftarrow","rightarrow","rightarrow","leftarrow","leftarrow"],"horizon":10,"forced_choices":["rightarrow","leftarrow","rightarrow","leftarrow"],"right_color":"orange","left_color":"lightblue","left_mu":60,"right_mu":30,"left_numbers":[65,62,69,65,56,54,67,65,57,82],"right_numbers":[31,20,16,27,32,27,38,20,20,43],"points_earned":481,"phase":"task","trial_type":"horizons-task","trial_index":68,"time_elapsed":1082376,"internal_node_id":"0.0-64.0","task_version":"0.2"},{"response_times":[745.9799999997485,476.78499999898486,833.8750000002328,534.4150000000373,1150.5099999995437],"keys_pressed":["rightarrow","leftarrow","leftarrow","leftarrow","rightarrow"],"horizon":5,"forced_choices":["rightarrow","leftarrow","leftarrow","leftarrow"],"right_color":"lightblue","left_color":"orange","left_mu":60,"right_mu":80,"left_numbers":[41,56,62,49,71],"right_numbers":[88,67,79,80,82],"points_earned":337,"phase":"task","trial_type":"horizons-task","trial_index":69,"time_elapsed":1087621,"internal_node_id":"0.0-65.0","task_version":"0.2"},{"response_times":[925.3950000002515,425.3300000000745,625.6200000008103,541.7250000010245,2499.6050000009127],"keys_pressed":["rightarrow","leftarrow","leftarrow","leftarrow","rightarrow"],"horizon":5,"forced_choices":["rightarrow","leftarrow","leftarrow","leftarrow"],"right_color":"lightblue","left_color":"orange","left_mu":40,"right_mu":44,"left_numbers":[53,39,39,34,21],"right_numbers":[34,69,51,44,36],"points_earned":182,"phase":"task","trial_type":"horizons-task","trial_index":70,"time_elapsed":1094143,"internal_node_id":"0.0-66.0","task_version":"0.2"},{"response_times":[913.0249999999069,584.6449999990873,598.3899999991991,565.160000000149,1381.6100000003353],"keys_pressed":["leftarrow","rightarrow","rightarrow","leftarrow","rightarrow"],"horizon":5,"forced_choices":["leftarrow","rightarrow","rightarrow","leftarrow"],"right_color":"orange","left_color":"lightblue","left_mu":40,"right_mu":52,"left_numbers":[40,36,51,30,30],"right_numbers":[60,41,54,50,61],"points_earned":226,"phase":"task","trial_type":"horizons-task","trial_index":71,"time_elapsed":1099690,"internal_node_id":"0.0-67.0","task_version":"0.2"},{"response_times":[1813.7549999991897,580.8600000001024,476.79000000073574,990.525000001071,1381.7149999996182],"keys_pressed":["rightarrow","rightarrow","leftarrow","rightarrow","leftarrow"],"horizon":5,"forced_choices":["rightarrow","rightarrow","leftarrow","rightarrow"],"right_color":"lightblue","left_color":"orange","left_mu":60,"right_mu":56,"left_numbers":[66,64,58,58,61],"right_numbers":[41,52,60,64,62],"points_earned":276,"phase":"task","trial_type":"horizons-task","trial_index":72,"time_elapsed":1106438,"internal_node_id":"0.0-68.0","task_version":"0.2"},{"response_times":[715.5149999998976,352.35000000102445,426.72000000136904,471.0750000013504,1201.4650000003166,369.0649999990128,265.23000000067987,1461.2100000013597,2056.6399999989662,889.5750000011176],"keys_pressed":["rightarrow","leftarrow","leftarrow","leftarrow","rightarrow","rightarrow","rightarrow","leftarrow","rightarrow","leftarrow"],"horizon":10,"forced_choices":["rightarrow","leftarrow","leftarrow","leftarrow"],"right_color":"lightblue","left_color":"orange","left_mu":40,"right_mu":44,"left_numbers":[30,29,40,39,37,35,42,47,39,30],"right_numbers":[32,40,46,44,37,27,51,46,45,34],"points_earned":377,"phase":"task","trial_type":"horizons-task","trial_index":73,"time_elapsed":1116152,"internal_node_id":"0.0-69.0","task_version":"0.2"},{"response_times":[837.1400000015274,295.27500000037253,458.40499999932945,588.669999999227,1154.9749999996275,1194.3050000008661,322.84999999869615,872.5549999999348,2004.4949999991804,2332.6699999996927],"keys_pressed":["rightarrow","leftarrow","rightarrow","rightarrow","rightarrow","leftarrow","leftarrow","leftarrow","rightarrow","rightarrow"],"horizon":10,"forced_choices":["rightarrow","leftarrow","rightarrow","rightarrow"],"right_color":"orange","left_color":"lightblue","left_mu":60,"right_mu":64,"left_numbers":[70,59,60,65,60,64,62,64,62,69],"right_numbers":[53,52,66,68,59,62,60,64,78,52],"points_earned":625,"phase":"task","trial_type":"horizons-task","trial_index":74,"time_elapsed":1127718,"internal_node_id":"0.0-70.0","task_version":"0.2"},{"response_times":[799.7700000014156,1186.6500000015367,670.635000000475,795.6500000001397,1315.380000000121],"keys_pressed":["leftarrow","rightarrow","leftarrow","rightarrow","leftarrow"],"horizon":5,"forced_choices":["leftarrow","rightarrow","leftarrow","rightarrow"],"right_color":"orange","left_color":"lightblue","left_mu":60,"right_mu":48,"left_numbers":[58,51,60,68,72],"right_numbers":[55,60,56,42,53],"points_earned":292,"phase":"task","trial_type":"horizons-task","trial_index":75,"time_elapsed":1133991,"internal_node_id":"0.0-71.0","task_version":"0.2"},{"response_times":[729.3249999983236,752.1849999993574,582.9850000008009,567.9949999994133,1065.3450000009034,470.7249999991618,722.7750000003725,316.42000000108965,490.36500000138767,2526.7050000000745],"keys_pressed":["leftarrow","rightarrow","rightarrow","leftarrow","leftarrow","leftarrow","rightarrow","rightarrow","rightarrow","leftarrow"],"horizon":10,"forced_choices":["leftarrow","rightarrow","rightarrow","leftarrow"],"right_color":"orange","left_color":"lightblue","left_mu":40,"right_mu":36,"left_numbers":[33,31,44,43,54,46,41,33,31,29],"right_numbers":[43,35,21,23,38,44,21,38,34,41],"points_earned":354,"phase":"task","trial_type":"horizons-task","trial_index":76,"time_elapsed":1143722,"internal_node_id":"0.0-72.0","task_version":"0.2"},{"response_times":[649.8549999995157,439.49000000045635,443.69499999983236,1093.7199999990407,1335.944999998901],"keys_pressed":["leftarrow","rightarrow","rightarrow","rightarrow","leftarrow"],"horizon":5,"forced_choices":["leftarrow","rightarrow","rightarrow","rightarrow"],"right_color":"orange","left_color":"lightblue","left_mu":40,"right_mu":48,"left_numbers":[29,48,39,35,39],"right_numbers":[53,48,65,43,39],"points_earned":224,"phase":"task","trial_type":"horizons-task","trial_index":77,"time_elapsed":1149189,"internal_node_id":"0.0-73.0","task_version":"0.2"},{"response_times":[670.2000000004191,415.12499999953434,436.4400000013411,531.885000000475,1173.010000000475],"keys_pressed":["rightarrow","rightarrow","rightarrow","leftarrow","rightarrow"],"horizon":5,"forced_choices":["rightarrow","rightarrow","rightarrow","leftarrow"],"right_color":"lightblue","left_color":"orange","left_mu":60,"right_mu":52,"left_numbers":[69,63,59,44,63],"right_numbers":[42,59,51,48,53],"points_earned":249,"phase":"task","trial_type":"horizons-task","trial_index":78,"time_elapsed":1153920,"internal_node_id":"0.0-74.0","task_version":"0.2"},{"response_times":[667.2999999991152,459.580000000773,514.4400000008754,398.60000000032596,1131.779999999795,471.3749999990687,443.5900000007823,1129.6600000006147,1345.709999999497,1808.9000000001397],"keys_pressed":["rightarrow","rightarrow","leftarrow","leftarrow","leftarrow","rightarrow","rightarrow","rightarrow","leftarrow","rightarrow"],"horizon":10,"forced_choices":["rightarrow","rightarrow","leftarrow","leftarrow"],"right_color":"lightblue","left_color":"orange","left_mu":60,"right_mu":72,"left_numbers":[62,66,49,72,68,60,62,65,42,58],"right_numbers":[66,79,59,70,74,76,76,54,76,80],"points_earned":662,"phase":"task","trial_type":"horizons-task","trial_index":79,"time_elapsed":1163795,"internal_node_id":"0.0-75.0","task_version":"0.2"},{"response_times":[4189.92499999865,480.1499999992084,482.29000000003725,678.480000000447,1602.860000000801],"keys_pressed":["leftarrow","leftarrow","rightarrow","leftarrow","leftarrow"],"horizon":5,"forced_choices":["leftarrow","leftarrow","rightarrow","leftarrow"],"right_color":"lightblue","left_color":"orange","left_mu":40,"right_mu":20,"left_numbers":[40,47,34,39,27],"right_numbers":[16,6,16,27,16],"points_earned":169,"phase":"task","trial_type":"horizons-task","trial_index":80,"time_elapsed":1172734,"internal_node_id":"0.0-76.0","task_version":"0.2"},{"response_times":[742.39500000095,419.77000000025146,453.3649999992922,642.7000000004191,2125.194999998668],"keys_pressed":["rightarrow","leftarrow","leftarrow","leftarrow","rightarrow"],"horizon":5,"forced_choices":["rightarrow","leftarrow","leftarrow","leftarrow"],"right_color":"orange","left_color":"lightblue","left_mu":60,"right_mu":48,"left_numbers":[72,60,65,54,62],"right_numbers":[50,53,39,53,44],"points_earned":273,"phase":"task","trial_type":"horizons-task","trial_index":81,"time_elapsed":1178622,"internal_node_id":"0.0-77.0","task_version":"0.2"},{"response_times":[680.6349999986123,360.7000000011176,416.1600000006147,432.93500000075437,1046.649999998277,315.17499999981374,969.2900000009686,534.7800000000279,1219.4550000003073,909.6350000000093],"keys_pressed":["leftarrow","leftarrow","leftarrow","rightarrow","rightarrow","rightarrow","rightarrow","leftarrow","rightarrow","rightarrow"],"horizon":10,"forced_choices":["leftarrow","leftarrow","leftarrow","rightarrow"],"right_color":"lightblue","left_color":"orange","left_mu":60,"right_mu":90,"left_numbers":[72,48,59,60,63,59,65,56,56,65],"right_numbers":[88,95,91,82,92,90,91,87,98,93],"points_earned":781,"phase":"task","trial_type":"horizons-task","trial_index":82,"time_elapsed":1187013,"internal_node_id":"0.0-78.0","task_version":"0.2"},{"response_times":[860.7800000009593,362.035000000149,509.83500000089407,664.8699999987148,5982.285000000149],"keys_pressed":["leftarrow","leftarrow","rightarrow","leftarrow","rightarrow"],"horizon":5,"forced_choices":["leftarrow","leftarrow","rightarrow","leftarrow"],"right_color":"orange","left_color":"lightblue","left_mu":40,"right_mu":52,"left_numbers":[45,30,44,48,33],"right_numbers":[48,59,48,52,50],"points_earned":221,"phase":"task","trial_type":"horizons-task","trial_index":83,"time_elapsed":1196897,"internal_node_id":"0.0-79.0","task_version":"0.2"},{"response_times":[949.0100000002421,396.8850000000093,714.9900000002235,642.4499999992549,5801.429999999702],"keys_pressed":["leftarrow","leftarrow","rightarrow","rightarrow","rightarrow"],"horizon":5,"forced_choices":["leftarrow","leftarrow","rightarrow","rightarrow"],"right_color":"lightblue","left_color":"orange","left_mu":60,"right_mu":56,"left_numbers":[60,57,51,59,47],"right_numbers":[46,62,61,51,61],"points_earned":290,"phase":"task","trial_type":"horizons-task","trial_index":84,"time_elapsed":1206905,"internal_node_id":"0.0-80.0","task_version":"0.2"},{"response_times":[999.7650000003632,432.63999999896623,499.7000000004191,541.3050000006333,1097.630000000354,465.2450000012759,467.9400000004098,366.25999999884516,574.2900000005029,8340.385000001406],"keys_pressed":["rightarrow","rightarrow","leftarrow","rightarrow","rightarrow","rightarrow","leftarrow","leftarrow","leftarrow","rightarrow"],"horizon":10,"forced_choices":["rightarrow","rightarrow","leftarrow","rightarrow"],"right_color":"lightblue","left_color":"orange","left_mu":60,"right_mu":56,"left_numbers":[59,57,58,51,49,57,50,45,66,62],"right_numbers":[61,57,64,53,55,46,43,55,55,66],"points_earned":557,"phase":"task","trial_type":"horizons-task","trial_index":85,"time_elapsed":1222195,"internal_node_id":"0.0-81.0","task_version":"0.2"},{"response_times":[870.2900000007357,400.3250000004191,406.16499999840744,500.3099999995902,419.8849999993108,740.3450000002049,344.54000000003725,399.97500000009313,3999.3749999993015,1207.7099999987986],"keys_pressed":["leftarrow","leftarrow","leftarrow","rightarrow","rightarrow","rightarrow","leftarrow","leftarrow","rightarrow","leftarrow"],"horizon":10,"forced_choices":["leftarrow","leftarrow","leftarrow","rightarrow"],"right_color":"orange","left_color":"lightblue","left_mu":40,"right_mu":10,"left_numbers":[40,34,38,32,36,46,32,32,35,33],"right_numbers":[0,7,10,14,20,9,15,6,5,18],"points_earned":257,"phase":"task","trial_type":"horizons-task","trial_index":86,"time_elapsed":1232990,"internal_node_id":"0.0-82.0","task_version":"0.2"},{"response_times":[1719.8800000005867,466.99999999883585,408.7450000005774,612.2700000014156,965.4350000000559,360.5700000007637,580.2249999996275,411.72999999974854,2584.030000000028,19859.499999998603],"keys_pressed":["rightarrow","leftarrow","leftarrow","rightarrow","rightarrow","rightarrow","leftarrow","leftarrow","leftarrow","leftarrow"],"horizon":10,"forced_choices":["rightarrow","leftarrow","leftarrow","rightarrow"],"right_color":"orange","left_color":"lightblue","left_mu":40,"right_mu":10,"left_numbers":[33,49,39,34,40,48,48,35,31,44],"right_numbers":[0,17,8,22,18,12,16,4,7,16],"points_earned":298,"phase":"task","trial_type":"horizons-task","trial_index":87,"time_elapsed":1262463,"internal_node_id":"0.0-83.0","task_version":"0.2"},{"response_times":[713.8749999993015,333.27499999897555,658.3049999990035,506.8950000004843,6412.954999999842],"keys_pressed":["leftarrow","leftarrow","leftarrow","rightarrow","leftarrow"],"horizon":5,"forced_choices":["leftarrow","leftarrow","leftarrow","rightarrow"],"right_color":"orange","left_color":"lightblue","left_mu":40,"right_mu":10,"left_numbers":[36,30,32,30,37],"right_numbers":[4,0,14,12,0],"points_earned":147,"phase":"task","trial_type":"horizons-task","trial_index":88,"time_elapsed":1272592,"internal_node_id":"0.0-84.0","task_version":"0.2"},{"response_times":[653.4300000004005,616.3249999990221,515.0849999990314,778.285000000149,4188.240000001388],"keys_pressed":["leftarrow","rightarrow","rightarrow","rightarrow","leftarrow"],"horizon":5,"forced_choices":["leftarrow","rightarrow","rightarrow","rightarrow"],"right_color":"orange","left_color":"lightblue","left_mu":60,"right_mu":30,"left_numbers":[64,73,78,53,73],"right_numbers":[25,37,23,23,33],"points_earned":220,"phase":"task","trial_type":"horizons-task","trial_index":89,"time_elapsed":1280848,"internal_node_id":"0.0-85.0","task_version":"0.2"},{"response_times":[734.4850000010338,492.5299999995623,421.1400000003632,477.08000000054017,3738.1400000012945],"keys_pressed":["rightarrow","leftarrow","leftarrow","rightarrow","leftarrow"],"horizon":5,"forced_choices":["rightarrow","leftarrow","leftarrow","rightarrow"],"right_color":"orange","left_color":"lightblue","left_mu":40,"right_mu":10,"left_numbers":[38,31,45,37,35],"right_numbers":[15,19,12,9,14],"points_earned":135,"phase":"task","trial_type":"horizons-task","trial_index":90,"time_elapsed":1288216,"internal_node_id":"0.0-86.0","task_version":"0.2"},{"response_times":[684.1700000003912,361.2549999996554,501.69499999913387,581.7200000002049,1569.0699999995995,292.9349999993574,473.67000000108965,371.410000001546,797.4950000008103,7320.645000001648],"keys_pressed":["rightarrow","leftarrow","leftarrow","rightarrow","rightarrow","rightarrow","leftarrow","leftarrow","leftarrow","rightarrow"],"horizon":10,"forced_choices":["rightarrow","leftarrow","leftarrow","rightarrow"],"right_color":"lightblue","left_color":"orange","left_mu":60,"right_mu":80,"left_numbers":[58,67,84,68,64,46,55,46,62,68],"right_numbers":[82,63,81,85,73,79,63,77,80,87],"points_earned":720,"phase":"task","trial_type":"horizons-task","trial_index":91,"time_elapsed":1302688,"internal_node_id":"0.0-87.0","task_version":"0.2"},{"rt":22508.104999998817,"responses":{"age":"28","gender-categorical":"Female","gender-free-response":"","ethnicity":"Hispanic or Latino","race":["White"],"language":"Yes","fluency":"Very well"},"survey":"demographics","trial_type":"survey-demo","trial_index":92,"time_elapsed":1325205,"internal_node_id":"0.0-88.0","task_version":"0.2"},{"rt":34035.674999999115,"responses":{"difficulty":"3","fun":"5","clarity":"5","strategy":"Looked for any visible patterns.","feedback":"I enjoyed this study."},"survey":"debrief","trial_type":"survey-debrief","trial_index":93,"time_elapsed":1359248,"internal_node_id":"0.0-89.0","task_version":"0.2","interactions":"[]"}]