[{"view_history":"[{\"page_index\":0,\"viewing_time\":3689.6750000305474}]","rt":3690.240000025369,"trial_type":"instructions","trial_index":0,"time_elapsed":3700,"internal_node_id":"0.0-0.0","task_version":"0.2"},{"item_order":[13,16,0,6,3,8,12,1,4,10,9,11,5,14,2,15,7],"responses":{"Q14":"1","Q17":"0","Q01":"1","Q07":"1","Q04":"1","Q09":"1","Q13":"1","Q02":"1","Q05":"1","Q11":"1","Q10":"2","Q12":"0","Q06":"1","Q15":"0","Q03":"1","Q16":"1","Q08":"1"},"radio_events":[2731.5850000013597,8595.570000004955,14987.635000026785,15139.145000022836,18979.265000030864,21899.36000003945,23859.545000013895,27531.270000035875,31411.160000017844,31627.19000002835,37227.725000004284,71739.60500000976,76419.37499999767,79875.75500004459,83627.35500000417,88467.32500003418,90723.20500004571,92187.6700000139,92395.80500003649,96291.48000001442,99795.42000003858,101411.51500004344,104659.31499999715],"key_events":[],"mouse_events":[0.10500004282221198,2731.5850000013597,5867.575000040233,6363.18000004394,6987.290000019129,7891.475000011269,8299.274999997579,8595.570000004955,12555.805000010878,13043.270000023767,13476.375000027474,13907.195000036154,14155.430000042543,14347.370000032242,14547.205000009853,14987.635000026785,15139.145000022836,17051.550000032876,17627.529999997932,18379.195000045,18979.265000030864,21339.445000048727,21899.36000003945,23859.545000013895,26691.55500002671,27531.270000035875,29179.27000002237,29667.2350000008,30051.35500000324,30491.230000043288,30835.665000020526,31411.160000017844,31627.19000002835,33963.94500002498,35755.83000003826,36027.564999996684,36371.25000002561,36979.25500001293,37227.725000004284,70819.60500002606,71739.60500000976,75795.53500004113,76419.37499999767,78355.84999999264,79035.2600000333,79451.26500003971,79875.75500004459,80427.5600000401,80859.19500002638,83627.35500000417,88467.32500003418,89939.37000003643,90371.4050000417,90723.20500004571,91531.24000004027,92187.6700000139,92395.80500003649,95259.37000004342,95915.34000000684,96291.48000001442,99795.42000003858,101156.38500003843,101411.51500004344,104187.26000003517,104659.31499999715,105683.6300000432],"rt":105688.10500000836,"survey":"pswq","trial_type":"survey-template","trial_index":1,"time_elapsed":109396,"internal_node_id":"0.0-1.0","task_version":"0.2"},{"item_order":[0,4,8,6,9,12,7,10,3,1,11,5,2],"responses":{"Q01":"1","Q05":"1","Q09":"2","Q07":"1","Q10":"0","Q13":"4","Q08":"1","Q11":"1","Q04":"2","Q02":"2","Q12":"1","Q06":"1","Q03":"1"},"radio_events":[6751.280000025872,11278.805000009015,12782.565000001341,17606.605000037234,25343.460000003688,27278.705000004265,30710.735000029672,34439.14999999106,40182.51000001328,42318.49500001408,42550.57000002125,46302.69500002032,51062.44499998866,53310.880000004545,55854.64999999385,58158.585000026505],"key_events":[],"mouse_events":[6751.280000025872,10878.925000026356,11278.805000009015,12182.655000011437,12494.524999987334,12782.565000001341,14206.820000021253,15454.625000013039,16854.555000027176,17606.605000037234,25054.400000022724,25343.460000003688,26990.890000015497,27278.705000004265,30262.705000001006,30710.735000029672,33262.879999994766,34014.930000004824,34439.14999999106,37534.67500000261,38310.570000030566,40182.51000001328,41910.610000020824,42318.49500001408,42550.57000002125,46302.69500002032,50486.78000003565,50798.5650000046,51062.44499998866,53310.880000004545,55574.84000001568,55854.64999999385,58158.585000026505,59150.74499999173],"rt":59152.69499999704,"survey":"ius12","trial_type":"survey-template","trial_index":2,"time_elapsed":168559,"internal_node_id":"0.0-2.0","task_version":"0.2"},{"item_order":[4,6,5,2,11,10,14,1,12,9,8,3,13,15,7,0],"responses":{"Q05":"0","Q07":"3","Q06":"2","Q03":"3","Q12":"2","Q11":"4","Q15":"1","Q02":"3","Q13":"3","Q10":"3","Q09":"2","Q04":"2","Q14":"3","Q16":"5","Q08":"3","Q01":"3"},"radio_events":[11357.989999989513,14278.11000001384,17045.970000035595,20454.535000026226,25430.04499998642,27366.050000011455,31502.21499998588,31813.925000024028,32134.015000017826,35989.98000001302,40133.81000002846,45662.1949999826,46381.9600000279,49021.97499998147,53005.875000031665,57534.12999998545,62782.10000001127,65726.06000001542,66005.96000003861,70837.87500002654,76102.10499999812,77536.1350000021,83150.00500000315,85422.4750000285],"key_events":[],"mouse_events":[11357.989999989513,12917.795000015758,13342.019999981858,13677.859999996144,14038.315000012517,14278.11000001384,17045.970000035595,20102.09500003839,20454.535000026226,24974.25500000827,25430.04499998642,26910.20500002196,27366.050000011455,31173.869999998715,31502.21499998588,31813.925000024028,32134.015000017826,34550.459999998566,35989.98000001302,37886.41000003554,38942.44499999331,39141.91000000574,39486.18499998702,39814.09500003792,40133.81000002846,45662.1949999826,46381.9600000279,48646.260000008624,49021.97499998147,52701.80000003893,53005.875000031665,56614.18000003323,56909.90000002785,57534.12999998545,62230.5500000366,62565.70500001544,62782.10000001127,65726.06000001542,66005.96000003861,70837.87500002654,73581.99500001501,76102.10499999812,77536.1350000021,82293.79000002518,82765.93500003219,83150.00500000315,85422.4750000285,87382.6049999916,88918.50500000874],"rt":88921.80499999085,"survey":"nfc","trial_type":"survey-template","trial_index":3,"time_elapsed":257489,"internal_node_id":"0.0-3.0","task_version":"0.2"},{"view_history":"[{\"page_index\":0,\"viewing_time\":4470.295000006445},{\"page_index\":1,\"viewing_time\":6191.884999978356},{\"page_index\":2,\"viewing_time\":228015.86000004318},{\"page_index\":3,\"viewing_time\":5888.054999988526},{\"page_index\":4,\"viewing_time\":4512.01999996556},{\"page_index\":5,\"viewing_time\":3959.9900000030175},{\"page_index\":6,\"viewing_time\":6540.345000044908},{\"page_index\":7,\"viewing_time\":6419.584999966901},{\"page_index\":8,\"viewing_time\":5520.185000030324},{\"page_index\":9,\"viewing_time\":9247.764999978244}]","rt":280766.7900000233,"trial_type":"instructions","trial_index":4,"time_elapsed":538260,"internal_node_id":"0.0-4.0-0.0","task_version":"0.2"},{"response_times":[2830.0250000320375,866.2699999986216,672.1000000252388,669.2049999837764,5343.0999999982305],"keys_pressed":["rightarrow","leftarrow","rightarrow","rightarrow","leftarrow"],"horizon":5,"forced_choices":["rightarrow","leftarrow","rightarrow","rightarrow"],"right_color":"lightblue","left_color":"orange","left_mu":40,"right_mu":20,"left_numbers":[31,39,41,24,34],"right_numbers":[22,10,22,12,19],"points_earned":129,"phase":"practice","trial_type":"horizons-task","trial_index":5,"time_elapsed":550152,"internal_node_id":"0.0-4.0-1.0","task_version":"0.2"},{"response_times":[986.5850000060163,1552.1500000031665,987.3500000103377,855.2599999820814,4357.120000000577,3817.0350000145845,21207.475000002887,19597.429999965243,1098.7650000024587,1124.2900000070222],"keys_pressed":["leftarrow","leftarrow","rightarrow","rightarrow","rightarrow","rightarrow","rightarrow","rightarrow","rightarrow","rightarrow"],"horizon":10,"forced_choices":["leftarrow","leftarrow","rightarrow","rightarrow"],"right_color":"orange","left_color":"lightblue","left_mu":60,"right_mu":70,"left_numbers":[60,72,54,65,50,66,55,66,55,66],"right_numbers":[67,69,75,70,74,59,62,83,55,77],"points_earned":687,"phase":"practice","trial_type":"horizons-task","trial_index":6,"time_elapsed":607240,"internal_node_id":"0.0-4.0-2.0","task_version":"0.2"},{"view_history":"[{\"page_index\":0,\"viewing_time\":7067.244999983814},{\"page_index\":1,\"viewing_time\":2672.135000000708},{\"page_index\":2,\"viewing_time\":3887.9799999995157},{\"page_index\":3,\"viewing_time\":2599.9200000078417}]","rt":16227.57999994792,"trial_type":"instructions","trial_index":7,"time_elapsed":623468,"internal_node_id":"0.0-4.0-3.0","task_version":"0.2"},{"responses":["true","false","true"],"num_errors":0,"rt":11006.554999970831,"trial_type":"horizons-comprehension","trial_index":8,"time_elapsed":634477,"internal_node_id":"0.0-4.0-4.0","task_version":"0.2"},{"trial_type":"call-function","trial_index":9,"time_elapsed":634483,"internal_node_id":"0.0-5.0","task_version":"0.2"},{"view_history":"[{\"page_index\":0,\"viewing_time\":1575.8500000229105},{\"page_index\":1,\"viewing_time\":4111.855000024661}]","rt":5688.070000032894,"trial_type":"instructions","trial_index":10,"time_elapsed":640172,"internal_node_id":"0.0-6.0","task_version":"0.2"},{"response_times":[1533.919999958016,1125.9399999980815,1187.2899999725632,5190.319999994244,4440.465000050608,2882.889999949839,1368.4249999932945,760.1049999939278,501.7200000002049,431.21000000974163],"keys_pressed":["leftarrow","leftarrow","rightarrow","rightarrow","rightarrow","leftarrow","leftarrow","leftarrow","leftarrow","leftarrow"],"horizon":10,"forced_choices":["leftarrow","leftarrow","rightarrow","rightarrow"],"right_color":"lightblue","left_color":"orange","left_mu":60,"right_mu":40,"left_numbers":[54,61,47,64,64,62,60,60,65,51],"right_numbers":[39,22,40,41,39,34,43,43,40,39],"points_earned":533,"phase":"task","trial_type":"horizons-task","trial_index":11,"time_elapsed":661102,"internal_node_id":"0.0-7.0","task_version":"0.2"},{"response_times":[863.43999998644,553.1450000125915,1748.174999956973,1335.8700000098906,3659.4200000399724,1478.8399999961257,563.5649999603629,632.8450000146404,469.84999999403954,1955.629999982193],"keys_pressed":["leftarrow","rightarrow","leftarrow","rightarrow","rightarrow","rightarrow","rightarrow","rightarrow","rightarrow","rightarrow"],"horizon":10,"forced_choices":["leftarrow","rightarrow","leftarrow","rightarrow"],"right_color":"orange","left_color":"lightblue","left_mu":60,"right_mu":68,"left_numbers":[55,60,66,63,52,47,70,52,57,65],"right_numbers":[71,83,72,56,68,74,66,68,59,69],"points_earned":664,"phase":"task","trial_type":"horizons-task","trial_index":12,"time_elapsed":675865,"internal_node_id":"0.0-8.0","task_version":"0.2"},{"response_times":[921.6700000106357,971.7650000238791,1260.2649999898858,962.3000000137836,2589.9099999805912],"keys_pressed":["leftarrow","rightarrow","leftarrow","rightarrow","rightarrow"],"horizon":5,"forced_choices":["leftarrow","rightarrow","leftarrow","rightarrow"],"right_color":"orange","left_color":"lightblue","left_mu":60,"right_mu":68,"left_numbers":[53,56,56,60,62],"right_numbers":[57,52,73,62,74],"points_earned":297,"phase":"task","trial_type":"horizons-task","trial_index":13,"time_elapsed":684086,"internal_node_id":"0.0-9.0","task_version":"0.2"},{"response_times":[1635.9199999715202,315.9400000004098,445.5399999860674,573.050000006333,3772.114999999758],"keys_pressed":["leftarrow","rightarrow","rightarrow","rightarrow","rightarrow"],"horizon":5,"forced_choices":["leftarrow","rightarrow","rightarrow","rightarrow"],"right_color":"lightblue","left_color":"orange","left_mu":40,"right_mu":48,"left_numbers":[33,42,42,45,37],"right_numbers":[47,41,39,51,39],"points_earned":203,"phase":"task","trial_type":"horizons-task","trial_index":14,"time_elapsed":692332,"internal_node_id":"0.0-10.0","task_version":"0.2"},{"response_times":[1036.5400000009686,689.8700000019744,776.3549999799579,932.2650000103749,1945.0700000161305],"keys_pressed":["leftarrow","leftarrow","rightarrow","leftarrow","leftarrow"],"horizon":5,"forced_choices":["leftarrow","leftarrow","rightarrow","leftarrow"],"right_color":"lightblue","left_color":"orange","left_mu":60,"right_mu":72,"left_numbers":[65,65,66,52,48],"right_numbers":[86,68,52,85,96],"points_earned":282,"phase":"task","trial_type":"horizons-task","trial_index":15,"time_elapsed":699214,"internal_node_id":"0.0-11.0","task_version":"0.2"},{"response_times":[1038.1499999784864,442.0450000325218,651.4550000429153,365.53000001003966,1179.065000033006],"keys_pressed":["rightarrow","rightarrow","leftarrow","rightarrow","leftarrow"],"horizon":5,"forced_choices":["rightarrow","rightarrow","leftarrow","rightarrow"],"right_color":"lightblue","left_color":"orange","left_mu":40,"right_mu":28,"left_numbers":[45,31,52,29,63],"right_numbers":[13,12,22,32,32],"points_earned":172,"phase":"task","trial_type":"horizons-task","trial_index":16,"time_elapsed":704393,"internal_node_id":"0.0-12.0","task_version":"0.2"},{"response_times":[511.4199999952689,415.1500000152737,678.234999999404,452.9050000128336,1873.940000019502,1153.0849999981,1190.694999997504,789.9350000079721,465.00000002561137,805.3849999560043],"keys_pressed":["rightarrow","leftarrow","leftarrow","rightarrow","leftarrow","leftarrow","leftarrow","leftarrow","leftarrow","leftarrow"],"horizon":10,"forced_choices":["rightarrow","leftarrow","leftarrow","rightarrow"],"right_color":"orange","left_color":"lightblue","left_mu":60,"right_mu":48,"left_numbers":[62,58,57,58,58,49,63,65,46,63],"right_numbers":[31,50,55,48,57,51,45,44,57,44],"points_earned":538,"phase":"task","trial_type":"horizons-task","trial_index":17,"time_elapsed":714232,"internal_node_id":"0.0-13.0","task_version":"0.2"},{"response_times":[582.8800000017509,700.0499999849126,805.3300000028685,538.6750000179745,6496.640000026673],"keys_pressed":["leftarrow","rightarrow","rightarrow","leftarrow","leftarrow"],"horizon":5,"forced_choices":["leftarrow","rightarrow","rightarrow","leftarrow"],"right_color":"orange","left_color":"lightblue","left_mu":60,"right_mu":80,"left_numbers":[59,51,65,66,58],"right_numbers":[77,60,63,87,70],"points_earned":306,"phase":"task","trial_type":"horizons-task","trial_index":18,"time_elapsed":724858,"internal_node_id":"0.0-14.0","task_version":"0.2"},{"response_times":[888.4950000210665,240.98000000230968,375.655000039842,319.2900000140071,1678.4200000111014,2581.309999979567,1168.8150000409223,844.4149999995716,1224.0250000031665,753.9649999816902],"keys_pressed":["rightarrow","leftarrow","rightarrow","leftarrow","leftarrow","leftarrow","leftarrow","leftarrow","leftarrow","leftarrow"],"horizon":10,"forced_choices":["rightarrow","leftarrow","rightarrow","leftarrow"],"right_color":"orange","left_color":"lightblue","left_mu":40,"right_mu":36,"left_numbers":[46,44,51,52,28,30,43,27,42,36],"right_numbers":[34,33,21,35,31,21,48,44,23,41],"points_earned":357,"phase":"task","trial_type":"horizons-task","trial_index":19,"time_elapsed":736438,"internal_node_id":"0.0-15.0","task_version":"0.2"},{"response_times":[518.7800000421703,419.91500003496185,1110.2149999933317,709.5949999638833,1918.0700000142679,902.5249999831431,913.4199999971315,888.7700000195764,517.2449999954551,675.6600000080653],"keys_pressed":["leftarrow","rightarrow","rightarrow","leftarrow","rightarrow","rightarrow","rightarrow","rightarrow","rightarrow","rightarrow"],"horizon":10,"forced_choices":["leftarrow","rightarrow","rightarrow","leftarrow"],"right_color":"orange","left_color":"lightblue","left_mu":60,"right_mu":80,"left_numbers":[61,80,53,49,45,56,74,60,68,60],"right_numbers":[92,69,70,85,84,87,70,80,76,81],"points_earned":727,"phase":"task","trial_type":"horizons-task","trial_index":20,"time_elapsed":746515,"internal_node_id":"0.0-16.0","task_version":"0.2"},{"response_times":[462.46499998960644,543.8449999783188,1091.0599999479018,966.7899999767542,4936.099999991711],"keys_pressed":["rightarrow","rightarrow","leftarrow","leftarrow","leftarrow"],"horizon":5,"forced_choices":["rightarrow","rightarrow","leftarrow","leftarrow"],"right_color":"lightblue","left_color":"orange","left_mu":40,"right_mu":44,"left_numbers":[45,41,51,38,33],"right_numbers":[44,43,36,50,39],"points_earned":209,"phase":"task","trial_type":"horizons-task","trial_index":21,"time_elapsed":756018,"internal_node_id":"0.0-17.0","task_version":"0.2"},{"response_times":[473.64500002004206,555.3499999805354,501.60000001778826,641.7700000456534,2038.8599999714643],"keys_pressed":["leftarrow","leftarrow","leftarrow","rightarrow","rightarrow"],"horizon":5,"forced_choices":["leftarrow","leftarrow","leftarrow","rightarrow"],"right_color":"orange","left_color":"lightblue","left_mu":40,"right_mu":70,"left_numbers":[32,30,32,40,32],"right_numbers":[53,73,72,66,69],"points_earned":229,"phase":"task","trial_type":"horizons-task","trial_index":22,"time_elapsed":761732,"internal_node_id":"0.0-18.0","task_version":"0.2"},{"response_times":[588.0449999822304,650.2549999859184,598.5600000130944,361.32000002544373,1672.255000041332,1168.8999999896623,1015.4650000040419,5557.370000053197,4777.215000009164,1292.394999996759],"keys_pressed":["rightarrow","rightarrow","leftarrow","rightarrow","leftarrow","leftarrow","leftarrow","leftarrow","leftarrow","leftarrow"],"horizon":10,"forced_choices":["rightarrow","rightarrow","leftarrow","rightarrow"],"right_color":"lightblue","left_color":"orange","left_mu":40,"right_mu":32,"left_numbers":[30,42,48,31,39,40,30,35,28,45],"right_numbers":[28,39,33,24,31,23,22,22,29,32],"points_earned":356,"phase":"task","trial_type":"horizons-task","trial_index":23,"time_elapsed":780917,"internal_node_id":"0.0-19.0","task_version":"0.2"},{"response_times":[532.245000009425,139.4950000103563,516.8699999921955,1074.8299999977462,1065.5850000330247],"keys_pressed":["rightarrow","leftarrow","leftarrow","rightarrow","rightarrow"],"horizon":5,"forced_choices":["rightarrow","leftarrow","leftarrow","rightarrow"],"right_color":"orange","left_color":"lightblue","left_mu":40,"right_mu":70,"left_numbers":[33,30,26,33,64],"right_numbers":[57,58,66,89,73],"points_earned":275,"phase":"task","trial_type":"horizons-task","trial_index":24,"time_elapsed":785750,"internal_node_id":"0.0-20.0","task_version":"0.2"},{"response_times":[582.4499999871477,574.3650000076741,490.6900000059977,560.6449999613687,748.5750000341795],"keys_pressed":["leftarrow","leftarrow","rightarrow","rightarrow","leftarrow"],"horizon":5,"forced_choices":["leftarrow","leftarrow","rightarrow","rightarrow"],"right_color":"lightblue","left_color":"orange","left_mu":60,"right_mu":40,"left_numbers":[52,54,57,62,51],"right_numbers":[26,40,40,33,28],"points_earned":230,"phase":"task","trial_type":"horizons-task","trial_index":25,"time_elapsed":790210,"internal_node_id":"0.0-21.0","task_version":"0.2"},{"response_times":[456.30000001983717,156.53999999631196,521.5650000027381,510.44500002171844,4948.23500001803],"keys_pressed":["rightarrow","leftarrow","rightarrow","leftarrow","leftarrow"],"horizon":5,"forced_choices":["rightarrow","leftarrow","rightarrow","leftarrow"],"right_color":"lightblue","left_color":"orange","left_mu":60,"right_mu":64,"left_numbers":[66,56,49,82,54],"right_numbers":[61,58,77,65,87],"points_earned":330,"phase":"task","trial_type":"horizons-task","trial_index":26,"time_elapsed":798306,"internal_node_id":"0.0-22.0","task_version":"0.2"},{"response_times":[558.1900000106543,287.48999995877966,739.6450000233017,277.254999964498,1416.5499999653548,758.3199999644421,563.1350000039674,420.6399999675341,660.8300000079907,411.9899999932386],"keys_pressed":["rightarrow","leftarrow","rightarrow","leftarrow","rightarrow","rightarrow","rightarrow","rightarrow","rightarrow","rightarrow"],"horizon":10,"forced_choices":["rightarrow","leftarrow","rightarrow","leftarrow"],"right_color":"lightblue","left_color":"orange","left_mu":60,"right_mu":72,"left_numbers":[66,54,60,56,57,59,61,58,64,53],"right_numbers":[75,67,80,67,77,88,92,70,70,78],"points_earned":740,"phase":"task","trial_type":"horizons-task","trial_index":27,"time_elapsed":805902,"internal_node_id":"0.0-23.0","task_version":"0.2"},{"response_times":[781.299999973271,624.855000001844,734.1649999725632,755.3100000368431,1580.835000029765,994.8449999792501,640.2450000168756,506.17000000784174,521.3949999888428,662.3500000569038],"keys_pressed":["leftarrow","rightarrow","rightarrow","leftarrow","rightarrow","rightarrow","rightarrow","rightarrow","rightarrow","rightarrow"],"horizon":10,"forced_choices":["leftarrow","rightarrow","rightarrow","leftarrow"],"right_color":"orange","left_color":"lightblue","left_mu":60,"right_mu":90,"left_numbers":[69,54,55,72,71,64,59,65,73,67],"right_numbers":[97,86,95,82,93,89,102,93,78,91],"points_earned":868,"phase":"task","trial_type":"horizons-task","trial_index":28,"time_elapsed":815207,"internal_node_id":"0.0-24.0","task_version":"0.2"},{"response_times":[808.3600000245497,404.18499999213964,734.2950000311248,490.4300000052899,1827.0550000015646,533.3349999855272,740.189999982249,562.4850000021979,473.14999997615814,412.66999999061227],"keys_pressed":["leftarrow","rightarrow","rightarrow","leftarrow","leftarrow","leftarrow","leftarrow","leftarrow","leftarrow","leftarrow"],"horizon":10,"forced_choices":["leftarrow","rightarrow","rightarrow","leftarrow"],"right_color":"orange","left_color":"lightblue","left_mu":40,"right_mu":10,"left_numbers":[44,42,29,38,46,34,46,42,42,35],"right_numbers":[2,17,7,16,7,11,14,4,0,2],"points_earned":351,"phase":"task","trial_type":"horizons-task","trial_index":29,"time_elapsed":823697,"internal_node_id":"0.0-25.0","task_version":"0.2"},{"response_times":[546.6449999948964,196.6600000159815,747.4950000178069,391.330000013113,1417.3449999652803],"keys_pressed":["rightarrow","leftarrow","leftarrow","rightarrow","leftarrow"],"horizon":5,"forced_choices":["rightarrow","leftarrow","leftarrow","rightarrow"],"right_color":"lightblue","left_color":"orange","left_mu":60,"right_mu":52,"left_numbers":[53,67,59,67,63],"right_numbers":[41,55,59,59,58],"points_earned":289,"phase":"task","trial_type":"horizons-task","trial_index":30,"time_elapsed":828500,"internal_node_id":"0.0-26.0","task_version":"0.2"},{"response_times":[475.59499996714294,460.9599999967031,599.3250000174157,594.3200000328943,584.9549999693409],"keys_pressed":["rightarrow","rightarrow","rightarrow","leftarrow","leftarrow"],"horizon":5,"forced_choices":["rightarrow","rightarrow","rightarrow","leftarrow"],"right_color":"lightblue","left_color":"orange","left_mu":60,"right_mu":30,"left_numbers":[70,48,48,59,72],"right_numbers":[30,33,28,27,16],"points_earned":222,"phase":"task","trial_type":"horizons-task","trial_index":31,"time_elapsed":832719,"internal_node_id":"0.0-27.0","task_version":"0.2"},{"response_times":[510.6200000154786,310.9800000092946,464.26499995868653,512.7199999988079,1154.1849999921396],"keys_pressed":["leftarrow","rightarrow","rightarrow","rightarrow","leftarrow"],"horizon":5,"forced_choices":["leftarrow","rightarrow","rightarrow","rightarrow"],"right_color":"lightblue","left_color":"orange","left_mu":60,"right_mu":52,"left_numbers":[71,66,56,60,65],"right_numbers":[67,67,44,52,46],"points_earned":299,"phase":"task","trial_type":"horizons-task","trial_index":32,"time_elapsed":837174,"internal_node_id":"0.0-28.0","task_version":"0.2"},{"response_times":[821.9950000056997,409.0999999898486,496.820000000298,459.42000002833083,6552.624999952968],"keys_pressed":["rightarrow","rightarrow","rightarrow","leftarrow","rightarrow"],"horizon":5,"forced_choices":["rightarrow","rightarrow","rightarrow","leftarrow"],"right_color":"lightblue","left_color":"orange","left_mu":60,"right_mu":64,"left_numbers":[62,67,61,67,71],"right_numbers":[60,68,74,66,61],"points_earned":330,"phase":"task","trial_type":"horizons-task","trial_index":33,"time_elapsed":847416,"internal_node_id":"0.0-29.0","task_version":"0.2"},{"response_times":[693.6599999899045,601.1850000359118,510.8849999960512,385.92999998945743,351.1350000044331,2879.8700000043027,598.7999999779277,1069.8600000469014,171.88000003807247,155.77000001212582],"keys_pressed":["leftarrow","leftarrow","leftarrow","rightarrow","leftarrow","rightarrow","rightarrow","rightarrow","rightarrow","rightarrow"],"horizon":10,"forced_choices":["leftarrow","leftarrow","leftarrow","rightarrow"],"right_color":"lightblue","left_color":"orange","left_mu":40,"right_mu":44,"left_numbers":[29,23,26,26,39,38,45,38,33,43],"right_numbers":[41,43,28,50,45,48,37,42,54,45],"points_earned":393,"phase":"task","trial_type":"horizons-task","trial_index":34,"time_elapsed":856339,"internal_node_id":"0.0-30.0","task_version":"0.2"},{"response_times":[646.4949999935925,640.3550000395626,440.7200000132434,734.3450000043958,2708.890000008978],"keys_pressed":["leftarrow","leftarrow","leftarrow","rightarrow","rightarrow"],"horizon":5,"forced_choices":["leftarrow","leftarrow","leftarrow","rightarrow"],"right_color":"lightblue","left_color":"orange","left_mu":40,"right_mu":44,"left_numbers":[46,32,55,48,37],"right_numbers":[40,55,32,47,53],"points_earned":233,"phase":"task","trial_type":"horizons-task","trial_index":35,"time_elapsed":863012,"internal_node_id":"0.0-31.0","task_version":"0.2"},{"response_times":[554.7350000124425,472.85000002011657,439.0849999617785,455.7149999891408,571.3749999995343,983.8599999784492,422.469999990426,670.3299999935552,546.0600000224076,163.09499996714294],"keys_pressed":["leftarrow","leftarrow","rightarrow","leftarrow","rightarrow","leftarrow","leftarrow","leftarrow","leftarrow","leftarrow"],"horizon":10,"forced_choices":["leftarrow","leftarrow","rightarrow","leftarrow"],"right_color":"lightblue","left_color":"orange","left_mu":40,"right_mu":20,"left_numbers":[37,44,49,37,35,33,35,44,37,30],"right_numbers":[17,14,19,7,17,21,30,24,9,22],"points_earned":333,"phase":"task","trial_type":"horizons-task","trial_index":36,"time_elapsed":869795,"internal_node_id":"0.0-32.0","task_version":"0.2"},{"response_times":[595.0099999899976,116.19500000961125,973.8149999757297,495.75000000186265,1479.0999999968335,1053.4199999528937,671.0800000000745,850.0099999946542,980.550000036601,742.9799999808893],"keys_pressed":["rightarrow","leftarrow","leftarrow","leftarrow","rightarrow","rightarrow","rightarrow","rightarrow","rightarrow","rightarrow"],"horizon":10,"forced_choices":["rightarrow","leftarrow","leftarrow","leftarrow"],"right_color":"orange","left_color":"lightblue","left_mu":60,"right_mu":68,"left_numbers":[60,61,61,63,65,67,63,53,58,59],"right_numbers":[69,76,64,60,67,78,57,65,67,51],"points_earned":639,"phase":"task","trial_type":"horizons-task","trial_index":37,"time_elapsed":879256,"internal_node_id":"0.0-33.0","task_version":"0.2"},{"response_times":[722.9800000204705,408.31500000786036,1012.0200000237674,1325.4850000375882,912.6600000308827],"keys_pressed":["leftarrow","rightarrow","rightarrow","leftarrow","rightarrow"],"horizon":5,"forced_choices":["leftarrow","rightarrow","rightarrow","leftarrow"],"right_color":"orange","left_color":"lightblue","left_mu":60,"right_mu":90,"left_numbers":[58,48,50,75,56],"right_numbers":[105,82,89,85,101],"points_earned":405,"phase":"task","trial_type":"horizons-task","trial_index":38,"time_elapsed":885142,"internal_node_id":"0.0-34.0","task_version":"0.2"},{"response_times":[566.3300000014715,612.4249999993481,446.2000000057742,414.359999995213,1848.6350000021048,672.4600000306964,467.00000000419095,536.290000018198,542.0649999869056,476.4549999963492],"keys_pressed":["rightarrow","rightarrow","rightarrow","leftarrow","leftarrow","leftarrow","leftarrow","leftarrow","leftarrow","leftarrow"],"horizon":10,"forced_choices":["rightarrow","rightarrow","rightarrow","leftarrow"],"right_color":"lightblue","left_color":"orange","left_mu":60,"right_mu":30,"left_numbers":[60,58,57,54,58,59,54,72,63,47],"right_numbers":[28,42,15,17,24,16,17,31,18,32],"points_earned":492,"phase":"task","trial_type":"horizons-task","trial_index":39,"time_elapsed":893228,"internal_node_id":"0.0-35.0","task_version":"0.2"},{"response_times":[533.0499999690801,607.9050000407733,375.3800000413321,629.4399999896996,585.8299999963492,2145.03999997396,435.6499999994412,530.1300000282936,152.26499998243526,149.34499998344108],"keys_pressed":["rightarrow","rightarrow","leftarrow","leftarrow","rightarrow","leftarrow","leftarrow","leftarrow","leftarrow","leftarrow"],"horizon":10,"forced_choices":["rightarrow","rightarrow","leftarrow","leftarrow"],"right_color":"lightblue","left_color":"orange","left_mu":40,"right_mu":28,"left_numbers":[47,40,40,38,32,38,24,43,36,31],"right_numbers":[33,36,24,39,36,30,17,15,36,31],"points_earned":355,"phase":"task","trial_type":"horizons-task","trial_index":40,"time_elapsed":900875,"internal_node_id":"0.0-36.0","task_version":"0.2"},{"response_times":[535.8100000303239,223.79499999806285,518.8550000311807,477.48000000137836,1521.2550000287592,1530.4749999777414,458.2550000050105,454.93499998701736,374.3549999780953,363.4500000043772],"keys_pressed":["rightarrow","leftarrow","leftarrow","leftarrow","leftarrow","leftarrow","leftarrow","leftarrow","leftarrow","leftarrow"],"horizon":10,"forced_choices":["rightarrow","leftarrow","leftarrow","leftarrow"],"right_color":"lightblue","left_color":"orange","left_mu":60,"right_mu":40,"left_numbers":[64,45,63,46,63,60,59,50,54,57],"right_numbers":[26,28,39,28,40,32,30,32,34,27],"points_earned":523,"phase":"task","trial_type":"horizons-task","trial_index":41,"time_elapsed":908836,"internal_node_id":"0.0-37.0","task_version":"0.2"},{"response_times":[683.1900000106543,411.04499995708466,566.8300000252202,517.3800000338815,823.0350000085309,969.6099999709986,1246.9050000072457,820.4550000373274,2188.7449999921955,650.8749999920838],"keys_pressed":["leftarrow","leftarrow","rightarrow","rightarrow","rightarrow","leftarrow","leftarrow","rightarrow","rightarrow","rightarrow"],"horizon":10,"forced_choices":["leftarrow","leftarrow","rightarrow","rightarrow"],"right_color":"orange","left_color":"lightblue","left_mu":40,"right_mu":52,"left_numbers":[39,42,35,54,43,54,26,44,33,34],"right_numbers":[53,44,39,58,24,41,64,56,46,47],"points_earned":431,"phase":"task","trial_type":"horizons-task","trial_index":42,"time_elapsed":919217,"internal_node_id":"0.0-38.0","task_version":"0.2"},{"response_times":[584.279999951832,322.43000000016764,925.2250000135973,630.2300000097603,909.2599999858066],"keys_pressed":["leftarrow","rightarrow","rightarrow","rightarrow","rightarrow"],"horizon":5,"forced_choices":["leftarrow","rightarrow","rightarrow","rightarrow"],"right_color":"orange","left_color":"lightblue","left_mu":40,"right_mu":52,"left_numbers":[39,32,38,24,40],"right_numbers":[45,57,48,50,52],"points_earned":246,"phase":"task","trial_type":"horizons-task","trial_index":43,"time_elapsed":924091,"internal_node_id":"0.0-39.0","task_version":"0.2"},{"response_times":[586.1549999681301,342.9300000425428,446.1349999764934,516.9449999812059,1982.9349999781698,1465.5049999710172,870.2349999803118,702.1449999883771,524.7450000024401,388.8600000063889],"keys_pressed":["leftarrow","rightarrow","leftarrow","leftarrow","leftarrow","leftarrow","leftarrow","leftarrow","leftarrow","leftarrow"],"horizon":10,"forced_choices":["leftarrow","rightarrow","leftarrow","leftarrow"],"right_color":"orange","left_color":"lightblue","left_mu":40,"right_mu":36,"left_numbers":[40,48,44,40,26,39,31,53,46,38],"right_numbers":[39,23,32,45,39,30,44,40,37,37],"points_earned":380,"phase":"task","trial_type":"horizons-task","trial_index":44,"time_elapsed":933432,"internal_node_id":"0.0-40.0","task_version":"0.2"},{"response_times":[588.724999979604,277.61499996995553,1412.9050000337884,929.8200000193901,619.9450000422075],"keys_pressed":["leftarrow","rightarrow","rightarrow","leftarrow","leftarrow"],"horizon":5,"forced_choices":["leftarrow","rightarrow","rightarrow","leftarrow"],"right_color":"orange","left_color":"lightblue","left_mu":40,"right_mu":10,"left_numbers":[39,52,44,38,52],"right_numbers":[1,0,5,3,5],"points_earned":134,"phase":"task","trial_type":"horizons-task","trial_index":45,"time_elapsed":938765,"internal_node_id":"0.0-41.0","task_version":"0.2"},{"response_times":[639.3549999920651,302.43500001961365,2980.5749999941327,985.4449999984354,1215.5999999959022,3315.520000003744,680.1700000069104,401.38500003376976,334.41499999025837,347.3649999941699],"keys_pressed":["leftarrow","rightarrow","rightarrow","rightarrow","rightarrow","rightarrow","rightarrow","rightarrow","rightarrow","rightarrow"],"horizon":10,"forced_choices":["leftarrow","rightarrow","rightarrow","rightarrow"],"right_color":"orange","left_color":"lightblue","left_mu":40,"right_mu":52,"left_numbers":[32,33,36,40,24,26,29,44,52,35],"right_numbers":[59,47,37,62,35,46,54,45,55,46],"points_earned":459,"phase":"task","trial_type":"horizons-task","trial_index":46,"time_elapsed":951469,"internal_node_id":"0.0-42.0","task_version":"0.2"},{"response_times":[483.22999995434657,273.9449999644421,319.9449999956414,925.5450000055134,715.4699999955483,636.3549999659881,431.7149999551475,372.4600000423379,335.1249999832362,303.8550000055693],"keys_pressed":["leftarrow","rightarrow","leftarrow","rightarrow","leftarrow","leftarrow","leftarrow","leftarrow","leftarrow","leftarrow"],"horizon":10,"forced_choices":["leftarrow","rightarrow","leftarrow","rightarrow"],"right_color":"lightblue","left_color":"orange","left_mu":60,"right_mu":30,"left_numbers":[57,58,51,70,55,60,51,62,62,50],"right_numbers":[27,22,29,15,34,26,23,33,34,35],"points_earned":485,"phase":"task","trial_type":"horizons-task","trial_index":47,"time_elapsed":957769,"internal_node_id":"0.0-43.0","task_version":"0.2"},{"response_times":[551.2400000006892,176.19999998714775,547.2299999673851,598.5300000174902,519.5049999747425],"keys_pressed":["rightarrow","leftarrow","leftarrow","leftarrow","rightarrow"],"horizon":5,"forced_choices":["rightarrow","leftarrow","leftarrow","leftarrow"],"right_color":"orange","left_color":"lightblue","left_mu":60,"right_mu":80,"left_numbers":[63,73,42,70,55],"right_numbers":[92,89,95,80,86],"points_earned":363,"phase":"task","trial_type":"horizons-task","trial_index":48,"time_elapsed":961664,"internal_node_id":"0.0-44.0","task_version":"0.2"},{"response_times":[527.2700000205077,157.80499996617436,705.4599999682978,403.85000000242144,1313.335000013467,521.5350000071339,436.4099999656901,304.3750000069849,263.9199999975972,328.8349999929778],"keys_pressed":["rightarrow","leftarrow","leftarrow","leftarrow","rightarrow","rightarrow","rightarrow","rightarrow","rightarrow","rightarrow"],"horizon":10,"forced_choices":["rightarrow","leftarrow","leftarrow","leftarrow"],"right_color":"orange","left_color":"lightblue","left_mu":60,"right_mu":80,"left_numbers":[72,61,43,65,69,55,56,48,55,54],"right_numbers":[85,75,97,71,81,85,85,74,71,74],"points_earned":724,"phase":"task","trial_type":"horizons-task","trial_index":49,"time_elapsed":968131,"internal_node_id":"0.0-45.0","task_version":"0.2"},{"response_times":[536.0799999907613,274.35000002151355,366.39500001911074,1167.3550000414252,1696.4850000222214],"keys_pressed":["leftarrow","rightarrow","leftarrow","leftarrow","leftarrow"],"horizon":5,"forced_choices":["leftarrow","rightarrow","leftarrow","leftarrow"],"right_color":"orange","left_color":"lightblue","left_mu":40,"right_mu":10,"left_numbers":[42,46,35,25,39],"right_numbers":[1,15,7,15,16],"points_earned":156,"phase":"task","trial_type":"horizons-task","trial_index":50,"time_elapsed":973673,"internal_node_id":"0.0-46.0","task_version":"0.2"},{"view_history":"[{\"page_index\":0,\"viewing_time\":2743.04500001017},{\"page_index\":1,\"viewing_time\":15835.149999998976}]","rt":18578.610000025947,"trial_type":"instructions","trial_index":51,"time_elapsed":992253,"internal_node_id":"0.0-47.0","task_version":"0.2"},{"response_times":[1172.1299999626353,552.3650000104681,394.7150000021793,858.4949999931268,808.7799999630079,672.8250000160187,430.4099999717437,675.7799999904819,535.085000039544,422.57999995490536],"keys_pressed":["leftarrow","leftarrow","rightarrow","rightarrow","leftarrow","leftarrow","leftarrow","leftarrow","leftarrow","leftarrow"],"horizon":10,"forced_choices":["leftarrow","leftarrow","rightarrow","rightarrow"],"right_color":"lightblue","left_color":"orange","left_mu":40,"right_mu":20,"left_numbers":[52,35,48,50,41,46,36,32,45,24],"right_numbers":[18,9,20,24,28,27,3,18,13,26],"points_earned":355,"phase":"task","trial_type":"horizons-task","trial_index":52,"time_elapsed":1000283,"internal_node_id":"0.0-48.0","task_version":"0.2"},{"response_times":[537.2349999961443,265.19499998539686,690.4649999924004,604.4850000180304,755.1199999870732],"keys_pressed":["leftarrow","rightarrow","leftarrow","rightarrow","leftarrow"],"horizon":5,"forced_choices":["leftarrow","rightarrow","leftarrow","rightarrow"],"right_color":"lightblue","left_color":"orange","left_mu":40,"right_mu":32,"left_numbers":[39,44,24,50,44],"right_numbers":[46,13,38,35,34],"points_earned":155,"phase":"task","trial_type":"horizons-task","trial_index":53,"time_elapsed":1004638,"internal_node_id":"0.0-49.0","task_version":"0.2"},{"response_times":[582.8200000105426,181.685000017751,611.0800000024028,341.39000001596287,2538.585000031162,20808.32000001101,920.140000001993,907.1100000292063,754.7250000061467,125.88500004494563],"keys_pressed":["rightarrow","leftarrow","leftarrow","rightarrow","rightarrow","rightarrow","leftarrow","leftarrow","leftarrow","leftarrow"],"horizon":10,"forced_choices":["rightarrow","leftarrow","leftarrow","rightarrow"],"right_color":"lightblue","left_color":"orange","left_mu":60,"right_mu":52,"left_numbers":[45,48,62,73,63,57,76,52,50,47],"right_numbers":[55,60,56,66,43,34,46,47,52,58],"points_earned":533,"phase":"task","trial_type":"horizons-task","trial_index":54,"time_elapsed":1033913,"internal_node_id":"0.0-50.0","task_version":"0.2"},{"response_times":[625.9049999644049,148.06499995756894,949.2150000296533,674.460000009276,516.1949999746867,650.6449999869801,445.90499997138977,337.3649999848567,342.00000000419095,367.9400000255555],"keys_pressed":["rightarrow","leftarrow","leftarrow","rightarrow","rightarrow","rightarrow","rightarrow","rightarrow","rightarrow","rightarrow"],"horizon":10,"forced_choices":["rightarrow","leftarrow","leftarrow","rightarrow"],"right_color":"orange","left_color":"lightblue","left_mu":40,"right_mu":70,"left_numbers":[43,36,33,36,37,33,37,40,34,33],"right_numbers":[71,66,83,57,69,73,67,58,72,74],"points_earned":610,"phase":"task","trial_type":"horizons-task","trial_index":55,"time_elapsed":1040473,"internal_node_id":"0.0-51.0","task_version":"0.2"},{"response_times":[535.085000039544,280.83499998319894,699.1749999579042,650.5250000045635,691.8949999962933],"keys_pressed":["rightarrow","leftarrow","leftarrow","leftarrow","leftarrow"],"horizon":5,"forced_choices":["rightarrow","leftarrow","leftarrow","leftarrow"],"right_color":"lightblue","left_color":"orange","left_mu":60,"right_mu":40,"left_numbers":[67,66,65,63,58],"right_numbers":[36,44,42,48,44],"points_earned":288,"phase":"task","trial_type":"horizons-task","trial_index":56,"time_elapsed":1044833,"internal_node_id":"0.0-52.0","task_version":"0.2"},{"response_times":[535.9199999948032,273.2599999872036,300.60000001685694,576.8450000323355,1544.0599999856204],"keys_pressed":["leftarrow","rightarrow","leftarrow","rightarrow","rightarrow"],"horizon":5,"forced_choices":["leftarrow","rightarrow","leftarrow","rightarrow"],"right_color":"lightblue","left_color":"orange","left_mu":40,"right_mu":48,"left_numbers":[28,45,44,47,26],"right_numbers":[59,38,38,56,58],"points_earned":224,"phase":"task","trial_type":"horizons-task","trial_index":57,"time_elapsed":1049566,"internal_node_id":"0.0-53.0","task_version":"0.2"},{"response_times":[1574.6649999637157,418.12500002561137,330.6200000224635,359.01499999454245,621.5000000083819,1141.6099999914877,1611.830000008922,481.4899999764748,188.0900000105612,383.8400000240654],"keys_pressed":["rightarrow","rightarrow","leftarrow","leftarrow","leftarrow","leftarrow","leftarrow","leftarrow","leftarrow","leftarrow"],"horizon":10,"forced_choices":["rightarrow","rightarrow","leftarrow","leftarrow"],"right_color":"lightblue","left_color":"orange","left_mu":40,"right_mu":44,"left_numbers":[13,44,47,46,34,47,51,44,37,26],"right_numbers":[39,35,32,54,46,65,40,39,31,39],"points_earned":406,"phase":"task","trial_type":"horizons-task","trial_index":58,"time_elapsed":1058180,"internal_node_id":"0.0-54.0","task_version":"0.2"},{"response_times":[2578.6699999589473,454.5750000397675,410.5800000252202,706.9300000439398,664.4549999618903,543.8449999783188,400.034999998752,434.89000003319234,394.5349999703467,360.99000001559034],"keys_pressed":["rightarrow","rightarrow","leftarrow","rightarrow","leftarrow","leftarrow","leftarrow","leftarrow","leftarrow","leftarrow"],"horizon":10,"forced_choices":["rightarrow","rightarrow","leftarrow","rightarrow"],"right_color":"lightblue","left_color":"orange","left_mu":40,"right_mu":28,"left_numbers":[36,35,33,31,40,36,30,35,37,24],"right_numbers":[29,22,24,19,32,17,33,30,23,17],"points_earned":305,"phase":"task","trial_type":"horizons-task","trial_index":59,"time_elapsed":1066632,"internal_node_id":"0.0-55.0","task_version":"0.2"},{"response_times":[1756.0100000118837,227.8400000068359,217.5649999990128,633.6149999988265,558.4249999956228,494.0949999727309,241.59499997040257,216.55000001192093,222.03499998431653,230.00999999931082],"keys_pressed":["leftarrow","rightarrow","leftarrow","leftarrow","leftarrow","leftarrow","leftarrow","leftarrow","leftarrow","leftarrow"],"horizon":10,"forced_choices":["leftarrow","rightarrow","leftarrow","leftarrow"],"right_color":"orange","left_color":"lightblue","left_mu":40,"right_mu":10,"left_numbers":[37,50,23,42,38,39,46,38,42,41],"right_numbers":[17,3,10,6,5,17,16,4,5,13],"points_earned":349,"phase":"task","trial_type":"horizons-task","trial_index":60,"time_elapsed":1072933,"internal_node_id":"0.0-56.0","task_version":"0.2"},{"response_times":[710.579999955371,167.12499997811392,669.980000006035,520.7649999647401,1459.0450000250712,847.1199999912642,510.0999999558553,3176.1999999871477,1578.3999999985099,341.1199999973178],"keys_pressed":["rightarrow","leftarrow","rightarrow","leftarrow","rightarrow","rightarrow","rightarrow","rightarrow","rightarrow","rightarrow"],"horizon":10,"forced_choices":["rightarrow","leftarrow","rightarrow","leftarrow"],"right_color":"lightblue","left_color":"orange","left_mu":60,"right_mu":64,"left_numbers":[76,60,58,55,58,60,46,57,59,71],"right_numbers":[58,60,66,70,68,71,55,66,49,61],"points_earned":609,"phase":"task","trial_type":"horizons-task","trial_index":61,"time_elapsed":1084423,"internal_node_id":"0.0-57.0","task_version":"0.2"},{"response_times":[1241.8800000450574,115.69000000599772,565.8849999890663,488.62499999813735,1710.4749999707565],"keys_pressed":["leftarrow","rightarrow","leftarrow","rightarrow","leftarrow"],"horizon":5,"forced_choices":["leftarrow","rightarrow","leftarrow","rightarrow"],"right_color":"lightblue","left_color":"orange","left_mu":60,"right_mu":30,"left_numbers":[45,59,54,66,64],"right_numbers":[37,30,24,36,30],"points_earned":229,"phase":"task","trial_type":"horizons-task","trial_index":62,"time_elapsed":1090048,"internal_node_id":"0.0-58.0","task_version":"0.2"},{"response_times":[17292.71000000881,1225.9300000150688,728.3099999767728,452.9050000128336,646.6599999694154,578.0150000355206,485.97500001778826,379.7950000152923,244.0049999859184,194.33500000741333],"keys_pressed":["leftarrow","leftarrow","rightarrow","leftarrow","rightarrow","rightarrow","rightarrow","rightarrow","rightarrow","rightarrow"],"horizon":10,"forced_choices":["leftarrow","leftarrow","rightarrow","leftarrow"],"right_color":"lightblue","left_color":"orange","left_mu":60,"right_mu":72,"left_numbers":[66,70,63,39,55,65,65,48,55,67],"right_numbers":[76,62,74,74,71,84,64,70,73,79],"points_earned":690,"phase":"task","trial_type":"horizons-task","trial_index":63,"time_elapsed":1113781,"internal_node_id":"0.0-59.0","task_version":"0.2"},{"response_times":[921.7249999637716,443.25000001117587,645.1099999831058,460.42999997735023,1096.419999958016,574.5100000058301,385.71999996202067,169.10999995889142,413.99500000989065,184.01000002631918],"keys_pressed":["rightarrow","rightarrow","leftarrow","rightarrow","leftarrow","leftarrow","leftarrow","leftarrow","leftarrow","leftarrow"],"horizon":10,"forced_choices":["rightarrow","rightarrow","leftarrow","rightarrow"],"right_color":"orange","left_color":"lightblue","left_mu":60,"right_mu":48,"left_numbers":[66,47,66,45,68,64,56,61,60,67],"right_numbers":[44,57,49,39,44,52,48,36,33,52],"points_earned":582,"phase":"task","trial_type":"horizons-task","trial_index":64,"time_elapsed":1120579,"internal_node_id":"0.0-60.0","task_version":"0.2"},{"response_times":[4979.995000001509,377.8150000143796,536.6449999855831,561.5450000041164,995.2349999803118],"keys_pressed":["rightarrow","leftarrow","leftarrow","leftarrow","leftarrow"],"horizon":5,"forced_choices":["rightarrow","leftarrow","leftarrow","leftarrow"],"right_color":"orange","left_color":"lightblue","left_mu":60,"right_mu":68,"left_numbers":[63,68,64,55,56],"right_numbers":[75,66,74,85,63],"points_earned":318,"phase":"task","trial_type":"horizons-task","trial_index":65,"time_elapsed":1129532,"internal_node_id":"0.0-61.0","task_version":"0.2"},{"response_times":[490.80999998841435,451.63500000489876,406.3000000314787,586.8600000394508,740.1049999753013],"keys_pressed":["rightarrow","rightarrow","leftarrow","leftarrow","leftarrow"],"horizon":5,"forced_choices":["rightarrow","rightarrow","leftarrow","leftarrow"],"right_color":"lightblue","left_color":"orange","left_mu":40,"right_mu":28,"left_numbers":[34,48,36,36,41],"right_numbers":[23,28,30,24,36],"points_earned":164,"phase":"task","trial_type":"horizons-task","trial_index":66,"time_elapsed":1133710,"internal_node_id":"0.0-62.0","task_version":"0.2"},{"response_times":[497.50500003574416,157.5650000013411,560.4249999742024,595.6649999716319,1237.2099999920465],"keys_pressed":["rightarrow","leftarrow","rightarrow","leftarrow","leftarrow"],"horizon":5,"forced_choices":["rightarrow","leftarrow","rightarrow","leftarrow"],"right_color":"orange","left_color":"lightblue","left_mu":40,"right_mu":36,"left_numbers":[38,54,30,41,52],"right_numbers":[37,49,33,36,42],"points_earned":217,"phase":"task","trial_type":"horizons-task","trial_index":67,"time_elapsed":1138263,"internal_node_id":"0.0-63.0","task_version":"0.2"},{"response_times":[490.3049999848008,181.3650000258349,653.9749999647029,674.8099999967963,1139.9499999824911,687.5700000091456,758.2399999955669,450.50500001525506,389.72999999532476,349.79499998735264],"keys_pressed":["leftarrow","rightarrow","rightarrow","rightarrow","rightarrow","rightarrow","rightarrow","rightarrow","rightarrow","rightarrow"],"horizon":10,"forced_choices":["leftarrow","rightarrow","rightarrow","rightarrow"],"right_color":"lightblue","left_color":"orange","left_mu":40,"right_mu":48,"left_numbers":[33,43,39,54,39,47,42,27,30,44],"right_numbers":[43,53,54,40,52,41,48,52,44,52],"points_earned":469,"phase":"task","trial_type":"horizons-task","trial_index":68,"time_elapsed":1145542,"internal_node_id":"0.0-64.0","task_version":"0.2"},{"response_times":[1150.11000004597,408.6700000334531,574.0400000358932,628.0900000128895,1845.7949999719858,3083.2949999603443,429.4149999623187,151.14499995252118,353.66000002250075,300.67999998573214],"keys_pressed":["rightarrow","rightarrow","rightarrow","leftarrow","rightarrow","rightarrow","rightarrow","rightarrow","rightarrow","rightarrow"],"horizon":10,"forced_choices":["rightarrow","rightarrow","rightarrow","leftarrow"],"right_color":"lightblue","left_color":"orange","left_mu":60,"right_mu":64,"left_numbers":[55,53,66,56,55,70,66,64,66,66],"right_numbers":[75,63,87,56,60,61,66,64,66,60],"points_earned":658,"phase":"task","trial_type":"horizons-task","trial_index":69,"time_elapsed":1155970,"internal_node_id":"0.0-65.0","task_version":"0.2"},{"response_times":[541.8500000378117,586.1949999816716,515.5650000087917,893.5300000011921,377.7699999627657],"keys_pressed":["leftarrow","leftarrow","rightarrow","rightarrow","leftarrow"],"horizon":5,"forced_choices":["leftarrow","leftarrow","rightarrow","rightarrow"],"right_color":"lightblue","left_color":"orange","left_mu":40,"right_mu":20,"left_numbers":[34,45,31,33,43],"right_numbers":[17,12,32,19,14],"points_earned":173,"phase":"task","trial_type":"horizons-task","trial_index":70,"time_elapsed":1160387,"internal_node_id":"0.0-66.0","task_version":"0.2"},{"response_times":[566.1400000099093,301.0000000358559,466.3799999980256,967.0649999752641,535.9349999926053],"keys_pressed":["leftarrow","rightarrow","leftarrow","leftarrow","leftarrow"],"horizon":5,"forced_choices":["leftarrow","rightarrow","leftarrow","leftarrow"],"right_color":"orange","left_color":"lightblue","left_mu":40,"right_mu":36,"left_numbers":[29,29,46,58,40],"right_numbers":[37,41,34,56,42],"points_earned":214,"phase":"task","trial_type":"horizons-task","trial_index":71,"time_elapsed":1164726,"internal_node_id":"0.0-67.0","task_version":"0.2"},{"response_times":[691.5750000043772,465.9850000170991,633.2950000069104,840.3299999772571,1301.1500000138767],"keys_pressed":["rightarrow","rightarrow","leftarrow","rightarrow","leftarrow"],"horizon":5,"forced_choices":["rightarrow","rightarrow","leftarrow","rightarrow"],"right_color":"orange","left_color":"lightblue","left_mu":60,"right_mu":48,"left_numbers":[57,55,59,69,52],"right_numbers":[57,40,28,59,51],"points_earned":267,"phase":"task","trial_type":"horizons-task","trial_index":72,"time_elapsed":1170161,"internal_node_id":"0.0-68.0","task_version":"0.2"},{"response_times":[360.0449999794364,365.0999999954365,424.47500000707805,562.3600000399165,600.2749999752268],"keys_pressed":["leftarrow","leftarrow","rightarrow","rightarrow","rightarrow"],"horizon":5,"forced_choices":["leftarrow","leftarrow","rightarrow","rightarrow"],"right_color":"orange","left_color":"lightblue","left_mu":40,"right_mu":52,"left_numbers":[33,43,39,55,39],"right_numbers":[48,38,52,53,54],"points_earned":235,"phase":"task","trial_type":"horizons-task","trial_index":73,"time_elapsed":1173976,"internal_node_id":"0.0-69.0","task_version":"0.2"},{"response_times":[559.644999972079,459.95499996934086,546.7799999751151,810.9049999620765,1180.3599999984726],"keys_pressed":["leftarrow","leftarrow","rightarrow","leftarrow","leftarrow"],"horizon":5,"forced_choices":["leftarrow","leftarrow","rightarrow","leftarrow"],"right_color":"orange","left_color":"lightblue","left_mu":60,"right_mu":56,"left_numbers":[66,68,43,67,59],"right_numbers":[66,61,53,60,64],"points_earned":313,"phase":"task","trial_type":"horizons-task","trial_index":74,"time_elapsed":1179036,"internal_node_id":"0.0-70.0","task_version":"0.2"},{"response_times":[536.5799999563023,268.4249999583699,570.099999953527,805.9449999709614,625.0149999978021],"keys_pressed":["rightarrow","leftarrow","leftarrow","rightarrow","rightarrow"],"horizon":5,"forced_choices":["rightarrow","leftarrow","leftarrow","rightarrow"],"right_color":"orange","left_color":"lightblue","left_mu":40,"right_mu":60,"left_numbers":[41,51,29,24,41],"right_numbers":[62,70,50,74,54],"points_earned":270,"phase":"task","trial_type":"horizons-task","trial_index":75,"time_elapsed":1183345,"internal_node_id":"0.0-71.0","task_version":"0.2"},{"response_times":[649.0149999735877,190.7700000447221,503.1099999905564,387.7750000101514,1193.169999984093,1406.1400000355206,355.3400000091642,311.61500001326203,271.58500003861263,184.4600000185892],"keys_pressed":["rightarrow","leftarrow","leftarrow","rightarrow","rightarrow","rightarrow","rightarrow","rightarrow","rightarrow","rightarrow"],"horizon":10,"forced_choices":["rightarrow","leftarrow","leftarrow","rightarrow"],"right_color":"orange","left_color":"lightblue","left_mu":40,"right_mu":60,"left_numbers":[46,46,43,41,46,25,18,58,30,29],"right_numbers":[62,66,57,64,51,59,62,63,64,60],"points_earned":574,"phase":"task","trial_type":"horizons-task","trial_index":76,"time_elapsed":1190301,"internal_node_id":"0.0-72.0","task_version":"0.2"},{"response_times":[683.6749999783933,197.27499998407438,406.67499997653067,908.1599999917671,675.2549999509938,617.7250000182539,9114.865000010468,2450.8999999961816,499.95999998645857,458.9100000448525],"keys_pressed":["leftarrow","rightarrow","leftarrow","rightarrow","leftarrow","leftarrow","leftarrow","leftarrow","rightarrow","rightarrow"],"horizon":10,"forced_choices":["leftarrow","rightarrow","leftarrow","rightarrow"],"right_color":"lightblue","left_color":"orange","left_mu":40,"right_mu":32,"left_numbers":[48,47,44,50,44,38,34,29,45,34],"right_numbers":[38,44,30,38,27,25,17,31,34,26],"points_earned":379,"phase":"task","trial_type":"horizons-task","trial_index":77,"time_elapsed":1207818,"internal_node_id":"0.0-73.0","task_version":"0.2"},{"response_times":[522.6849999744445,135.06499998038635,550.0100000062957,1277.7699999860488,1802.9149999492802,1096.2500000023283,826.9549999968149,464.81500001391396,602.0349999889731,410.24999995715916],"keys_pressed":["leftarrow","rightarrow","rightarrow","rightarrow","leftarrow","leftarrow","leftarrow","leftarrow","leftarrow","leftarrow"],"horizon":10,"forced_choices":["leftarrow","rightarrow","rightarrow","rightarrow"],"right_color":"lightblue","left_color":"orange","left_mu":60,"right_mu":52,"left_numbers":[60,57,79,62,55,54,50,79,58,62],"right_numbers":[66,38,60,58,53,50,47,52,60,55],"points_earned":574,"phase":"task","trial_type":"horizons-task","trial_index":78,"time_elapsed":1217009,"internal_node_id":"0.0-74.0","task_version":"0.2"},{"response_times":[532.4200000031851,351.410000002943,452.31999998213723,451.70500001404434,461.5549999871291,425.7649999926798,421.53499997220933,419.25500001525506,424.29999995511025,137.20000005559996],"keys_pressed":["rightarrow","leftarrow","rightarrow","rightarrow","rightarrow","rightarrow","rightarrow","rightarrow","rightarrow","rightarrow"],"horizon":10,"forced_choices":["rightarrow","leftarrow","rightarrow","rightarrow"],"right_color":"orange","left_color":"lightblue","left_mu":60,"right_mu":90,"left_numbers":[68,67,56,55,59,68,61,54,51,61],"right_numbers":[95,81,94,101,95,92,85,90,89,86],"points_earned":894,"phase":"task","trial_type":"horizons-task","trial_index":79,"time_elapsed":1222590,"internal_node_id":"0.0-75.0","task_version":"0.2"},{"response_times":[466.2549999775365,454.22000001417473,387.73499999661,705.1000000210479,452.5900000007823],"keys_pressed":["rightarrow","rightarrow","leftarrow","rightarrow","leftarrow"],"horizon":5,"forced_choices":["rightarrow","rightarrow","leftarrow","rightarrow"],"right_color":"lightblue","left_color":"orange","left_mu":40,"right_mu":32,"left_numbers":[61,38,37,30,30],"right_numbers":[20,34,23,16,39],"points_earned":137,"phase":"task","trial_type":"horizons-task","trial_index":80,"time_elapsed":1226558,"internal_node_id":"0.0-76.0","task_version":"0.2"},{"response_times":[606.3150000409223,475.70999996969476,626.4499999815598,502.9699999722652,611.3250000053085,513.4149999939837,528.7549999775365,552.3850000463426,500.8450000314042,553.6649999557994],"keys_pressed":["leftarrow","leftarrow","leftarrow","rightarrow","rightarrow","rightarrow","rightarrow","rightarrow","rightarrow","rightarrow"],"horizon":10,"forced_choices":["leftarrow","leftarrow","leftarrow","rightarrow"],"right_color":"orange","left_color":"lightblue","left_mu":40,"right_mu":70,"left_numbers":[41,31,36,42,36,37,29,43,41,16],"right_numbers":[56,59,52,66,69,55,74,77,75,76],"points_earned":600,"phase":"task","trial_type":"horizons-task","trial_index":81,"time_elapsed":1233533,"internal_node_id":"0.0-77.0","task_version":"0.2"},{"response_times":[443.059999961406,434.3949999893084,659.540000022389,392.9399999906309,1776.3249999843538,658.8300000294112,2962.0299999951385,540.4200000339188,425.19999999785796,231.70500004198402],"keys_pressed":["rightarrow","rightarrow","leftarrow","leftarrow","leftarrow","leftarrow","rightarrow","rightarrow","rightarrow","rightarrow"],"horizon":10,"forced_choices":["rightarrow","rightarrow","leftarrow","leftarrow"],"right_color":"orange","left_color":"lightblue","left_mu":60,"right_mu":56,"left_numbers":[67,55,68,60,55,43,55,57,75,56],"right_numbers":[49,65,65,57,70,51,61,64,59,55],"points_earned":579,"phase":"task","trial_type":"horizons-task","trial_index":82,"time_elapsed":1243561,"internal_node_id":"0.0-78.0","task_version":"0.2"},{"response_times":[456.0899999924004,426.26999999629334,528.7799999932759,765.769999998156,807.1399999898858],"keys_pressed":["leftarrow","leftarrow","rightarrow","leftarrow","leftarrow"],"horizon":5,"forced_choices":["leftarrow","leftarrow","rightarrow","leftarrow"],"right_color":"lightblue","left_color":"orange","left_mu":40,"right_mu":20,"left_numbers":[38,43,48,40,25],"right_numbers":[11,18,24,2,25],"points_earned":170,"phase":"task","trial_type":"horizons-task","trial_index":83,"time_elapsed":1248049,"internal_node_id":"0.0-79.0","task_version":"0.2"},{"response_times":[565.1749999960884,171.94000002928078,746.2850000010803,919.6499999961816,136.96000003255904],"keys_pressed":["rightarrow","leftarrow","rightarrow","rightarrow","rightarrow"],"horizon":5,"forced_choices":["rightarrow","leftarrow","rightarrow","rightarrow"],"right_color":"orange","left_color":"lightblue","left_mu":60,"right_mu":90,"left_numbers":[57,51,60,52,65],"right_numbers":[89,82,95,75,97],"points_earned":407,"phase":"task","trial_type":"horizons-task","trial_index":84,"time_elapsed":1252093,"internal_node_id":"0.0-80.0","task_version":"0.2"},{"response_times":[561.4499999792315,289.3749999930151,542.6549999974668,779.099999985192,616.0350000136532],"keys_pressed":["rightarrow","leftarrow","rightarrow","rightarrow","rightarrow"],"horizon":5,"forced_choices":["rightarrow","leftarrow","rightarrow","rightarrow"],"right_color":"orange","left_color":"lightblue","left_mu":40,"right_mu":60,"left_numbers":[45,31,51,49,24],"right_numbers":[61,73,51,64,63],"points_earned":270,"phase":"task","trial_type":"horizons-task","trial_index":85,"time_elapsed":1256384,"internal_node_id":"0.0-81.0","task_version":"0.2"},{"response_times":[477.0950000383891,231.05499998200685,349.9900000169873,778.1899999827147,592.3349999939092,873.0900000082329,822.5100000272505,1131.630000018049,558.0250000348315,668.3549999725074],"keys_pressed":["rightarrow","leftarrow","rightarrow","rightarrow","rightarrow","rightarrow","rightarrow","rightarrow","rightarrow","rightarrow"],"horizon":10,"forced_choices":["rightarrow","leftarrow","rightarrow","rightarrow"],"right_color":"orange","left_color":"lightblue","left_mu":40,"right_mu":60,"left_numbers":[44,51,33,35,34,45,41,44,45,42],"right_numbers":[63,62,49,57,48,57,41,61,52,47],"points_earned":526,"phase":"task","trial_type":"horizons-task","trial_index":86,"time_elapsed":1264369,"internal_node_id":"0.0-82.0","task_version":"0.2"},{"response_times":[500.08000002708286,285.5449999915436,1223.610000044573,722.6899999659508,381.15000003017485],"keys_pressed":["rightarrow","leftarrow","leftarrow","rightarrow","leftarrow"],"horizon":5,"forced_choices":["rightarrow","leftarrow","leftarrow","rightarrow"],"right_color":"orange","left_color":"lightblue","left_mu":60,"right_mu":48,"left_numbers":[63,64,65,62,62],"right_numbers":[47,54,27,56,36],"points_earned":294,"phase":"task","trial_type":"horizons-task","trial_index":87,"time_elapsed":1268987,"internal_node_id":"0.0-83.0","task_version":"0.2"},{"response_times":[668.294999981299,509.2799999983981,371.9500000006519,342.6000000326894,483.1349999876693,2078.7600000039674,1404.030000034254,844.0450000343844,245.80500001320615,161.31999995559454],"keys_pressed":["leftarrow","leftarrow","rightarrow","leftarrow","rightarrow","leftarrow","leftarrow","leftarrow","leftarrow","leftarrow"],"horizon":10,"forced_choices":["leftarrow","leftarrow","rightarrow","leftarrow"],"right_color":"orange","left_color":"lightblue","left_mu":60,"right_mu":56,"left_numbers":[64,58,60,48,57,76,50,53,54,57],"right_numbers":[55,58,53,62,49,63,55,47,57,55],"points_earned":562,"phase":"task","trial_type":"horizons-task","trial_index":88,"time_elapsed":1277599,"internal_node_id":"0.0-84.0","task_version":"0.2"},{"response_times":[672.3200000124052,595.9900000016205,586.79500001017,666.3749999715947,4284.8749999538995],"keys_pressed":["rightarrow","rightarrow","leftarrow","leftarrow","rightarrow"],"horizon":5,"forced_choices":["rightarrow","rightarrow","leftarrow","leftarrow"],"right_color":"orange","left_color":"lightblue","left_mu":60,"right_mu":56,"left_numbers":[49,62,60,63,62],"right_numbers":[63,61,57,66,62],"points_earned":309,"phase":"task","trial_type":"horizons-task","trial_index":89,"time_elapsed":1285908,"internal_node_id":"0.0-85.0","task_version":"0.2"},{"response_times":[502.29499995475635,373.1600000173785,772.9599999729544,358.39500004658476,1706.145000003744,9922.459999972489,538.3450000081211,718.4750000014901,268.55999999679625,236.6650000330992],"keys_pressed":["leftarrow","rightarrow","leftarrow","rightarrow","leftarrow","leftarrow","rightarrow","rightarrow","rightarrow","rightarrow"],"horizon":10,"forced_choices":["leftarrow","rightarrow","leftarrow","rightarrow"],"right_color":"lightblue","left_color":"orange","left_mu":40,"right_mu":48,"left_numbers":[44,44,52,45,37,41,29,35,36,38],"right_numbers":[52,42,48,45,43,50,52,65,38,51],"points_earned":467,"phase":"task","trial_type":"horizons-task","trial_index":90,"time_elapsed":1302809,"internal_node_id":"0.0-86.0","task_version":"0.2"},{"response_times":[538.8249999959953,165.79499997897074,1024.2350000189617,543.0100000230595,6884.409999998752],"keys_pressed":["rightarrow","leftarrow","rightarrow","leftarrow","rightarrow"],"horizon":5,"forced_choices":["rightarrow","leftarrow","rightarrow","leftarrow"],"right_color":"lightblue","left_color":"orange","left_mu":60,"right_mu":72,"left_numbers":[55,62,68,69,67],"right_numbers":[75,49,57,74,66],"points_earned":329,"phase":"task","trial_type":"horizons-task","trial_index":91,"time_elapsed":1313468,"internal_node_id":"0.0-87.0","task_version":"0.2"},{"rt":16787.075000000186,"responses":{"age":"25","gender-categorical":"Male","gender-free-response":"","ethnicity":"Not Hispanic or Latino","race":["White"],"language":"Yes","fluency":"Very well"},"survey":"demographics","trial_type":"survey-demo","trial_index":92,"time_elapsed":1330258,"internal_node_id":"0.0-88.0","task_version":"0.2"},{"rt":18831.825000001118,"responses":{"difficulty":"4","fun":"4","clarity":"2","strategy":"No","feedback":""},"survey":"debrief","trial_type":"survey-debrief","trial_index":93,"time_elapsed":1349097,"internal_node_id":"0.0-89.0","task_version":"0.2","interactions":"[{\"event\":\"blur\",\"trial\":1,\"time\":47012},{\"event\":\"focus\",\"trial\":1,\"time\":51016},{\"event\":\"blur\",\"trial\":3,\"time\":255326},{\"event\":\"focus\",\"trial\":3,\"time\":255912},{\"event\":\"blur\",\"trial\":63,\"time\":1090830},{\"event\":\"focus\",\"trial\":63,\"time\":1106223}]"}]