[{"view_history":"[{\"page_index\":0,\"viewing_time\":6459.149999995134}]","rt":6459.86499999708,"trial_type":"instructions","trial_index":0,"time_elapsed":6529,"internal_node_id":"0.0-0.0","task_version":"0.2"},{"item_order":[11,3,2,1,4,5,8,0,10,7,6,12,9],"responses":{"Q12":"1","Q04":"2","Q03":"0","Q02":"1","Q05":"3","Q06":"1","Q09":"1","Q01":"0","Q11":"2","Q08":"3","Q07":"2","Q13":"4","Q10":"0"},"radio_events":[9220.269999990705,13308.324999990873,16668.449999997392,19476.444999992964,24844.314999994822,27116.434999988996,30076.404999999795,31588.47999999125,34364.340000000084,37916.654999993625,40316.36499999149,43468.4500000003,44148.56499999587,45876.290000000154,50556.354999993346,54028.32499999204,59772.32999999251],"key_events":[],"mouse_events":[0.06999999459367245,9220.269999990705,13308.324999990873,16668.449999997392,19476.444999992964,24844.314999994822,27116.434999988996,28788.289999996778,29572.319999992033,30076.404999999795,31108.434999987367,31588.47999999125,34364.340000000084,37916.654999993625,40316.36499999149,43468.4500000003,44148.56499999587,45876.290000000154,50556.354999993346,54028.32499999204,57692.49000000127,58844.25999999803,59276.264999993145,59772.32999999251,61124.39499999164],"rt":61126.40999999712,"survey":"ius12","trial_type":"survey-template","trial_index":1,"time_elapsed":67659,"internal_node_id":"0.0-1.0","task_version":"0.2"},{"item_order":[4,2,0,10,9,5,13,15,14,7,12,1,8,3,6,11],"responses":{"Q05":"0","Q03":"3","Q01":"2","Q11":"4","Q10":"4","Q06":"3","Q14":"2","Q16":"5","Q15":"3","Q08":"4","Q13":"4","Q02":"2","Q09":"1","Q04":"3","Q07":"5","Q12":"4"},"radio_events":[67177.87000001408,73977.65000000072,80321.73500000499,88625.89500000468,89801.85000000347,94665.69000000891,98281.68000000005,101089.68000000459,112465.82000001217,115553.80000000878,124409.80500000296,130513.70000001043,131041.6750000004,134873.63000000187,136385.80000000366,145513.775000014,150289.73000000406,152297.75000001246,153705.6750000047,157417.7200000122],"key_events":[],"mouse_events":[33609.70500000985,67177.87000001408,73977.65000000072,75633.82000000274,80321.73500000499,82217.90500001225,87449.80500001111,87953.6100000114,88625.89500000468,89353.93000001204,89801.85000000347,94233.75000001397,94665.69000000891,97769.89000001049,98281.68000000005,99937.85000000207,101089.68000000459,107777.93000001111,111745.69500000507,112465.82000001217,115553.80000000878,116137.84000001033,116633.6200000078,124409.80500000296,127545.77000001154,128673.69000001054,130169.69000000972,130513.70000001043,131041.6750000004,134873.63000000187,136385.80000000366,143529.7300000093,145513.775000014,150289.73000000406,152297.75000001246,153705.6750000047,156449.94000000588,157417.7200000122,158177.8650000051],"rt":158180.60000000696,"survey":"nfc","trial_type":"survey-template","trial_index":2,"time_elapsed":225844,"internal_node_id":"0.0-2.0","task_version":"0.2"},{"item_order":[12,3,13,5,16,0,11,1,15,10,9,2,4,7,14,8,6],"responses":{"Q13":"1","Q04":"1","Q14":"0","Q06":"1","Q17":"0","Q01":"1","Q12":"0","Q02":"0","Q16":"2","Q11":"1","Q10":"3","Q03":"3","Q05":"2","Q08":"2","Q15":"1","Q09":"1","Q07":"0"},"radio_events":[13057.35000000277,16385.250000006636,21497.199999997974,24705.220000003465,28193.075000002864,32625.224999996135,35393.14499999455,41793.09999999532,45041.0600000032,46345.20500000508,50041.125000003376,60889.04999999795,63329.0699999925,68481.14999999234,76305.12999999337,78249.03500000073,83009.13000000583,87257.11500000034,92921.13000000245],"key_events":[],"mouse_events":[13057.35000000277,16385.250000006636,17953.274999992573,20433.05999999575,21025.015000006533,21497.199999997974,24705.220000003465,27145.199999999022,28193.075000002864,31521.25000000524,32625.224999996135,35393.14499999455,41793.09999999532,45041.0600000032,46345.20500000508,48953.81500000076,49448.984999995446,50041.125000003376,59888.89499999641,60889.04999999795,63329.0699999925,68481.14999999234,72737.255,75521.03000000352,76305.12999999337,77145.0199999963,78249.03500000073,83009.13000000583,87257.11500000034,91601.2699999992,92121.06499999936,92921.13000000245,93745.28000000282],"rt":93747.41999999969,"survey":"pswq","trial_type":"survey-template","trial_index":3,"time_elapsed":319596,"internal_node_id":"0.0-3.0","task_version":"0.2"},{"view_history":"[{\"page_index\":0,\"viewing_time\":3235.1099999941653},{\"page_index\":1,\"viewing_time\":3640.045000007376},{\"page_index\":2,\"viewing_time\":114311.96500000078},{\"page_index\":3,\"viewing_time\":6711.97000000393},{\"page_index\":4,\"viewing_time\":10551.934999995865},{\"page_index\":5,\"viewing_time\":5176.135000001523},{\"page_index\":6,\"viewing_time\":9223.935000001802},{\"page_index\":7,\"viewing_time\":12071.96999998996},{\"page_index\":8,\"viewing_time\":9328.030000004219},{\"page_index\":9,\"viewing_time\":11096.000000005006}]","rt":185347.39999999874,"trial_type":"instructions","trial_index":4,"time_elapsed":504944,"internal_node_id":"0.0-4.0-0.0","task_version":"0.2"},{"response_times":[2872.654999999213,1209.9400000006426,2255.620000010822,6226.4500000019325,8564.339999997173],"keys_pressed":["rightarrow","leftarrow","rightarrow","rightarrow","rightarrow"],"horizon":5,"forced_choices":["rightarrow","leftarrow","rightarrow","rightarrow"],"right_color":"lightblue","left_color":"orange","left_mu":40,"right_mu":20,"left_numbers":[29,34,48,50,42],"right_numbers":[22,6,9,8,21],"points_earned":94,"phase":"practice","trial_type":"horizons-task","trial_index":5,"time_elapsed":527583,"internal_node_id":"0.0-4.0-1.0","task_version":"0.2"},{"response_times":[1537.8849999979138,1490.5600000056438,1063.705000007758,1492.8950000030454,11137.229999992996,3597.735000003013,3547.1399999951245,2900.934999997844,1743.6350000061793,2909.685000005993],"keys_pressed":["leftarrow","leftarrow","rightarrow","rightarrow","rightarrow","rightarrow","rightarrow","rightarrow","rightarrow","rightarrow"],"horizon":10,"forced_choices":["leftarrow","leftarrow","rightarrow","rightarrow"],"right_color":"orange","left_color":"lightblue","left_mu":60,"right_mu":70,"left_numbers":[56,63,54,59,49,46,57,52,55,63],"right_numbers":[79,74,72,72,68,66,68,78,62,72],"points_earned":677,"phase":"practice","trial_type":"horizons-task","trial_index":6,"time_elapsed":560505,"internal_node_id":"0.0-4.0-2.0","task_version":"0.2"},{"view_history":"[{\"page_index\":0,\"viewing_time\":2261.0899999999674},{\"page_index\":1,\"viewing_time\":2887.8699999913806},{\"page_index\":2,\"viewing_time\":5096.135000014328},{\"page_index\":3,\"viewing_time\":2863.964999996824}]","rt":13109.459999992396,"trial_type":"instructions","trial_index":7,"time_elapsed":573616,"internal_node_id":"0.0-4.0-3.0","task_version":"0.2"},{"responses":["true","false","true"],"num_errors":0,"rt":11662.755000012112,"trial_type":"horizons-comprehension","trial_index":8,"time_elapsed":585281,"internal_node_id":"0.0-4.0-4.0","task_version":"0.2"},{"trial_type":"call-function","trial_index":9,"time_elapsed":585283,"internal_node_id":"0.0-5.0","task_version":"0.2"},{"view_history":"[{\"page_index\":0,\"viewing_time\":1739.4750000094064},{\"page_index\":1,\"viewing_time\":3455.984999993234}]","rt":5195.7450000045355,"trial_type":"instructions","trial_index":10,"time_elapsed":590479,"internal_node_id":"0.0-6.0","task_version":"0.2"},{"response_times":[1704.700000002049,859.5399999903748,1169.5999999938067,930.0199999997858,4709.719999998924],"keys_pressed":["rightarrow","leftarrow","leftarrow","leftarrow","leftarrow"],"horizon":5,"forced_choices":["rightarrow","leftarrow","leftarrow","leftarrow"],"right_color":"lightblue","left_color":"orange","left_mu":40,"right_mu":52,"left_numbers":[34,35,25,48,38],"right_numbers":[54,37,61,67,46],"points_earned":200,"phase":"task","trial_type":"horizons-task","trial_index":11,"time_elapsed":601365,"internal_node_id":"0.0-7.0","task_version":"0.2"},{"response_times":[1455.1749999955064,831.0550000023795,874.9249999964377,1007.6799999951618,979.8650000011548,2835.5650000012247,2799.4400000025053,866.649999996298,841.4199999970151,863.3499999996275],"keys_pressed":["leftarrow","rightarrow","rightarrow","rightarrow","rightarrow","leftarrow","rightarrow","rightarrow","rightarrow","rightarrow"],"horizon":10,"forced_choices":["leftarrow","rightarrow","rightarrow","rightarrow"],"right_color":"lightblue","left_color":"orange","left_mu":60,"right_mu":72,"left_numbers":[51,54,72,71,65,65,68,70,47,69],"right_numbers":[66,58,76,66,67,76,62,67,68,77],"points_earned":657,"phase":"task","trial_type":"horizons-task","trial_index":12,"time_elapsed":616223,"internal_node_id":"0.0-8.0","task_version":"0.2"},{"response_times":[797.6349999953527,607.6549999997951,678.5200000012992,854.5599999924889,755.3400000033434,785.3599999943981,599.755000002915,732.9150000005029,728.4349999972619,450.860000011744],"keys_pressed":["leftarrow","rightarrow","rightarrow","leftarrow","rightarrow","rightarrow","rightarrow","rightarrow","rightarrow","rightarrow"],"horizon":10,"forced_choices":["leftarrow","rightarrow","rightarrow","leftarrow"],"right_color":"orange","left_color":"lightblue","left_mu":40,"right_mu":70,"left_numbers":[41,45,53,41,30,25,48,45,32,50],"right_numbers":[51,63,74,80,74,74,70,64,66,70],"points_earned":637,"phase":"task","trial_type":"horizons-task","trial_index":13,"time_elapsed":624716,"internal_node_id":"0.0-9.0","task_version":"0.2"},{"response_times":[905.7850000099279,532.5899999879766,798.3700000040699,785.185000000638,3139.019999987795],"keys_pressed":["rightarrow","leftarrow","leftarrow","rightarrow","leftarrow"],"horizon":5,"forced_choices":["rightarrow","leftarrow","leftarrow","rightarrow"],"right_color":"lightblue","left_color":"orange","left_mu":40,"right_mu":44,"left_numbers":[35,47,50,39,48],"right_numbers":[54,34,40,27,47],"points_earned":226,"phase":"task","trial_type":"horizons-task","trial_index":14,"time_elapsed":632379,"internal_node_id":"0.0-10.0","task_version":"0.2"},{"response_times":[694.9100000056205,757.7300000120886,627.4549999943702,737.3499999957858,746.9300000084331],"keys_pressed":["rightarrow","rightarrow","leftarrow","leftarrow","rightarrow"],"horizon":5,"forced_choices":["rightarrow","rightarrow","leftarrow","leftarrow"],"right_color":"orange","left_color":"lightblue","left_mu":60,"right_mu":90,"left_numbers":[65,70,55,64,68],"right_numbers":[86,87,74,80,85],"points_earned":377,"phase":"task","trial_type":"horizons-task","trial_index":15,"time_elapsed":637445,"internal_node_id":"0.0-11.0","task_version":"0.2"},{"response_times":[639.1100000037113,426.2049999961164,633.2649999967543,601.6749999980675,1047.3649999912595,2323.8600000040606,1283.8000000047032,732.5500000006286,907.8449999942677,771.7399999964982],"keys_pressed":["rightarrow","leftarrow","leftarrow","rightarrow","leftarrow","rightarrow","leftarrow","leftarrow","rightarrow","leftarrow"],"horizon":10,"forced_choices":["rightarrow","leftarrow","leftarrow","rightarrow"],"right_color":"lightblue","left_color":"orange","left_mu":40,"right_mu":28,"left_numbers":[27,34,47,38,52,44,44,26,35,49],"right_numbers":[39,35,33,36,11,25,33,33,24,21],"points_earned":376,"phase":"task","trial_type":"horizons-task","trial_index":16,"time_elapsed":648315,"internal_node_id":"0.0-12.0","task_version":"0.2"},{"response_times":[725.7300000055693,731.7550000007031,670.2799999911804,676.5449999948032,2322.1300000004703],"keys_pressed":["rightarrow","leftarrow","leftarrow","leftarrow","leftarrow"],"horizon":5,"forced_choices":["rightarrow","leftarrow","leftarrow","leftarrow"],"right_color":"lightblue","left_color":"orange","left_mu":40,"right_mu":28,"left_numbers":[33,39,30,28,44],"right_numbers":[31,18,34,15,31],"points_earned":172,"phase":"task","trial_type":"horizons-task","trial_index":17,"time_elapsed":654943,"internal_node_id":"0.0-13.0","task_version":"0.2"},{"response_times":[549.7999999934109,575.4650000017136,662.3600000020815,1792.6399999996647,1098.8349999970524],"keys_pressed":["leftarrow","leftarrow","leftarrow","rightarrow","leftarrow"],"horizon":5,"forced_choices":["leftarrow","leftarrow","leftarrow","rightarrow"],"right_color":"lightblue","left_color":"orange","left_mu":60,"right_mu":40,"left_numbers":[72,70,48,73,64],"right_numbers":[37,32,46,37,34],"points_earned":291,"phase":"task","trial_type":"horizons-task","trial_index":18,"time_elapsed":661125,"internal_node_id":"0.0-14.0","task_version":"0.2"},{"response_times":[674.9249999993481,700.7099999900674,639.4650000002002,708.505000002333,3322.2200000018347],"keys_pressed":["leftarrow","leftarrow","leftarrow","rightarrow","rightarrow"],"horizon":5,"forced_choices":["leftarrow","leftarrow","leftarrow","rightarrow"],"right_color":"orange","left_color":"lightblue","left_mu":40,"right_mu":60,"left_numbers":[34,25,41,48,33],"right_numbers":[58,59,64,66,62],"points_earned":228,"phase":"task","trial_type":"horizons-task","trial_index":19,"time_elapsed":668672,"internal_node_id":"0.0-15.0","task_version":"0.2"},{"response_times":[690.5149999947753,697.8450000024168,697.3099999886472,809.9150000052759,3266.909999991185,1092.3800000018673,593.4200000046985,521.9899999938207,571.8550000019604,525.7450000062818],"keys_pressed":["leftarrow","rightarrow","leftarrow","rightarrow","rightarrow","rightarrow","rightarrow","rightarrow","rightarrow","rightarrow"],"horizon":10,"forced_choices":["leftarrow","rightarrow","leftarrow","rightarrow"],"right_color":"lightblue","left_color":"orange","left_mu":60,"right_mu":68,"left_numbers":[59,57,40,65,60,77,58,42,57,56],"right_numbers":[72,53,74,60,62,80,58,64,66,76],"points_earned":618,"phase":"task","trial_type":"horizons-task","trial_index":20,"time_elapsed":679642,"internal_node_id":"0.0-16.0","task_version":"0.2"},{"response_times":[638.5349999909522,676.6950000019278,490.3750000084983,537.4899999878835,2804.5249999995576],"keys_pressed":["rightarrow","leftarrow","rightarrow","leftarrow","rightarrow"],"horizon":5,"forced_choices":["rightarrow","leftarrow","rightarrow","leftarrow"],"right_color":"orange","left_color":"lightblue","left_mu":60,"right_mu":80,"left_numbers":[64,65,63,64,69],"right_numbers":[76,85,89,77,79],"points_earned":373,"phase":"task","trial_type":"horizons-task","trial_index":21,"time_elapsed":686292,"internal_node_id":"0.0-17.0","task_version":"0.2"},{"response_times":[473.66499999770895,766.1000000080094,552.65500000678,809.2349999933504,761.3750000018626],"keys_pressed":["rightarrow","rightarrow","leftarrow","leftarrow","leftarrow"],"horizon":5,"forced_choices":["rightarrow","rightarrow","leftarrow","leftarrow"],"right_color":"orange","left_color":"lightblue","left_mu":60,"right_mu":30,"left_numbers":[61,58,79,66,57],"right_numbers":[35,13,31,26,33],"points_earned":250,"phase":"task","trial_type":"horizons-task","trial_index":22,"time_elapsed":691158,"internal_node_id":"0.0-18.0","task_version":"0.2"},{"response_times":[768.6050000047544,498.84499999461696,491.86500000359956,547.1550000074785,816.9400000042515],"keys_pressed":["leftarrow","rightarrow","leftarrow","rightarrow","leftarrow"],"horizon":5,"forced_choices":["leftarrow","rightarrow","leftarrow","rightarrow"],"right_color":"lightblue","left_color":"orange","left_mu":60,"right_mu":68,"left_numbers":[55,51,64,63,65],"right_numbers":[78,57,78,63,82],"points_earned":304,"phase":"task","trial_type":"horizons-task","trial_index":23,"time_elapsed":695784,"internal_node_id":"0.0-19.0","task_version":"0.2"},{"response_times":[642.4849999893922,403.29999999084976,437.15500000689644,652.2799999947893,752.0850000000792,1121.2550000054762,1109.7900000022491,751.6749999922467,507.2550000040792,278.44500000355765],"keys_pressed":["rightarrow","leftarrow","rightarrow","leftarrow","rightarrow","leftarrow","leftarrow","leftarrow","leftarrow","leftarrow"],"horizon":10,"forced_choices":["rightarrow","leftarrow","rightarrow","leftarrow"],"right_color":"lightblue","left_color":"orange","left_mu":60,"right_mu":52,"left_numbers":[58,69,57,70,69,58,54,66,61,49],"right_numbers":[42,37,46,43,49,53,29,41,43,45],"points_earned":564,"phase":"task","trial_type":"horizons-task","trial_index":24,"time_elapsed":703941,"internal_node_id":"0.0-20.0","task_version":"0.2"},{"response_times":[774.0749999938998,526.3649999978952,466.0500000027241,1485.7200000114972,1465.5750000092667],"keys_pressed":["leftarrow","rightarrow","leftarrow","leftarrow","leftarrow"],"horizon":5,"forced_choices":["leftarrow","rightarrow","leftarrow","leftarrow"],"right_color":"orange","left_color":"lightblue","left_mu":60,"right_mu":64,"left_numbers":[44,65,63,62,81],"right_numbers":[78,62,77,75,68],"points_earned":312,"phase":"task","trial_type":"horizons-task","trial_index":25,"time_elapsed":710161,"internal_node_id":"0.0-21.0","task_version":"0.2"},{"response_times":[576.7800000030547,1062.7150000073016,667.0750000048429,894.0200000070035,2605.4000000003725,704.1099999914877,551.2549999984913,673.9999999990687,522.2799999901326,545.4699999972945],"keys_pressed":["leftarrow","leftarrow","rightarrow","rightarrow","rightarrow","rightarrow","rightarrow","rightarrow","rightarrow","rightarrow"],"horizon":10,"forced_choices":["leftarrow","leftarrow","rightarrow","rightarrow"],"right_color":"orange","left_color":"lightblue","left_mu":40,"right_mu":60,"left_numbers":[51,32,40,34,47,55,36,36,47,49],"right_numbers":[69,68,48,60,62,65,48,62,61,62],"points_earned":551,"phase":"task","trial_type":"horizons-task","trial_index":26,"time_elapsed":720467,"internal_node_id":"0.0-22.0","task_version":"0.2"},{"response_times":[641.0800000012387,496.84500000148546,527.5800000090385,783.3400000090478,1385.62999998976,980.2449999988312,712.3999999894295,784.7800000017742,709.7999999969034,814.5350000122562],"keys_pressed":["leftarrow","rightarrow","leftarrow","rightarrow","leftarrow","leftarrow","rightarrow","leftarrow","leftarrow","leftarrow"],"horizon":10,"forced_choices":["leftarrow","rightarrow","leftarrow","rightarrow"],"right_color":"orange","left_color":"lightblue","left_mu":40,"right_mu":36,"left_numbers":[36,39,47,34,42,37,47,35,36,28],"right_numbers":[34,26,33,22,56,34,32,33,39,36],"points_earned":341,"phase":"task","trial_type":"horizons-task","trial_index":27,"time_elapsed":729807,"internal_node_id":"0.0-23.0","task_version":"0.2"},{"response_times":[637.300000002142,462.8250000096159,978.4600000130013,480.2700000000186,727.9899999994086,672.9049999994459,782.4350000009872,496.5249999950174,315.7199999986915,407.839999999851],"keys_pressed":["leftarrow","rightarrow","rightarrow","leftarrow","rightarrow","leftarrow","leftarrow","leftarrow","leftarrow","leftarrow"],"horizon":10,"forced_choices":["leftarrow","rightarrow","rightarrow","leftarrow"],"right_color":"orange","left_color":"lightblue","left_mu":60,"right_mu":56,"left_numbers":[64,56,65,57,51,69,58,50,52,49],"right_numbers":[54,61,56,41,53,58,46,48,62,47],"points_earned":569,"phase":"task","trial_type":"horizons-task","trial_index":28,"time_elapsed":737271,"internal_node_id":"0.0-24.0","task_version":"0.2"},{"response_times":[651.3500000000931,578.5200000100303,759.3550000019604,774.0649999905145,442.96999998914544,607.785000000149,372.7050000015879,368.8949999923352,304.12499999511056,347.00000000884756],"keys_pressed":["rightarrow","rightarrow","leftarrow","leftarrow","leftarrow","leftarrow","leftarrow","leftarrow","leftarrow","leftarrow"],"horizon":10,"forced_choices":["rightarrow","rightarrow","leftarrow","leftarrow"],"right_color":"orange","left_color":"lightblue","left_mu":60,"right_mu":30,"left_numbers":[69,71,62,65,54,74,54,63,51,57],"right_numbers":[33,31,30,36,23,26,24,38,28,22],"points_earned":544,"phase":"task","trial_type":"horizons-task","trial_index":29,"time_elapsed":743982,"internal_node_id":"0.0-25.0","task_version":"0.2"},{"response_times":[821.1849999934202,426.36499999207444,699.1850000049453,1542.5949999917066,599.4100000098115],"keys_pressed":["rightarrow","leftarrow","rightarrow","leftarrow","leftarrow"],"horizon":5,"forced_choices":["rightarrow","leftarrow","rightarrow","leftarrow"],"right_color":"lightblue","left_color":"orange","left_mu":40,"right_mu":20,"left_numbers":[43,48,33,38,35],"right_numbers":[22,32,16,13,14],"points_earned":159,"phase":"task","trial_type":"horizons-task","trial_index":30,"time_elapsed":749572,"internal_node_id":"0.0-26.0","task_version":"0.2"},{"response_times":[443.88000000617467,351.8449999974109,714.5199999940814,916.2400000059279,574.8149999999441],"keys_pressed":["rightarrow","leftarrow","leftarrow","rightarrow","leftarrow"],"horizon":5,"forced_choices":["rightarrow","leftarrow","leftarrow","rightarrow"],"right_color":"lightblue","left_color":"orange","left_mu":60,"right_mu":40,"left_numbers":[53,56,67,50,52],"right_numbers":[54,52,45,49,38],"points_earned":278,"phase":"task","trial_type":"horizons-task","trial_index":31,"time_elapsed":754080,"internal_node_id":"0.0-27.0","task_version":"0.2"},{"response_times":[699.4350000022678,752.329999988433,829.3649999977788,673.8150000019232,591.5549999917857,1535.0850000104401,639.4350000045961,1095.3449999942677,823.0499999917811,401.7849999945611],"keys_pressed":["rightarrow","rightarrow","rightarrow","leftarrow","leftarrow","rightarrow","leftarrow","leftarrow","leftarrow","leftarrow"],"horizon":10,"forced_choices":["rightarrow","rightarrow","rightarrow","leftarrow"],"right_color":"lightblue","left_color":"orange","left_mu":40,"right_mu":44,"left_numbers":[36,41,34,51,44,51,31,41,34,36],"right_numbers":[44,54,46,57,42,33,44,63,34,33],"points_earned":414,"phase":"task","trial_type":"horizons-task","trial_index":32,"time_elapsed":763623,"internal_node_id":"0.0-28.0","task_version":"0.2"},{"response_times":[555.5649999878369,773.5050000046613,482.8750000015134,556.5700000006473,1135.295000000042,1098.7900000036461,433.1850000016857,330.06000000750646,1123.4000000113156,480.14499999408145],"keys_pressed":["rightarrow","rightarrow","leftarrow","leftarrow","rightarrow","rightarrow","rightarrow","rightarrow","leftarrow","rightarrow"],"horizon":10,"forced_choices":["rightarrow","rightarrow","leftarrow","leftarrow"],"right_color":"orange","left_color":"lightblue","left_mu":60,"right_mu":90,"left_numbers":[33,41,54,79,39,50,53,45,69,63],"right_numbers":[86,93,101,91,103,82,82,78,93,91],"points_earned":817,"phase":"task","trial_type":"horizons-task","trial_index":33,"time_elapsed":772095,"internal_node_id":"0.0-29.0","task_version":"0.2"},{"response_times":[586.169999995036,783.7799999979325,889.3149999930756,638.4049999905983,941.6350000101374,597.4699999933364,525.6050000025425,374.9300000054063,257.9400000104215,228.3400000014808],"keys_pressed":["rightarrow","rightarrow","leftarrow","leftarrow","rightarrow","leftarrow","leftarrow","leftarrow","leftarrow","leftarrow"],"horizon":10,"forced_choices":["rightarrow","rightarrow","leftarrow","leftarrow"],"right_color":"orange","left_color":"lightblue","left_mu":40,"right_mu":10,"left_numbers":[45,45,34,44,37,53,46,45,43,42],"right_numbers":[18,18,7,11,5,10,14,16,0,0],"points_earned":348,"phase":"task","trial_type":"horizons-task","trial_index":34,"time_elapsed":779421,"internal_node_id":"0.0-30.0","task_version":"0.2"},{"response_times":[961.1800000129733,505.6650000042282,1081.2100000039209,1170.8349999971688,671.7899999930523],"keys_pressed":["leftarrow","rightarrow","rightarrow","leftarrow","rightarrow"],"horizon":5,"forced_choices":["leftarrow","rightarrow","rightarrow","leftarrow"],"right_color":"orange","left_color":"lightblue","left_mu":40,"right_mu":70,"left_numbers":[40,50,36,46,40],"right_numbers":[64,66,70,66,72],"points_earned":294,"phase":"task","trial_type":"horizons-task","trial_index":35,"time_elapsed":785313,"internal_node_id":"0.0-31.0","task_version":"0.2"},{"response_times":[2093.6299999884795,7481.655000010505,562.8649999998743,453.1600000045728,601.3200000015786],"keys_pressed":["leftarrow","leftarrow","rightarrow","leftarrow","leftarrow"],"horizon":5,"forced_choices":["leftarrow","leftarrow","rightarrow","leftarrow"],"right_color":"orange","left_color":"lightblue","left_mu":60,"right_mu":80,"left_numbers":[64,61,73,58,51],"right_numbers":[78,98,66,85,80],"points_earned":300,"phase":"task","trial_type":"horizons-task","trial_index":36,"time_elapsed":798007,"internal_node_id":"0.0-32.0","task_version":"0.2"},{"response_times":[2058.8949999946635,596.8200000061188,508.0100000050152,556.4700000104494,743.399999992107,638.34499999939,541.2099999957718,1202.915000001667,624.7950000106357,528.8399999990361],"keys_pressed":["leftarrow","leftarrow","rightarrow","rightarrow","leftarrow","leftarrow","leftarrow","rightarrow","leftarrow","leftarrow"],"horizon":10,"forced_choices":["leftarrow","leftarrow","rightarrow","rightarrow"],"right_color":"lightblue","left_color":"orange","left_mu":40,"right_mu":48,"left_numbers":[40,37,46,41,44,47,49,45,39,54],"right_numbers":[47,31,43,47,43,42,41,39,46,49],"points_earned":439,"phase":"task","trial_type":"horizons-task","trial_index":37,"time_elapsed":807509,"internal_node_id":"0.0-33.0","task_version":"0.2"},{"response_times":[836.0300000058487,487.9450000007637,766.5549999946961,455.710000009276,764.6300000051269],"keys_pressed":["leftarrow","leftarrow","rightarrow","leftarrow","leftarrow"],"horizon":5,"forced_choices":["leftarrow","leftarrow","rightarrow","leftarrow"],"right_color":"orange","left_color":"lightblue","left_mu":60,"right_mu":56,"left_numbers":[72,59,70,67,65],"right_numbers":[77,47,45,62,67],"points_earned":308,"phase":"task","trial_type":"horizons-task","trial_index":38,"time_elapsed":812322,"internal_node_id":"0.0-34.0","task_version":"0.2"},{"response_times":[754.6549999970011,514.6000000095228,463.5700000071665,573.5300000087591,459.1599999985192],"keys_pressed":["leftarrow","leftarrow","rightarrow","rightarrow","leftarrow"],"horizon":5,"forced_choices":["leftarrow","leftarrow","rightarrow","rightarrow"],"right_color":"orange","left_color":"lightblue","left_mu":40,"right_mu":60,"left_numbers":[42,32,40,38,49],"right_numbers":[58,53,46,63,47],"points_earned":232,"phase":"task","trial_type":"horizons-task","trial_index":39,"time_elapsed":816590,"internal_node_id":"0.0-35.0","task_version":"0.2"},{"response_times":[585.5849999934435,452.39000000583474,481.31499999726657,454.65499999409076,709.4300000026124],"keys_pressed":["rightarrow","rightarrow","leftarrow","rightarrow","leftarrow"],"horizon":5,"forced_choices":["rightarrow","rightarrow","leftarrow","rightarrow"],"right_color":"orange","left_color":"lightblue","left_mu":40,"right_mu":10,"left_numbers":[53,49,47,33,35],"right_numbers":[3,7,3,10,6],"points_earned":102,"phase":"task","trial_type":"horizons-task","trial_index":40,"time_elapsed":820775,"internal_node_id":"0.0-36.0","task_version":"0.2"},{"response_times":[563.6099999974249,388.85499999742024,500.0900000013644,721.0900000063702,1054.2200000054436],"keys_pressed":["rightarrow","leftarrow","rightarrow","leftarrow","leftarrow"],"horizon":5,"forced_choices":["rightarrow","leftarrow","rightarrow","leftarrow"],"right_color":"lightblue","left_color":"orange","left_mu":60,"right_mu":52,"left_numbers":[60,48,65,62,59],"right_numbers":[51,53,53,34,46],"points_earned":273,"phase":"task","trial_type":"horizons-task","trial_index":41,"time_elapsed":825505,"internal_node_id":"0.0-37.0","task_version":"0.2"},{"response_times":[783.8800000026822,694.4500000099652,634.3250000063563,712.8700000030221,429.6699999977136],"keys_pressed":["leftarrow","leftarrow","rightarrow","leftarrow","leftarrow"],"horizon":5,"forced_choices":["leftarrow","leftarrow","rightarrow","leftarrow"],"right_color":"lightblue","left_color":"orange","left_mu":60,"right_mu":48,"left_numbers":[69,65,64,69,67],"right_numbers":[30,61,48,46,40],"points_earned":318,"phase":"task","trial_type":"horizons-task","trial_index":42,"time_elapsed":830262,"internal_node_id":"0.0-38.0","task_version":"0.2"},{"response_times":[622.430000003078,398.8600000011502,996.3449999922886,611.5850000060163,673.5550000012154,864.6350000053644,1558.9150000014342,644.8049999889918,855.1349999906961,541.6799999948125],"keys_pressed":["rightarrow","leftarrow","leftarrow","leftarrow","rightarrow","rightarrow","rightarrow","rightarrow","rightarrow","rightarrow"],"horizon":10,"forced_choices":["rightarrow","leftarrow","leftarrow","leftarrow"],"right_color":"lightblue","left_color":"orange","left_mu":40,"right_mu":52,"left_numbers":[40,42,37,41,38,45,27,52,37,33],"right_numbers":[51,54,61,62,55,55,54,45,44,48],"points_earned":472,"phase":"task","trial_type":"horizons-task","trial_index":43,"time_elapsed":839533,"internal_node_id":"0.0-39.0","task_version":"0.2"},{"response_times":[581.1649999959627,389.52500000596046,606.6649999993388,961.6599999862956,1245.2049999992596],"keys_pressed":["leftarrow","rightarrow","rightarrow","rightarrow","rightarrow"],"horizon":5,"forced_choices":["leftarrow","rightarrow","rightarrow","rightarrow"],"right_color":"lightblue","left_color":"orange","left_mu":60,"right_mu":68,"left_numbers":[69,60,55,69,57],"right_numbers":[58,70,69,58,54],"points_earned":320,"phase":"task","trial_type":"horizons-task","trial_index":44,"time_elapsed":844819,"internal_node_id":"0.0-40.0","task_version":"0.2"},{"response_times":[438.4599999903003,496.28500000108033,674.4150000013178,781.9300000119256,596.2200000067241],"keys_pressed":["rightarrow","leftarrow","leftarrow","rightarrow","leftarrow"],"horizon":5,"forced_choices":["rightarrow","leftarrow","leftarrow","rightarrow"],"right_color":"lightblue","left_color":"orange","left_mu":40,"right_mu":28,"left_numbers":[28,47,40,43,39],"right_numbers":[24,16,26,32,37],"points_earned":182,"phase":"task","trial_type":"horizons-task","trial_index":45,"time_elapsed":849308,"internal_node_id":"0.0-41.0","task_version":"0.2"},{"response_times":[488.66000000271015,397.9899999976624,334.1250000084983,972.4550000100862,677.8749999939464,1206.1399999947753,718.5349999926984,611.510000002454,327.145000002929,373.4849999891594],"keys_pressed":["rightarrow","leftarrow","rightarrow","rightarrow","rightarrow","leftarrow","leftarrow","leftarrow","leftarrow","leftarrow"],"horizon":10,"forced_choices":["rightarrow","leftarrow","rightarrow","rightarrow"],"right_color":"lightblue","left_color":"orange","left_mu":40,"right_mu":20,"left_numbers":[44,27,48,38,37,32,44,43,21,26],"right_numbers":[27,32,19,8,20,32,27,13,24,18],"points_earned":267,"phase":"task","trial_type":"horizons-task","trial_index":46,"time_elapsed":856918,"internal_node_id":"0.0-42.0","task_version":"0.2"},{"response_times":[677.7449999935925,885.469999993802,782.4850000033621,658.2850000122562,843.9999999973224,1630.8050000079675,1051.565000001574,632.0849999901839,579.4199999945704,542.0700000104262],"keys_pressed":["leftarrow","leftarrow","rightarrow","rightarrow","leftarrow","rightarrow","rightarrow","leftarrow","leftarrow","leftarrow"],"horizon":10,"forced_choices":["leftarrow","leftarrow","rightarrow","rightarrow"],"right_color":"lightblue","left_color":"orange","left_mu":60,"right_mu":48,"left_numbers":[67,68,56,59,51,55,63,54,72,61],"right_numbers":[46,41,56,57,51,59,38,56,52,59],"points_earned":583,"phase":"task","trial_type":"horizons-task","trial_index":47,"time_elapsed":866704,"internal_node_id":"0.0-43.0","task_version":"0.2"},{"response_times":[622.9750000056811,693.4699999983422,670.2899999945657,538.910000002943,519.2800000077114,861.7399999930058,420.86499999277294,328.2199999957811,318.9049999928102,361.7800000065472],"keys_pressed":["leftarrow","leftarrow","leftarrow","rightarrow","leftarrow","leftarrow","leftarrow","leftarrow","rightarrow","leftarrow"],"horizon":10,"forced_choices":["leftarrow","leftarrow","leftarrow","rightarrow"],"right_color":"lightblue","left_color":"orange","left_mu":60,"right_mu":40,"left_numbers":[69,64,65,55,62,54,43,54,51,67],"right_numbers":[39,45,46,40,45,37,54,39,42,33],"points_earned":560,"phase":"task","trial_type":"horizons-task","trial_index":48,"time_elapsed":873543,"internal_node_id":"0.0-44.0","task_version":"0.2"},{"response_times":[630.8600000047591,786.115000009886,543.8649999996414,717.449999996461,931.4149999991059,442.62000000162516,735.740000003716,783.8400000036927,521.3500000099884,580.8299999916926],"keys_pressed":["leftarrow","rightarrow","leftarrow","leftarrow","rightarrow","leftarrow","rightarrow","rightarrow","rightarrow","rightarrow"],"horizon":10,"forced_choices":["leftarrow","rightarrow","leftarrow","leftarrow"],"right_color":"orange","left_color":"lightblue","left_mu":60,"right_mu":64,"left_numbers":[50,57,64,57,65,47,71,62,57,60],"right_numbers":[61,55,71,61,74,55,55,55,86,74],"points_earned":617,"phase":"task","trial_type":"horizons-task","trial_index":49,"time_elapsed":881719,"internal_node_id":"0.0-45.0","task_version":"0.2"},{"response_times":[1077.1899999963352,710.4350000008708,655.334999988554,636.2100000114879,858.1249999988358],"keys_pressed":["rightarrow","rightarrow","rightarrow","leftarrow","rightarrow"],"horizon":5,"forced_choices":["rightarrow","rightarrow","rightarrow","leftarrow"],"right_color":"lightblue","left_color":"orange","left_mu":40,"right_mu":44,"left_numbers":[50,38,37,43,31],"right_numbers":[47,53,43,44,35],"points_earned":221,"phase":"task","trial_type":"horizons-task","trial_index":50,"time_elapsed":887159,"internal_node_id":"0.0-46.0","task_version":"0.2"},{"view_history":"[{\"page_index\":0,\"viewing_time\":3495.6099999981234},{\"page_index\":1,\"viewing_time\":1679.7850000002654}]","rt":5175.749999994878,"trial_type":"instructions","trial_index":51,"time_elapsed":892335,"internal_node_id":"0.0-47.0","task_version":"0.2"},{"response_times":[2065.2700000064215,543.2149999978719,1147.7750000049127,650.8299999986775,486.8750000023283],"keys_pressed":["rightarrow","rightarrow","leftarrow","leftarrow","leftarrow"],"horizon":5,"forced_choices":["rightarrow","rightarrow","leftarrow","leftarrow"],"right_color":"orange","left_color":"lightblue","left_mu":40,"right_mu":10,"left_numbers":[32,26,42,43,33],"right_numbers":[0,5,4,12,12],"points_earned":123,"phase":"task","trial_type":"horizons-task","trial_index":52,"time_elapsed":898735,"internal_node_id":"0.0-48.0","task_version":"0.2"},{"response_times":[686.360000006971,442.75000000197906,524.4049999892013,585.8250000019325,1532.115000009071,688.9049999881536,406.3599999935832,311.12499999289867,823.9549999998417,241.11000000266358],"keys_pressed":["rightarrow","leftarrow","leftarrow","rightarrow","leftarrow","leftarrow","leftarrow","leftarrow","leftarrow","leftarrow"],"horizon":10,"forced_choices":["rightarrow","leftarrow","leftarrow","rightarrow"],"right_color":"lightblue","left_color":"orange","left_mu":60,"right_mu":40,"left_numbers":[49,64,58,60,62,56,37,57,52,60],"right_numbers":[36,57,52,38,27,40,68,39,49,30],"points_earned":520,"phase":"task","trial_type":"horizons-task","trial_index":53,"time_elapsed":906480,"internal_node_id":"0.0-49.0","task_version":"0.2"},{"response_times":[21238.274999996065,420.8750000107102,885.8949999994365,780.0349999888567,1082.6349999988452,629.1849999979604,503.20999999530613,468.6249999940628,464.6999999968102,479.3199999985518],"keys_pressed":["leftarrow","rightarrow","leftarrow","rightarrow","rightarrow","rightarrow","rightarrow","rightarrow","rightarrow","rightarrow"],"horizon":10,"forced_choices":["leftarrow","rightarrow","leftarrow","rightarrow"],"right_color":"lightblue","left_color":"orange","left_mu":60,"right_mu":72,"left_numbers":[44,54,64,61,57,65,43,69,56,62],"right_numbers":[69,65,61,78,59,68,77,69,79,61],"points_earned":664,"phase":"task","trial_type":"horizons-task","trial_index":54,"time_elapsed":934935,"internal_node_id":"0.0-50.0","task_version":"0.2"},{"response_times":[1433.615000001737,457.9049999883864,403.73999999428634,418.56999999436084,572.6949999952922,581.6150000027847,697.7849999966566,695.4750000004424,456.42500001122244,505.6100000074366],"keys_pressed":["rightarrow","leftarrow","rightarrow","rightarrow","rightarrow","leftarrow","rightarrow","leftarrow","leftarrow","leftarrow"],"horizon":10,"forced_choices":["rightarrow","leftarrow","rightarrow","rightarrow"],"right_color":"orange","left_color":"lightblue","left_mu":40,"right_mu":36,"left_numbers":[50,43,42,50,43,36,45,45,44,37],"right_numbers":[39,32,32,39,35,25,36,40,35,41],"points_earned":386,"phase":"task","trial_type":"horizons-task","trial_index":55,"time_elapsed":942661,"internal_node_id":"0.0-51.0","task_version":"0.2"},{"response_times":[1027.8550000075484,567.9549999913434,768.9149999932852,499.97000000439584,569.4800000055693,641.9200000091223,493.5549999936484,437.93499999446794,277.7700000006007,440.32499998866115],"keys_pressed":["leftarrow","leftarrow","leftarrow","rightarrow","leftarrow","rightarrow","rightarrow","rightarrow","rightarrow","rightarrow"],"horizon":10,"forced_choices":["leftarrow","leftarrow","leftarrow","rightarrow"],"right_color":"orange","left_color":"lightblue","left_mu":40,"right_mu":60,"left_numbers":[35,53,25,48,28,54,33,41,48,37],"right_numbers":[56,70,62,54,40,71,54,59,59,65],"points_earned":503,"phase":"task","trial_type":"horizons-task","trial_index":56,"time_elapsed":949889,"internal_node_id":"0.0-52.0","task_version":"0.2"},{"response_times":[965.6849999882979,1157.4649999965914,646.6899999941234,1170.9650000120746,1216.5300000051502],"keys_pressed":["rightarrow","leftarrow","leftarrow","leftarrow","leftarrow"],"horizon":5,"forced_choices":["rightarrow","leftarrow","leftarrow","leftarrow"],"right_color":"lightblue","left_color":"orange","left_mu":40,"right_mu":48,"left_numbers":[49,32,27,35,49],"right_numbers":[50,46,39,43,51],"points_earned":193,"phase":"task","trial_type":"horizons-task","trial_index":57,"time_elapsed":956549,"internal_node_id":"0.0-53.0","task_version":"0.2"},{"response_times":[993.945000009262,480.07000000507105,609.7100000042701,695.1149999949848,927.9349999997066,687.2000000003027,904.5599999953993,550.440000006347,398.64500000840053,504.0049999952316],"keys_pressed":["leftarrow","rightarrow","rightarrow","rightarrow","rightarrow","rightarrow","leftarrow","leftarrow","leftarrow","leftarrow"],"horizon":10,"forced_choices":["leftarrow","rightarrow","rightarrow","rightarrow"],"right_color":"orange","left_color":"lightblue","left_mu":60,"right_mu":30,"left_numbers":[66,45,72,58,57,55,59,37,55,62],"right_numbers":[39,30,9,12,29,30,26,44,24,38],"points_earned":389,"phase":"task","trial_type":"horizons-task","trial_index":58,"time_elapsed":964803,"internal_node_id":"0.0-54.0","task_version":"0.2"},{"response_times":[552.5849999976344,438.52500000502914,506.070000003092,510.7949999946868,580.2350000012666,456.81499999773223,323.89999998849817,386.7699999973411,390.6950000091456,268.76500000071246],"keys_pressed":["leftarrow","rightarrow","rightarrow","leftarrow","rightarrow","rightarrow","rightarrow","leftarrow","rightarrow","rightarrow"],"horizon":10,"forced_choices":["leftarrow","rightarrow","rightarrow","leftarrow"],"right_color":"lightblue","left_color":"orange","left_mu":40,"right_mu":52,"left_numbers":[35,32,36,44,38,21,53,35,40,42],"right_numbers":[44,46,54,50,57,44,57,66,55,76],"points_earned":503,"phase":"task","trial_type":"horizons-task","trial_index":59,"time_elapsed":970720,"internal_node_id":"0.0-55.0","task_version":"0.2"},{"response_times":[702.1500000118976,480.84499999822583,558.7649999943096,520.3500000061467,578.5050000122283],"keys_pressed":["leftarrow","rightarrow","rightarrow","leftarrow","rightarrow"],"horizon":5,"forced_choices":["leftarrow","rightarrow","rightarrow","leftarrow"],"right_color":"orange","left_color":"lightblue","left_mu":60,"right_mu":56,"left_numbers":[61,59,46,60,64],"right_numbers":[67,50,50,46,54],"points_earned":275,"phase":"task","trial_type":"horizons-task","trial_index":60,"time_elapsed":975063,"internal_node_id":"0.0-56.0","task_version":"0.2"},{"response_times":[709.8950000072364,361.3049999985378,631.2199999956647,1059.3499999959022,744.604999999865],"keys_pressed":["leftarrow","rightarrow","rightarrow","rightarrow","leftarrow"],"horizon":5,"forced_choices":["leftarrow","rightarrow","rightarrow","rightarrow"],"right_color":"orange","left_color":"lightblue","left_mu":60,"right_mu":30,"left_numbers":[60,62,63,69,57],"right_numbers":[22,15,36,37,34],"points_earned":205,"phase":"task","trial_type":"horizons-task","trial_index":61,"time_elapsed":980071,"internal_node_id":"0.0-57.0","task_version":"0.2"},{"response_times":[1260.7400000124471,427.5749999942491,463.4000000078231,567.6499999972293,930.3400000062538],"keys_pressed":["leftarrow","rightarrow","leftarrow","rightarrow","leftarrow"],"horizon":5,"forced_choices":["leftarrow","rightarrow","leftarrow","rightarrow"],"right_color":"orange","left_color":"lightblue","left_mu":40,"right_mu":36,"left_numbers":[35,47,34,43,27],"right_numbers":[35,35,46,46,32],"points_earned":177,"phase":"task","trial_type":"horizons-task","trial_index":62,"time_elapsed":985224,"internal_node_id":"0.0-58.0","task_version":"0.2"},{"response_times":[15128.410000004806,801.1900000128662,645.3850000107195,857.0650000037858,998.3900000079302,506.7400000116322,285.3399999876274,649.7250000102213,691.9249999918975,586.1250000016298],"keys_pressed":["rightarrow","leftarrow","leftarrow","leftarrow","leftarrow","leftarrow","leftarrow","rightarrow","rightarrow","leftarrow"],"horizon":10,"forced_choices":["rightarrow","leftarrow","leftarrow","leftarrow"],"right_color":"lightblue","left_color":"orange","left_mu":40,"right_mu":48,"left_numbers":[25,19,36,45,45,33,35,36,44,27],"right_numbers":[40,58,44,48,51,53,48,47,31,48],"points_earned":358,"phase":"task","trial_type":"horizons-task","trial_index":63,"time_elapsed":1007876,"internal_node_id":"0.0-59.0","task_version":"0.2"},{"response_times":[7146.3499999954365,836.9050000037532,802.6050000044052,466.4000000047963,846.5250000008382,511.11500000115484,573.7550000048941,280.42500000447035,267.2549999988405,204.59999999729916],"keys_pressed":["rightarrow","leftarrow","rightarrow","leftarrow","leftarrow","rightarrow","rightarrow","rightarrow","rightarrow","rightarrow"],"horizon":10,"forced_choices":["rightarrow","leftarrow","rightarrow","leftarrow"],"right_color":"orange","left_color":"lightblue","left_mu":60,"right_mu":80,"left_numbers":[61,66,67,62,59,58,55,53,61,56],"right_numbers":[80,78,77,90,72,81,75,75,70,62],"points_earned":707,"phase":"task","trial_type":"horizons-task","trial_index":64,"time_elapsed":1021319,"internal_node_id":"0.0-60.0","task_version":"0.2"},{"response_times":[9441.47000000521,618.0600000079721,1330.3850000083912,455.1849999988917,635.3799999924377],"keys_pressed":["rightarrow","rightarrow","leftarrow","rightarrow","rightarrow"],"horizon":5,"forced_choices":["rightarrow","rightarrow","leftarrow","rightarrow"],"right_color":"lightblue","left_color":"orange","left_mu":60,"right_mu":52,"left_numbers":[75,57,54,58,60],"right_numbers":[43,48,65,52,65],"points_earned":262,"phase":"task","trial_type":"horizons-task","trial_index":65,"time_elapsed":1035302,"internal_node_id":"0.0-61.0","task_version":"0.2"},{"response_times":[2462.68000001146,458.7900000042282,688.3050000033109,529.0550000063377,692.7399999985937],"keys_pressed":["rightarrow","leftarrow","leftarrow","rightarrow","leftarrow"],"horizon":5,"forced_choices":["rightarrow","leftarrow","leftarrow","rightarrow"],"right_color":"orange","left_color":"lightblue","left_mu":40,"right_mu":32,"left_numbers":[35,30,37,42,47],"right_numbers":[35,32,39,22,30],"points_earned":171,"phase":"task","trial_type":"horizons-task","trial_index":66,"time_elapsed":1041635,"internal_node_id":"0.0-62.0","task_version":"0.2"},{"response_times":[1102.2549999908078,422.6100000087172,749.6399999945424,824.3849999997765,653.784999987809],"keys_pressed":["leftarrow","rightarrow","rightarrow","rightarrow","leftarrow"],"horizon":5,"forced_choices":["leftarrow","rightarrow","rightarrow","rightarrow"],"right_color":"lightblue","left_color":"orange","left_mu":60,"right_mu":72,"left_numbers":[54,56,73,63,59],"right_numbers":[61,78,68,75,68],"points_earned":334,"phase":"task","trial_type":"horizons-task","trial_index":67,"time_elapsed":1046890,"internal_node_id":"0.0-63.0","task_version":"0.2"},{"response_times":[710.5100000044331,489.9749999893829,383.5399999951478,1088.1599999994505,821.0450000043493,557.5249999966472,601.4450000075158,606.539999993518,777.0349999919999,552.4200000073761],"keys_pressed":["rightarrow","leftarrow","rightarrow","leftarrow","leftarrow","leftarrow","leftarrow","leftarrow","rightarrow","leftarrow"],"horizon":10,"forced_choices":["rightarrow","leftarrow","rightarrow","leftarrow"],"right_color":"lightblue","left_color":"orange","left_mu":40,"right_mu":20,"left_numbers":[25,39,42,39,44,49,53,37,45,44],"right_numbers":[26,15,12,15,27,23,12,29,9,24],"points_earned":352,"phase":"task","trial_type":"horizons-task","trial_index":68,"time_elapsed":1054981,"internal_node_id":"0.0-64.0","task_version":"0.2"},{"response_times":[559.6000000077765,598.295000003418,727.2050000028685,493.1349999969825,690.5849999894854,596.4499999971595,530.0049999931362,542.4550000024028,544.3149999920279,552.720000006957],"keys_pressed":["leftarrow","leftarrow","rightarrow","leftarrow","leftarrow","leftarrow","leftarrow","leftarrow","leftarrow","leftarrow"],"horizon":10,"forced_choices":["leftarrow","leftarrow","rightarrow","leftarrow"],"right_color":"lightblue","left_color":"orange","left_mu":60,"right_mu":48,"left_numbers":[60,57,63,68,61,68,57,77,59,44],"right_numbers":[58,59,52,55,33,49,40,54,50,41],"points_earned":603,"phase":"task","trial_type":"horizons-task","trial_index":69,"time_elapsed":1062317,"internal_node_id":"0.0-65.0","task_version":"0.2"},{"response_times":[496.27000000327826,762.6900000032037,818.3200000056531,516.820000004489,489.6250000020955],"keys_pressed":["rightarrow","rightarrow","leftarrow","rightarrow","rightarrow"],"horizon":5,"forced_choices":["rightarrow","rightarrow","leftarrow","rightarrow"],"right_color":"orange","left_color":"lightblue","left_mu":60,"right_mu":90,"left_numbers":[60,64,63,76,56],"right_numbers":[87,91,86,84,86],"points_earned":411,"phase":"task","trial_type":"horizons-task","trial_index":70,"time_elapsed":1066902,"internal_node_id":"0.0-66.0","task_version":"0.2"},{"response_times":[430.34500000067055,326.70999999390915,583.2550000050105,517.2999999921303,948.1499999966472],"keys_pressed":["leftarrow","rightarrow","leftarrow","rightarrow","rightarrow"],"horizon":5,"forced_choices":["leftarrow","rightarrow","leftarrow","rightarrow"],"right_color":"lightblue","left_color":"orange","left_mu":60,"right_mu":72,"left_numbers":[53,44,46,69,61],"right_numbers":[65,68,63,62,65],"points_earned":294,"phase":"task","trial_type":"horizons-task","trial_index":71,"time_elapsed":1071210,"internal_node_id":"0.0-67.0","task_version":"0.2"},{"response_times":[559.9650000077672,420.6149999953341,378.89000000734814,669.9450000012293,570.4150000093505,568.7599999946542,340.7799999988638,234.71999999298714,197.01000000350177,157.68000000389293],"keys_pressed":["leftarrow","rightarrow","leftarrow","leftarrow","rightarrow","rightarrow","rightarrow","rightarrow","rightarrow","rightarrow"],"horizon":10,"forced_choices":["leftarrow","rightarrow","leftarrow","leftarrow"],"right_color":"orange","left_color":"lightblue","left_mu":40,"right_mu":70,"left_numbers":[55,49,40,36,41,44,44,33,35,53],"right_numbers":[70,60,70,85,64,63,73,77,79,86],"points_earned":633,"phase":"task","trial_type":"horizons-task","trial_index":72,"time_elapsed":1076811,"internal_node_id":"0.0-68.0","task_version":"0.2"},{"response_times":[623.6950000021607,713.8000000123866,309.9199999999255,619.4350000005215,735.7999999946915,757.9950000070967,391.6600000082981,534.0900000010151,245.49000000115484,581.5850000069477],"keys_pressed":["rightarrow","rightarrow","rightarrow","leftarrow","leftarrow","leftarrow","rightarrow","leftarrow","leftarrow","leftarrow"],"horizon":10,"forced_choices":["rightarrow","rightarrow","rightarrow","leftarrow"],"right_color":"orange","left_color":"lightblue","left_mu":40,"right_mu":32,"left_numbers":[28,40,40,39,42,41,31,20,39,30],"right_numbers":[30,21,35,27,23,33,29,22,41,46],"points_earned":326,"phase":"task","trial_type":"horizons-task","trial_index":73,"time_elapsed":1083827,"internal_node_id":"0.0-69.0","task_version":"0.2"},{"response_times":[876.904999997234,267.82000000821427,513.7699999904726,611.3350000088103,2491.5199999960605,547.580000013113,423.6200000012759,940.7250000077765,191.69999999576248,453.524999990128],"keys_pressed":["rightarrow","leftarrow","leftarrow","rightarrow","leftarrow","rightarrow","leftarrow","leftarrow","rightarrow","leftarrow"],"horizon":10,"forced_choices":["rightarrow","leftarrow","leftarrow","rightarrow"],"right_color":"lightblue","left_color":"orange","left_mu":40,"right_mu":44,"left_numbers":[32,47,34,44,25,38,38,34,38,36],"right_numbers":[33,40,45,43,49,36,56,26,32,50],"points_earned":358,"phase":"task","trial_type":"horizons-task","trial_index":74,"time_elapsed":1092648,"internal_node_id":"0.0-70.0","task_version":"0.2"},{"response_times":[506.10000001313165,388.3099999947008,768.1300000112969,383.96999999531545,414.8049999929499,234.46000000694767,363.82500000763685,208.02499999990687,281.09000000404194,219.21500000474043],"keys_pressed":["leftarrow","rightarrow","rightarrow","rightarrow","rightarrow","rightarrow","rightarrow","leftarrow","rightarrow","rightarrow"],"horizon":10,"forced_choices":["leftarrow","rightarrow","rightarrow","rightarrow"],"right_color":"lightblue","left_color":"orange","left_mu":60,"right_mu":68,"left_numbers":[54,55,55,65,53,52,60,56,55,51],"right_numbers":[60,60,65,65,61,58,73,72,72,67],"points_earned":631,"phase":"task","trial_type":"horizons-task","trial_index":75,"time_elapsed":1097918,"internal_node_id":"0.0-71.0","task_version":"0.2"},{"response_times":[21824.340000006603,569.4849999998696,489.5350000006147,544.8299999989104,745.5550000013318],"keys_pressed":["leftarrow","rightarrow","leftarrow","rightarrow","rightarrow"],"horizon":5,"forced_choices":["leftarrow","rightarrow","leftarrow","rightarrow"],"right_color":"orange","left_color":"lightblue","left_mu":60,"right_mu":64,"left_numbers":[57,62,61,57,62],"right_numbers":[65,71,82,61,68],"points_earned":318,"phase":"task","trial_type":"horizons-task","trial_index":76,"time_elapsed":1123595,"internal_node_id":"0.0-72.0","task_version":"0.2"},{"response_times":[3173.9599999999627,417.95500001171604,518.7149999982212,532.4299999922514,770.369999998482],"keys_pressed":["rightarrow","leftarrow","rightarrow","rightarrow","leftarrow"],"horizon":5,"forced_choices":["rightarrow","leftarrow","rightarrow","rightarrow"],"right_color":"lightblue","left_color":"orange","left_mu":40,"right_mu":20,"left_numbers":[46,35,31,35,34],"right_numbers":[12,8,19,19,11],"points_earned":119,"phase":"task","trial_type":"horizons-task","trial_index":77,"time_elapsed":1130510,"internal_node_id":"0.0-73.0","task_version":"0.2"},{"response_times":[532.3199999984354,423.6600000006147,704.6950000077486,478.9199999938719,599.5499999991152,620.5000000044238,456.439999994589,576.8499999977648,404.32000000122935,558.5750000025146],"keys_pressed":["rightarrow","leftarrow","leftarrow","rightarrow","rightarrow","rightarrow","leftarrow","leftarrow","leftarrow","leftarrow"],"horizon":10,"forced_choices":["rightarrow","leftarrow","leftarrow","rightarrow"],"right_color":"orange","left_color":"lightblue","left_mu":40,"right_mu":32,"left_numbers":[32,31,39,43,51,41,50,42,45,48],"right_numbers":[29,39,15,46,33,17,30,24,13,41],"points_earned":380,"phase":"task","trial_type":"horizons-task","trial_index":78,"time_elapsed":1137368,"internal_node_id":"0.0-74.0","task_version":"0.2"},{"response_times":[537.834999995539,320.86500000138767,543.7000000094995,441.7899999972433,666.6599999880418],"keys_pressed":["leftarrow","rightarrow","rightarrow","leftarrow","leftarrow"],"horizon":5,"forced_choices":["leftarrow","rightarrow","rightarrow","leftarrow"],"right_color":"lightblue","left_color":"orange","left_mu":40,"right_mu":52,"left_numbers":[38,47,38,41,47],"right_numbers":[65,41,48,58,48],"points_earned":215,"phase":"task","trial_type":"horizons-task","trial_index":79,"time_elapsed":1141380,"internal_node_id":"0.0-75.0","task_version":"0.2"},{"response_times":[569.2899999993388,464.31500000460073,553.489999991376,401.7500000044238,695.8850000081584,440.3500000042841,248.1499999994412,217.44500000192784,142.01999999932013,251.785000000149],"keys_pressed":["rightarrow","rightarrow","leftarrow","rightarrow","leftarrow","leftarrow","leftarrow","leftarrow","leftarrow","leftarrow"],"horizon":10,"forced_choices":["rightarrow","rightarrow","leftarrow","rightarrow"],"right_color":"orange","left_color":"lightblue","left_mu":40,"right_mu":10,"left_numbers":[39,39,35,28,39,38,41,45,30,41],"right_numbers":[8,16,11,4,7,3,1,10,3,10],"points_earned":297,"phase":"task","trial_type":"horizons-task","trial_index":80,"time_elapsed":1146867,"internal_node_id":"0.0-76.0","task_version":"0.2"},{"response_times":[646.2549999994226,463.530000008177,584.4749999959022,683.7249999952037,526.4049999970011],"keys_pressed":["rightarrow","leftarrow","rightarrow","rightarrow","leftarrow"],"horizon":5,"forced_choices":["rightarrow","leftarrow","rightarrow","rightarrow"],"right_color":"orange","left_color":"lightblue","left_mu":40,"right_mu":36,"left_numbers":[41,26,41,45,37],"right_numbers":[37,48,24,29,39],"points_earned":153,"phase":"task","trial_type":"horizons-task","trial_index":81,"time_elapsed":1151274,"internal_node_id":"0.0-77.0","task_version":"0.2"},{"response_times":[536.1350000021048,680.4850000045262,509.6200000117533,476.714999997057,679.5199999907054,636.5549999901559,688.4199999910779,333.8050000020303,993.614999999525,721.6249999909196],"keys_pressed":["leftarrow","leftarrow","rightarrow","leftarrow","leftarrow","rightarrow","rightarrow","leftarrow","rightarrow","leftarrow"],"horizon":10,"forced_choices":["leftarrow","leftarrow","rightarrow","leftarrow"],"right_color":"orange","left_color":"lightblue","left_mu":60,"right_mu":80,"left_numbers":[53,58,47,51,71,67,70,76,52,76],"right_numbers":[74,81,75,83,89,73,86,68,66,86],"points_earned":685,"phase":"task","trial_type":"horizons-task","trial_index":82,"time_elapsed":1159034,"internal_node_id":"0.0-78.0","task_version":"0.2"},{"response_times":[929.0499999914318,573.5950000090525,638.8149999983143,753.324999997858,704.6750000007451],"keys_pressed":["leftarrow","leftarrow","rightarrow","rightarrow","rightarrow"],"horizon":5,"forced_choices":["leftarrow","leftarrow","rightarrow","rightarrow"],"right_color":"lightblue","left_color":"orange","left_mu":40,"right_mu":48,"left_numbers":[21,39,41,47,46],"right_numbers":[48,50,42,48,36],"points_earned":186,"phase":"task","trial_type":"horizons-task","trial_index":83,"time_elapsed":1164136,"internal_node_id":"0.0-79.0","task_version":"0.2"},{"response_times":[911.1149999951012,723.8649999927729,856.8200000007637,571.2100000090431,763.4299999917857],"keys_pressed":["leftarrow","leftarrow","rightarrow","rightarrow","leftarrow"],"horizon":5,"forced_choices":["leftarrow","leftarrow","rightarrow","rightarrow"],"right_color":"lightblue","left_color":"orange","left_mu":60,"right_mu":48,"left_numbers":[62,71,65,61,59],"right_numbers":[40,40,27,46,45],"points_earned":265,"phase":"task","trial_type":"horizons-task","trial_index":84,"time_elapsed":1169464,"internal_node_id":"0.0-80.0","task_version":"0.2"},{"response_times":[618.5350000013132,640.8650000083726,1363.5799999900628,643.7500000030268,2589.280000000028],"keys_pressed":["rightarrow","rightarrow","rightarrow","leftarrow","leftarrow"],"horizon":5,"forced_choices":["rightarrow","rightarrow","rightarrow","leftarrow"],"right_color":"orange","left_color":"lightblue","left_mu":40,"right_mu":32,"left_numbers":[49,37,39,50,45],"right_numbers":[33,38,32,34,26],"points_earned":198,"phase":"task","trial_type":"horizons-task","trial_index":85,"time_elapsed":1176822,"internal_node_id":"0.0-81.0","task_version":"0.2"},{"response_times":[1012.7950000022538,458.78000000095926,794.4600000046194,417.26999999093823,1894.9449999928474,593.1350000025705,704.9500000139233,438.8850000104867,1166.5450000001583,444.13000000361353],"keys_pressed":["rightarrow","rightarrow","leftarrow","rightarrow","rightarrow","leftarrow","leftarrow","leftarrow","leftarrow","leftarrow"],"horizon":10,"forced_choices":["rightarrow","rightarrow","leftarrow","rightarrow"],"right_color":"lightblue","left_color":"orange","left_mu":60,"right_mu":52,"left_numbers":[59,59,60,67,58,74,65,77,52,47],"right_numbers":[45,55,55,66,38,50,46,46,54,51],"points_earned":579,"phase":"task","trial_type":"horizons-task","trial_index":86,"time_elapsed":1186251,"internal_node_id":"0.0-82.0","task_version":"0.2"},{"response_times":[627.2699999972247,796.7150000040419,629.3699999949895,684.8750000062864,1210.944999998901,285.81000000145286,222.76000000420026,216.12500000651926,161.1600000031758,249.2749999947846],"keys_pressed":["leftarrow","leftarrow","rightarrow","leftarrow","leftarrow","leftarrow","leftarrow","leftarrow","leftarrow","rightarrow"],"horizon":10,"forced_choices":["leftarrow","leftarrow","rightarrow","leftarrow"],"right_color":"orange","left_color":"lightblue","left_mu":60,"right_mu":56,"left_numbers":[55,68,67,62,54,59,56,78,72,58],"right_numbers":[52,74,45,33,58,73,59,51,57,59],"points_earned":608,"phase":"task","trial_type":"horizons-task","trial_index":87,"time_elapsed":1192837,"internal_node_id":"0.0-83.0","task_version":"0.2"},{"response_times":[502.93999999109656,490.8300000098534,758.8350000004284,1237.6500000101514,614.2149999940302,624.5100000088569,479.8299999963492,234.51000000932254,205.93000001087785,161.13000000757165],"keys_pressed":["rightarrow","leftarrow","leftarrow","leftarrow","rightarrow","leftarrow","leftarrow","leftarrow","leftarrow","leftarrow"],"horizon":10,"forced_choices":["rightarrow","leftarrow","leftarrow","leftarrow"],"right_color":"lightblue","left_color":"orange","left_mu":40,"right_mu":28,"left_numbers":[50,43,38,49,33,27,35,39,26,43],"right_numbers":[47,18,16,29,17,29,29,25,37,23],"points_earned":364,"phase":"task","trial_type":"horizons-task","trial_index":88,"time_elapsed":1199650,"internal_node_id":"0.0-84.0","task_version":"0.2"},{"response_times":[507.685000004014,400.7799999965355,370.95000001136214,390.5850000011269,1205.9999999911524,576.4199999975972,710.7700000051409,727.5599999993574,799.565000008326,546.6350000060629],"keys_pressed":["leftarrow","rightarrow","leftarrow","rightarrow","leftarrow","rightarrow","rightarrow","leftarrow","leftarrow","leftarrow"],"horizon":10,"forced_choices":["leftarrow","rightarrow","leftarrow","rightarrow"],"right_color":"orange","left_color":"lightblue","left_mu":60,"right_mu":64,"left_numbers":[63,58,64,48,46,57,60,65,47,61],"right_numbers":[68,66,61,59,61,57,57,75,77,60],"points_earned":585,"phase":"task","trial_type":"horizons-task","trial_index":89,"time_elapsed":1207390,"internal_node_id":"0.0-85.0","task_version":"0.2"},{"response_times":[641.1999999980908,592.1549999909475,594.7799999993294,359.8400000045076,371.05000000144355,999.8950000007171,339.2049999968149,654.2649999901187,557.5300000056159,373.64000000525266],"keys_pressed":["rightarrow","rightarrow","leftarrow","rightarrow","leftarrow","rightarrow","leftarrow","rightarrow","rightarrow","rightarrow"],"horizon":10,"forced_choices":["rightarrow","rightarrow","leftarrow","rightarrow"],"right_color":"orange","left_color":"lightblue","left_mu":60,"right_mu":90,"left_numbers":[59,58,43,77,71,71,63,61,54,61],"right_numbers":[90,87,92,87,83,117,87,94,91,90],"points_earned":833,"phase":"task","trial_type":"horizons-task","trial_index":90,"time_elapsed":1214376,"internal_node_id":"0.0-86.0","task_version":"0.2"},{"response_times":[771.6899999943562,497.54499999107793,479.380000004312,1002.3800000054762,469.1350000067614],"keys_pressed":["leftarrow","rightarrow","leftarrow","leftarrow","rightarrow"],"horizon":5,"forced_choices":["leftarrow","rightarrow","leftarrow","leftarrow"],"right_color":"orange","left_color":"lightblue","left_mu":40,"right_mu":70,"left_numbers":[43,48,35,36,38],"right_numbers":[69,79,66,73,78],"points_earned":271,"phase":"task","trial_type":"horizons-task","trial_index":91,"time_elapsed":1219100,"internal_node_id":"0.0-87.0","task_version":"0.2"},{"rt":41107.23000000883,"responses":{"age":"24","gender-categorical":"Male","gender-free-response":"","ethnicity":"Not Hispanic or Latino","race":["White"],"language":"Yes","fluency":"Very well"},"survey":"demographics","trial_type":"survey-demo","trial_index":92,"time_elapsed":1260209,"internal_node_id":"0.0-88.0","task_version":"0.2"},{"rt":68725.1149999937,"responses":{"difficulty":"5","fun":"5","clarity":"5","strategy":"trying to average out what cells give the most points and the frequency of sustenance that is how likely a cell gave a score close to its average ","feedback":""},"survey":"debrief","trial_type":"survey-debrief","trial_index":93,"time_elapsed":1328936,"internal_node_id":"0.0-89.0","task_version":"0.2","interactions":"[{\"event\":\"blur\",\"trial\":0,\"time\":0},{\"event\":\"focus\",\"trial\":0,\"time\":2509},{\"event\":\"blur\",\"trial\":3,\"time\":229456},{\"event\":\"focus\",\"trial\":3,\"time\":231200},{\"event\":\"blur\",\"trial\":4,\"time\":356933},{\"event\":\"focus\",\"trial\":4,\"time\":363006},{\"event\":\"blur\",\"trial\":4,\"time\":365584},{\"event\":\"focus\",\"trial\":4,\"time\":434768},{\"event\":\"blur\",\"trial\":36,\"time\":790228},{\"event\":\"focus\",\"trial\":36,\"time\":793197},{\"event\":\"blur\",\"trial\":92,\"time\":1224130},{\"event\":\"focus\",\"trial\":92,\"time\":1224854}]"}]