[{"view_history":"[{\"page_index\":0,\"viewing_time\":7545.729999998002}]","rt":7547.405000004801,"trial_type":"instructions","trial_index":0,"time_elapsed":7564,"internal_node_id":"0.0-0.0","task_version":"0.2"},{"item_order":[0,8,2,5,10,1,12,9,13,6,15,16,11,7,3,4,14],"responses":{"Q01":"1","Q09":"1","Q03":"3","Q06":"1","Q11":"1","Q02":"1","Q13":"1","Q10":"3","Q14":"1","Q07":"1","Q16":"1","Q17":"1","Q12":"2","Q08":"1","Q04":"1","Q05":"1","Q15":"0"},"radio_events":[10024.044999998296,21545.899999997346,22281.38499999477,23065.214999995078,29657.049999994342,36392.81999999366,37224.95499999786,37712.7199999959,42714.435000001686,44919.444999992265,45573.58999999997,46462.899999998626,47562.08499999775,53037.44499999448,58195.389999993495,62267.37499999581,67570.13500000176,68397.49999999185,80633.98499999312,81723.61499999533],"key_events":[],"mouse_events":[0.295000005280599,10024.044999998296,21545.899999997346,22281.38499999477,23065.214999995078,29657.049999994342,36392.81999999366,37224.95499999786,37712.7199999959,42714.435000001686,44919.444999992265,45573.58999999997,46462.899999998626,47562.08499999775,53037.44499999448,58195.389999993495,62267.37499999581,67570.13500000176,68397.49999999185,80633.98499999312,81723.61499999533,86528.93499999482],"rt":86534.53999999329,"survey":"pswq","trial_type":"survey-template","trial_index":1,"time_elapsed":94110,"internal_node_id":"0.0-1.0","task_version":"0.2"},{"item_order":[4,9,10,11,7,0,5,15,6,14,8,13,3,2,12,1],"responses":{"Q05":"3","Q10":"4","Q11":"4","Q12":"4","Q08":"4","Q01":"3","Q06":"3","Q16":"3","Q07":"4","Q15":"4","Q09":"3","Q14":"3","Q04":"3","Q03":"4","Q13":"4","Q02":"4"},"radio_events":[10220.975000003818,12807.964999999967,21980.389999996987,29825.339999995776,38715.41999999317,47477.07999999693,48194.98499999463,56121.81499999133,56601.45499999635,63932.11999999767,72072.01499999792,78212.78499999607,95549.17499999283,96700.06000000285,106229.720000003,106735.32500000147,107731.32500000065,114064.50999999652],"key_events":[],"mouse_events":[10220.975000003818,12807.964999999967,21980.389999996987,29825.339999995776,38715.41999999317,47477.07999999693,48194.98499999463,56121.81499999133,56601.45499999635,63932.11999999767,72072.01499999792,78212.78499999607,95549.17499999283,96700.06000000285,97322.6100000029,106229.720000003,106505.2549999964,106735.32500000147,107731.32500000065,108917.52499999711,114064.50999999652,121512.14999999502],"rt":121516.5699999925,"survey":"nfc","trial_type":"survey-template","trial_index":2,"time_elapsed":215636,"internal_node_id":"0.0-2.0","task_version":"0.2"},{"item_order":[0,5,2,6,7,8,11,3,12,1,10,4,9],"responses":{"Q01":"2","Q06":"2","Q03":"2","Q07":"2","Q08":"2","Q09":"2","Q12":"2","Q04":"3","Q13":"0","Q02":"3","Q11":"3","Q05":"3","Q10":"3"},"radio_events":[5428.460000010091,6504.205000004731,6843.495000008261,26361.035000008997,27042.27499999979,27606.735000008484,28090.92000000237,36843.44000001147,37175.15999999887,37992.87000000186,38347.4300000089,39006.6599999991,39433.0750000081,49983.29000000376],"key_events":[],"mouse_events":[5428.460000010091,6504.205000004731,6843.495000008261,26361.035000008997,27042.27499999979,27606.735000008484,28090.92000000237,36843.44000001147,37175.15999999887,37992.87000000186,38347.4300000089,39006.6599999991,39433.0750000081,49983.29000000376,60006.810000006226],"rt":60009.64499999827,"survey":"ius12","trial_type":"survey-template","trial_index":3,"time_elapsed":275655,"internal_node_id":"0.0-3.0","task_version":"0.2"},{"view_history":"[{\"page_index\":0,\"viewing_time\":5769.249999997555},{\"page_index\":1,\"viewing_time\":6561.780000003637},{\"page_index\":2,\"viewing_time\":18935.644999990473},{\"page_index\":3,\"viewing_time\":40460.45500000764},{\"page_index\":4,\"viewing_time\":7896.559999993769},{\"page_index\":5,\"viewing_time\":5871.534999998403},{\"page_index\":6,\"viewing_time\":8198.010000007343},{\"page_index\":7,\"viewing_time\":10134.170000004815},{\"page_index\":8,\"viewing_time\":23175.23499998788},{\"page_index\":9,\"viewing_time\":12147.315000009257}]","rt":139151.20999999635,"trial_type":"instructions","trial_index":4,"time_elapsed":414808,"internal_node_id":"0.0-4.0-0.0","task_version":"0.2"},{"response_times":[266376.3949999993,5061.489999992773,2075.519999998505,3735.3599999914877,2697.3199999920325],"keys_pressed":["rightarrow","leftarrow","rightarrow","rightarrow","rightarrow"],"horizon":5,"forced_choices":["rightarrow","leftarrow","rightarrow","rightarrow"],"right_color":"lightblue","left_color":"orange","left_mu":40,"right_mu":20,"left_numbers":[32,36,40,32,41],"right_numbers":[19,16,10,24,21],"points_earned":110,"phase":"practice","trial_type":"horizons-task","trial_index":5,"time_elapsed":696288,"internal_node_id":"0.0-4.0-1.0","task_version":"0.2"},{"response_times":[1766.140000006999,1250.5849999870406,1452.5600000051782,1116.8550000002142,2170.2749999967637,1275.3000000084285,1269.2149999929825,1528.6500000074739,1698.2049999933224,3216.6100000031292],"keys_pressed":["leftarrow","leftarrow","rightarrow","rightarrow","rightarrow","rightarrow","rightarrow","leftarrow","rightarrow","rightarrow"],"horizon":10,"forced_choices":["leftarrow","leftarrow","rightarrow","rightarrow"],"right_color":"orange","left_color":"lightblue","left_mu":60,"right_mu":70,"left_numbers":[45,78,38,59,68,45,69,57,52,70],"right_numbers":[58,58,74,71,69,73,68,82,62,62],"points_earned":659,"phase":"practice","trial_type":"horizons-task","trial_index":6,"time_elapsed":714564,"internal_node_id":"0.0-4.0-2.0","task_version":"0.2"},{"view_history":"[{\"page_index\":0,\"viewing_time\":6698.545000006561},{\"page_index\":1,\"viewing_time\":3406.7550000036135},{\"page_index\":2,\"viewing_time\":8428.659999990487},{\"page_index\":3,\"viewing_time\":7740.4850000020815}]","rt":26274.760000000242,"trial_type":"instructions","trial_index":7,"time_elapsed":740840,"internal_node_id":"0.0-4.0-3.0","task_version":"0.2"},{"responses":["true","false","true"],"num_errors":0,"rt":22229.535000005853,"trial_type":"horizons-comprehension","trial_index":8,"time_elapsed":763074,"internal_node_id":"0.0-4.0-4.0","task_version":"0.2"},{"trial_type":"call-function","trial_index":9,"time_elapsed":763080,"internal_node_id":"0.0-5.0","task_version":"0.2"},{"view_history":"[{\"page_index\":0,\"viewing_time\":7790.264999988722},{\"page_index\":1,\"viewing_time\":5449.050000010175}]","rt":13240.024999991874,"trial_type":"instructions","trial_index":10,"time_elapsed":776331,"internal_node_id":"0.0-6.0","task_version":"0.2"},{"response_times":[2545.490000004065,1257.0700000069337,1058.839999997872,1188.029999990249,1056.2500000087311,1087.440000002971,1053.5750000126427,971.6699999989942,1074.3450000009034,1158.8699999992969],"keys_pressed":["leftarrow","rightarrow","rightarrow","leftarrow","rightarrow","rightarrow","rightarrow","leftarrow","rightarrow","rightarrow"],"horizon":10,"forced_choices":["leftarrow","rightarrow","rightarrow","leftarrow"],"right_color":"lightblue","left_color":"orange","left_mu":60,"right_mu":72,"left_numbers":[74,59,80,68,67,45,62,50,49,52],"right_numbers":[60,80,79,66,71,55,56,82,70,66],"points_earned":669,"phase":"task","trial_type":"horizons-task","trial_index":11,"time_elapsed":790312,"internal_node_id":"0.0-7.0","task_version":"0.2"},{"response_times":[1208.9600000035716,1084.4800000049872,751.3100000069244,847.6450000016484,1313.2650000043213],"keys_pressed":["leftarrow","rightarrow","rightarrow","rightarrow","rightarrow"],"horizon":5,"forced_choices":["leftarrow","rightarrow","rightarrow","rightarrow"],"right_color":"orange","left_color":"lightblue","left_mu":60,"right_mu":80,"left_numbers":[54,74,50,76,52],"right_numbers":[72,73,79,70,86],"points_earned":362,"phase":"task","trial_type":"horizons-task","trial_index":12,"time_elapsed":797033,"internal_node_id":"0.0-8.0","task_version":"0.2"},{"response_times":[931.7550000123447,759.0649999910966,854.6399999904679,707.4250000005122,1134.714999992866],"keys_pressed":["rightarrow","rightarrow","leftarrow","rightarrow","rightarrow"],"horizon":5,"forced_choices":["rightarrow","rightarrow","leftarrow","rightarrow"],"right_color":"lightblue","left_color":"orange","left_mu":40,"right_mu":20,"left_numbers":[36,44,35,35,40],"right_numbers":[1,25,30,21,24],"points_earned":106,"phase":"task","trial_type":"horizons-task","trial_index":13,"time_elapsed":802942,"internal_node_id":"0.0-9.0","task_version":"0.2"},{"response_times":[1217.175000012503,1269.9500000016997,1428.5749999980908,1137.235000001965,1904.435000004014,985.0699999951757,2226.20000000461,1337.8349999984493,1205.6549999979325,985.2249999967171],"keys_pressed":["rightarrow","leftarrow","leftarrow","leftarrow","rightarrow","rightarrow","rightarrow","rightarrow","rightarrow","rightarrow"],"horizon":10,"forced_choices":["rightarrow","leftarrow","leftarrow","leftarrow"],"right_color":"lightblue","left_color":"orange","left_mu":40,"right_mu":44,"left_numbers":[40,54,32,28,30,34,31,53,41,35],"right_numbers":[30,45,53,45,35,49,38,58,45,34],"points_earned":403,"phase":"task","trial_type":"horizons-task","trial_index":14,"time_elapsed":818158,"internal_node_id":"0.0-10.0","task_version":"0.2"},{"response_times":[2645.0049999984913,848.6599999887403,1245.0950000056764,1109.8950000014156,1193.025000000489],"keys_pressed":["rightarrow","rightarrow","leftarrow","leftarrow","rightarrow"],"horizon":5,"forced_choices":["rightarrow","rightarrow","leftarrow","leftarrow"],"right_color":"orange","left_color":"lightblue","left_mu":60,"right_mu":48,"left_numbers":[55,44,46,65,53],"right_numbers":[49,42,54,38,53],"points_earned":255,"phase":"task","trial_type":"horizons-task","trial_index":15,"time_elapsed":826718,"internal_node_id":"0.0-11.0","task_version":"0.2"},{"response_times":[1572.0149999979185,876.0399999882793,963.4950000036042,1075.4299999971408,1818.8450000016019],"keys_pressed":["rightarrow","leftarrow","leftarrow","rightarrow","rightarrow"],"horizon":5,"forced_choices":["rightarrow","leftarrow","leftarrow","rightarrow"],"right_color":"lightblue","left_color":"orange","left_mu":40,"right_mu":60,"left_numbers":[43,37,34,45,32],"right_numbers":[51,52,62,44,70],"points_earned":236,"phase":"task","trial_type":"horizons-task","trial_index":16,"time_elapsed":834546,"internal_node_id":"0.0-12.0","task_version":"0.2"},{"response_times":[3201.339999999618,1151.8299999879673,1029.290000005858,1035.6099999917205,1293.004999999539,1349.9549999978626,1168.4200000017881,2023.1149999890476,1817.7100000029895,1003.0950000073062],"keys_pressed":["leftarrow","rightarrow","leftarrow","rightarrow","rightarrow","leftarrow","rightarrow","rightarrow","rightarrow","rightarrow"],"horizon":10,"forced_choices":["leftarrow","rightarrow","leftarrow","rightarrow"],"right_color":"orange","left_color":"lightblue","left_mu":60,"right_mu":68,"left_numbers":[54,55,72,45,46,54,64,61,52,73],"right_numbers":[63,66,74,61,79,82,74,48,67,54],"points_earned":629,"phase":"task","trial_type":"horizons-task","trial_index":17,"time_elapsed":851134,"internal_node_id":"0.0-13.0","task_version":"0.2"},{"response_times":[4285.789999994449,2596.254999996745,1543.5950000101002,966.629999995348,1603.529999993043,1517.8149999992456,978.2850000046892,1067.8699999989476,1185.1099999912549,1164.6699999982957],"keys_pressed":["leftarrow","rightarrow","rightarrow","leftarrow","rightarrow","rightarrow","rightarrow","rightarrow","leftarrow","rightarrow"],"horizon":10,"forced_choices":["leftarrow","rightarrow","rightarrow","leftarrow"],"right_color":"lightblue","left_color":"orange","left_mu":60,"right_mu":90,"left_numbers":[74,51,55,56,50,59,54,60,69,57],"right_numbers":[95,90,99,96,83,82,93,97,94,97],"points_earned":840,"phase":"task","trial_type":"horizons-task","trial_index":18,"time_elapsed":869570,"internal_node_id":"0.0-14.0","task_version":"0.2"},{"response_times":[1707.1799999976065,5829.454999999143,3225.449999998091,1710.6349999958184,1124.6350000001257],"keys_pressed":["rightarrow","leftarrow","rightarrow","rightarrow","rightarrow"],"horizon":5,"forced_choices":["rightarrow","leftarrow","rightarrow","rightarrow"],"right_color":"lightblue","left_color":"orange","left_mu":60,"right_mu":30,"left_numbers":[56,50,74,49,49],"right_numbers":[46,45,27,28,28],"points_earned":179,"phase":"task","trial_type":"horizons-task","trial_index":19,"time_elapsed":884686,"internal_node_id":"0.0-15.0","task_version":"0.2"},{"response_times":[1206.335000009858,920.5650000076275,1489.385000008042,1134.6250000060536,885.5050000129268],"keys_pressed":["leftarrow","rightarrow","rightarrow","leftarrow","rightarrow"],"horizon":5,"forced_choices":["leftarrow","rightarrow","rightarrow","leftarrow"],"right_color":"lightblue","left_color":"orange","left_mu":60,"right_mu":72,"left_numbers":[57,67,68,62,59],"right_numbers":[64,58,71,74,65],"points_earned":313,"phase":"task","trial_type":"horizons-task","trial_index":20,"time_elapsed":891835,"internal_node_id":"0.0-16.0","task_version":"0.2"},{"response_times":[1052.0850000029895,769.4250000058673,1126.4800000062678,1228.6500000045635,1239.6849999931874],"keys_pressed":["rightarrow","leftarrow","rightarrow","leftarrow","rightarrow"],"horizon":5,"forced_choices":["rightarrow","leftarrow","rightarrow","leftarrow"],"right_color":"orange","left_color":"lightblue","left_mu":40,"right_mu":36,"left_numbers":[44,30,42,26,58],"right_numbers":[23,55,31,37,41],"points_earned":151,"phase":"task","trial_type":"horizons-task","trial_index":21,"time_elapsed":898769,"internal_node_id":"0.0-17.0","task_version":"0.2"},{"response_times":[1043.7150000070687,1455.6000000011409,1746.0900000005495,882.2599999984959,1233.0450000008568],"keys_pressed":["leftarrow","rightarrow","rightarrow","leftarrow","rightarrow"],"horizon":5,"forced_choices":["leftarrow","rightarrow","rightarrow","leftarrow"],"right_color":"lightblue","left_color":"orange","left_mu":60,"right_mu":90,"left_numbers":[59,47,69,60,59],"right_numbers":[106,95,87,88,92],"points_earned":393,"phase":"task","trial_type":"horizons-task","trial_index":22,"time_elapsed":906646,"internal_node_id":"0.0-18.0","task_version":"0.2"},{"response_times":[1362.2100000065984,1104.3999999965308,813.4549999958836,1046.3850000087405,1316.0749999951804,981.7750000074739,966.0349999903701,662.4949999968521,1231.9549999956507,584.6649999875808],"keys_pressed":["rightarrow","rightarrow","leftarrow","leftarrow","rightarrow","leftarrow","rightarrow","leftarrow","rightarrow","leftarrow"],"horizon":10,"forced_choices":["rightarrow","rightarrow","leftarrow","leftarrow"],"right_color":"lightblue","left_color":"orange","left_mu":40,"right_mu":20,"left_numbers":[49,47,37,34,41,32,34,44,35,43],"right_numbers":[10,22,23,31,22,17,26,14,19,43],"points_earned":289,"phase":"task","trial_type":"horizons-task","trial_index":23,"time_elapsed":918239,"internal_node_id":"0.0-19.0","task_version":"0.2"},{"response_times":[3831.879999997909,1097.9300000035437,1009.3599999963772,799.6249999996508,714.8049999959767],"keys_pressed":["leftarrow","leftarrow","leftarrow","rightarrow","leftarrow"],"horizon":5,"forced_choices":["leftarrow","leftarrow","leftarrow","rightarrow"],"right_color":"lightblue","left_color":"orange","left_mu":40,"right_mu":60,"left_numbers":[45,46,44,43,27],"right_numbers":[55,62,56,62,67],"points_earned":224,"phase":"task","trial_type":"horizons-task","trial_index":24,"time_elapsed":927208,"internal_node_id":"0.0-20.0","task_version":"0.2"},{"response_times":[1116.9450000015786,765.4200000106357,799.8000000079628,727.1449999971082,1271.6750000108732],"keys_pressed":["leftarrow","leftarrow","leftarrow","rightarrow","leftarrow"],"horizon":5,"forced_choices":["leftarrow","leftarrow","leftarrow","rightarrow"],"right_color":"lightblue","left_color":"orange","left_mu":60,"right_mu":72,"left_numbers":[60,57,46,62,57],"right_numbers":[72,65,69,73,75],"points_earned":293,"phase":"task","trial_type":"horizons-task","trial_index":25,"time_elapsed":933409,"internal_node_id":"0.0-21.0","task_version":"0.2"},{"response_times":[1287.1650000015507,949.4649999978719,1281.7899999936344,1113.3350000018254,1076.6049999947427,1361.0699999990175,964.9800000042887,938.9850000006845,1691.0549999884097,852.7350000076694],"keys_pressed":["rightarrow","leftarrow","rightarrow","rightarrow","leftarrow","leftarrow","rightarrow","leftarrow","leftarrow","rightarrow"],"horizon":10,"forced_choices":["rightarrow","leftarrow","rightarrow","rightarrow"],"right_color":"lightblue","left_color":"orange","left_mu":40,"right_mu":52,"left_numbers":[54,51,28,47,41,46,44,53,36,24],"right_numbers":[60,62,46,42,42,49,40,50,42,49],"points_earned":464,"phase":"task","trial_type":"horizons-task","trial_index":26,"time_elapsed":946448,"internal_node_id":"0.0-22.0","task_version":"0.2"},{"response_times":[1369.3500000081258,1273.0849999934435,864.2300000065006,1073.2199999911245,1044.43499998888],"keys_pressed":["leftarrow","leftarrow","rightarrow","rightarrow","leftarrow"],"horizon":5,"forced_choices":["leftarrow","leftarrow","rightarrow","rightarrow"],"right_color":"orange","left_color":"lightblue","left_mu":60,"right_mu":40,"left_numbers":[70,43,59,56,62],"right_numbers":[29,42,39,42,34],"points_earned":256,"phase":"task","trial_type":"horizons-task","trial_index":27,"time_elapsed":953597,"internal_node_id":"0.0-23.0","task_version":"0.2"},{"response_times":[931.6649999964284,1284.2400000081398,966.6799999977229,1257.8749999956926,996.6050000075484],"keys_pressed":["rightarrow","rightarrow","leftarrow","leftarrow","rightarrow"],"horizon":5,"forced_choices":["rightarrow","rightarrow","leftarrow","leftarrow"],"right_color":"lightblue","left_color":"orange","left_mu":40,"right_mu":20,"left_numbers":[34,45,43,47,42],"right_numbers":[22,32,11,21,14],"points_earned":158,"phase":"task","trial_type":"horizons-task","trial_index":28,"time_elapsed":960556,"internal_node_id":"0.0-24.0","task_version":"0.2"},{"response_times":[1329.0800000104355,990.1600000011967,1245.7999999896856,785.7600000133971,854.9199999979464],"keys_pressed":["leftarrow","leftarrow","rightarrow","rightarrow","leftarrow"],"horizon":5,"forced_choices":["leftarrow","leftarrow","rightarrow","rightarrow"],"right_color":"orange","left_color":"lightblue","left_mu":40,"right_mu":70,"left_numbers":[37,33,51,43,42],"right_numbers":[69,73,83,60,59],"points_earned":255,"phase":"task","trial_type":"horizons-task","trial_index":29,"time_elapsed":967279,"internal_node_id":"0.0-25.0","task_version":"0.2"},{"response_times":[1160.2399999974295,1313.815000001341,1117.9750000010245,957.3499999969499,746.7199999955483],"keys_pressed":["rightarrow","leftarrow","leftarrow","rightarrow","leftarrow"],"horizon":5,"forced_choices":["rightarrow","leftarrow","leftarrow","rightarrow"],"right_color":"lightblue","left_color":"orange","left_mu":40,"right_mu":10,"left_numbers":[47,35,35,37,59],"right_numbers":[12,22,11,0,27],"points_earned":141,"phase":"task","trial_type":"horizons-task","trial_index":30,"time_elapsed":974091,"internal_node_id":"0.0-26.0","task_version":"0.2"},{"response_times":[948.1699999887496,956.62500000617,725.2450000087265,1215.779999998631,966.6749999887543],"keys_pressed":["leftarrow","rightarrow","rightarrow","rightarrow","leftarrow"],"horizon":5,"forced_choices":["leftarrow","rightarrow","rightarrow","rightarrow"],"right_color":"orange","left_color":"lightblue","left_mu":60,"right_mu":56,"left_numbers":[55,58,72,61,47],"right_numbers":[48,57,54,62,48],"points_earned":275,"phase":"task","trial_type":"horizons-task","trial_index":31,"time_elapsed":980418,"internal_node_id":"0.0-27.0","task_version":"0.2"},{"response_times":[784.7700000129407,1281.6800000000512,851.859999995213,1265.6299999944167,822.1449999982724],"keys_pressed":["rightarrow","leftarrow","leftarrow","leftarrow","rightarrow"],"horizon":5,"forced_choices":["rightarrow","leftarrow","leftarrow","leftarrow"],"right_color":"lightblue","left_color":"orange","left_mu":60,"right_mu":64,"left_numbers":[53,69,56,61,44],"right_numbers":[53,63,66,51,55],"points_earned":294,"phase":"task","trial_type":"horizons-task","trial_index":32,"time_elapsed":986940,"internal_node_id":"0.0-28.0","task_version":"0.2"},{"response_times":[898.6099999892758,888.8500000030035,809.095000004163,1002.3999999975786,1427.2899999923538],"keys_pressed":["rightarrow","leftarrow","rightarrow","rightarrow","leftarrow"],"horizon":5,"forced_choices":["rightarrow","leftarrow","rightarrow","rightarrow"],"right_color":"lightblue","left_color":"orange","left_mu":40,"right_mu":52,"left_numbers":[29,62,19,47,31],"right_numbers":[54,47,43,60,55],"points_earned":250,"phase":"task","trial_type":"horizons-task","trial_index":33,"time_elapsed":993481,"internal_node_id":"0.0-29.0","task_version":"0.2"},{"response_times":[1053.699999989476,16726.365000009537,1824.1849999903934,956.8600000056904,1607.9000000027008,1284.14000000339,957.7200000057928,982.6999999932013,1259.650000007241,1067.849999992177],"keys_pressed":["leftarrow","rightarrow","leftarrow","rightarrow","rightarrow","rightarrow","rightarrow","rightarrow","rightarrow","leftarrow"],"horizon":10,"forced_choices":["leftarrow","rightarrow","leftarrow","rightarrow"],"right_color":"lightblue","left_color":"orange","left_mu":60,"right_mu":64,"left_numbers":[60,65,58,70,50,64,70,68,46,57],"right_numbers":[65,68,52,70,69,70,62,54,74,70],"points_earned":642,"phase":"task","trial_type":"horizons-task","trial_index":34,"time_elapsed":1022717,"internal_node_id":"0.0-30.0","task_version":"0.2"},{"response_times":[1261.6399999969872,1916.7500000039581,1595.8749999990687,952.2450000076788,957.3799999925541],"keys_pressed":["leftarrow","rightarrow","rightarrow","leftarrow","rightarrow"],"horizon":5,"forced_choices":["leftarrow","rightarrow","rightarrow","leftarrow"],"right_color":"lightblue","left_color":"orange","left_mu":40,"right_mu":52,"left_numbers":[39,34,48,38,38],"right_numbers":[57,42,61,59,56],"points_earned":236,"phase":"task","trial_type":"horizons-task","trial_index":35,"time_elapsed":1030921,"internal_node_id":"0.0-31.0","task_version":"0.2"},{"response_times":[978.8950000074692,1041.2199999991572,951.7350000096485,802.0700000051875,719.2599999980303,1033.609999998589,906.9199999939883,1016.1300000036135,876.1949999898206,1671.7250000074273],"keys_pressed":["leftarrow","leftarrow","rightarrow","rightarrow","leftarrow","rightarrow","rightarrow","leftarrow","rightarrow","rightarrow"],"horizon":10,"forced_choices":["leftarrow","leftarrow","rightarrow","rightarrow"],"right_color":"orange","left_color":"lightblue","left_mu":60,"right_mu":40,"left_numbers":[50,55,68,60,47,53,54,65,46,59],"right_numbers":[43,32,36,39,45,47,57,29,41,56],"points_earned":493,"phase":"task","trial_type":"horizons-task","trial_index":36,"time_elapsed":1042434,"internal_node_id":"0.0-32.0","task_version":"0.2"},{"response_times":[1057.2449999890523,1595.9849999926519,970.6900000019232,2882.250000009779,1266.2600000039674,971.520000006305,1266.6400000017602,885.6400000078138,723.834999996936,1278.0600000116974],"keys_pressed":["rightarrow","leftarrow","rightarrow","leftarrow","leftarrow","rightarrow","rightarrow","rightarrow","rightarrow","leftarrow"],"horizon":10,"forced_choices":["rightarrow","leftarrow","rightarrow","leftarrow"],"right_color":"orange","left_color":"lightblue","left_mu":40,"right_mu":36,"left_numbers":[41,40,24,40,41,29,44,35,46,31],"right_numbers":[39,47,33,29,52,32,43,29,28,38],"points_earned":356,"phase":"task","trial_type":"horizons-task","trial_index":37,"time_elapsed":1056853,"internal_node_id":"0.0-33.0","task_version":"0.2"},{"response_times":[1130.8349999892525,1956.2900000019,1428.419999996433,994.364999991376,1287.5099999946542,1317.2099999936763,1032.4849999889266,1165.6399999917485,1283.9299999906216,965.4049999956042],"keys_pressed":["leftarrow","rightarrow","leftarrow","rightarrow","leftarrow","rightarrow","rightarrow","leftarrow","leftarrow","leftarrow"],"horizon":10,"forced_choices":["leftarrow","rightarrow","leftarrow","rightarrow"],"right_color":"orange","left_color":"lightblue","left_mu":60,"right_mu":80,"left_numbers":[49,76,50,49,62,52,58,55,52,41],"right_numbers":[77,74,78,57,87,63,81,73,89,79],"points_earned":584,"phase":"task","trial_type":"horizons-task","trial_index":38,"time_elapsed":1070934,"internal_node_id":"0.0-34.0","task_version":"0.2"},{"response_times":[4479.354999988573,818.5499999965541,1040.5649999883026,913.5349999996834,1586.574999993667,851.7349999893922,793.0099999941885,767.7249999977648,741.3200000009965,773.3049999950454],"keys_pressed":["leftarrow","rightarrow","leftarrow","rightarrow","leftarrow","rightarrow","rightarrow","rightarrow","rightarrow","leftarrow"],"horizon":10,"forced_choices":["leftarrow","rightarrow","leftarrow","rightarrow"],"right_color":"lightblue","left_color":"orange","left_mu":60,"right_mu":30,"left_numbers":[64,71,50,54,59,74,44,55,47,70],"right_numbers":[24,23,42,36,27,32,30,26,35,35],"points_earned":425,"phase":"task","trial_type":"horizons-task","trial_index":39,"time_elapsed":1085214,"internal_node_id":"0.0-35.0","task_version":"0.2"},{"response_times":[957.065000009723,1140.1550000009593,818.2349999987055,2426.0050000010524,2092.9650000033434],"keys_pressed":["leftarrow","rightarrow","leftarrow","rightarrow","rightarrow"],"horizon":5,"forced_choices":["leftarrow","rightarrow","leftarrow","rightarrow"],"right_color":"lightblue","left_color":"orange","left_mu":60,"right_mu":64,"left_numbers":[65,61,42,58,73],"right_numbers":[84,83,70,61,67],"points_earned":318,"phase":"task","trial_type":"horizons-task","trial_index":40,"time_elapsed":1094160,"internal_node_id":"0.0-36.0","task_version":"0.2"},{"response_times":[957.5899999910034,3739.710000009043,1695.145000005141,890.0649999994785,1337.299999999348,892.3949999881443,777.2699999911711,839.4250000128523,721.8400000128895,830.4700000009034],"keys_pressed":["rightarrow","leftarrow","leftarrow","rightarrow","rightarrow","rightarrow","rightarrow","rightarrow","rightarrow","rightarrow"],"horizon":10,"forced_choices":["rightarrow","leftarrow","leftarrow","rightarrow"],"right_color":"orange","left_color":"lightblue","left_mu":60,"right_mu":56,"left_numbers":[59,70,62,59,69,65,54,56,63,49],"right_numbers":[41,49,48,68,50,55,55,55,47,67],"points_earned":570,"phase":"task","trial_type":"horizons-task","trial_index":41,"time_elapsed":1108363,"internal_node_id":"0.0-37.0","task_version":"0.2"},{"response_times":[1138.4399999950547,845.2150000084657,721.3999999950174,869.9550000019372,688.5250000050291,776.1699999971315,701.2749999994412,668.6849999970291,696.2000000057742,786.9649999921676],"keys_pressed":["leftarrow","rightarrow","rightarrow","leftarrow","rightarrow","rightarrow","rightarrow","rightarrow","rightarrow","leftarrow"],"horizon":10,"forced_choices":["leftarrow","rightarrow","rightarrow","leftarrow"],"right_color":"lightblue","left_color":"orange","left_mu":40,"right_mu":52,"left_numbers":[38,32,22,41,55,29,38,40,34,36],"right_numbers":[43,59,50,67,43,57,46,43,45,51],"points_earned":458,"phase":"task","trial_type":"horizons-task","trial_index":42,"time_elapsed":1117774,"internal_node_id":"0.0-38.0","task_version":"0.2"},{"response_times":[895.4149999918882,881.6200000001118,857.0849999960046,838.9400000015739,735.2300000058021],"keys_pressed":["rightarrow","leftarrow","leftarrow","leftarrow","rightarrow"],"horizon":5,"forced_choices":["rightarrow","leftarrow","leftarrow","leftarrow"],"right_color":"orange","left_color":"lightblue","left_mu":60,"right_mu":48,"left_numbers":[49,69,64,60,56],"right_numbers":[47,41,58,35,33],"points_earned":273,"phase":"task","trial_type":"horizons-task","trial_index":43,"time_elapsed":1123502,"internal_node_id":"0.0-39.0","task_version":"0.2"},{"response_times":[865.2849999924656,883.7250000068452,934.699999997858,851.6450000025798,1097.990000009304],"keys_pressed":["leftarrow","leftarrow","rightarrow","rightarrow","rightarrow"],"horizon":5,"forced_choices":["leftarrow","leftarrow","rightarrow","rightarrow"],"right_color":"lightblue","left_color":"orange","left_mu":40,"right_mu":44,"left_numbers":[45,45,50,46,43],"right_numbers":[21,52,25,42,35],"points_earned":192,"phase":"task","trial_type":"horizons-task","trial_index":44,"time_elapsed":1129653,"internal_node_id":"0.0-40.0","task_version":"0.2"},{"response_times":[855.1149999985937,1120.1649999856018,1151.8300000026356,1216.0499999881722,724.4150000042282,794.6500000108499,792.474999994738,1032.1050000058021,719.745000009425,785.2649999985006],"keys_pressed":["rightarrow","rightarrow","rightarrow","leftarrow","rightarrow","rightarrow","rightarrow","rightarrow","rightarrow","rightarrow"],"horizon":10,"forced_choices":["rightarrow","rightarrow","rightarrow","leftarrow"],"right_color":"orange","left_color":"lightblue","left_mu":60,"right_mu":68,"left_numbers":[61,61,54,58,41,68,67,52,52,69],"right_numbers":[70,83,81,62,54,69,65,65,65,63],"points_earned":673,"phase":"task","trial_type":"horizons-task","trial_index":45,"time_elapsed":1140361,"internal_node_id":"0.0-41.0","task_version":"0.2"},{"response_times":[969.8199999984354,871.9300000085495,757.8450000002049,742.4150000005029,713.3299999986775,675.3500000047497,736.5200000060722,636.6399999968708,804.5699999930803,915.1100000017323],"keys_pressed":["leftarrow","leftarrow","rightarrow","rightarrow","leftarrow","rightarrow","rightarrow","rightarrow","rightarrow","leftarrow"],"horizon":10,"forced_choices":["leftarrow","leftarrow","rightarrow","rightarrow"],"right_color":"orange","left_color":"lightblue","left_mu":40,"right_mu":70,"left_numbers":[34,38,33,34,34,54,44,36,30,67],"right_numbers":[51,75,67,69,64,79,70,69,60,69],"points_earned":587,"phase":"task","trial_type":"horizons-task","trial_index":46,"time_elapsed":1149704,"internal_node_id":"0.0-42.0","task_version":"0.2"},{"response_times":[867.65499999444,735.820000001695,984.2650000064168,1020.6500000059605,986.0000000044238,879.4000000054948,722.5650000036694,875.0850000069477,836.6749999986496,968.6400000064168],"keys_pressed":["rightarrow","leftarrow","leftarrow","leftarrow","rightarrow","rightarrow","rightarrow","rightarrow","leftarrow","rightarrow"],"horizon":10,"forced_choices":["rightarrow","leftarrow","leftarrow","leftarrow"],"right_color":"lightblue","left_color":"orange","left_mu":60,"right_mu":64,"left_numbers":[65,60,68,69,63,55,65,61,55,61],"right_numbers":[75,81,75,65,63,52,60,89,55,56],"points_earned":647,"phase":"task","trial_type":"horizons-task","trial_index":47,"time_elapsed":1160094,"internal_node_id":"0.0-43.0","task_version":"0.2"},{"response_times":[744.2900000023656,736.3600000096485,717.294999995036,723.0399999972433,877.7349999872968,800.7900000084192,690.7099999953061,668.1499999975786,758.5700000054203,675.8200000040233],"keys_pressed":["rightarrow","rightarrow","leftarrow","rightarrow","leftarrow","rightarrow","rightarrow","leftarrow","rightarrow","leftarrow"],"horizon":10,"forced_choices":["rightarrow","rightarrow","leftarrow","rightarrow"],"right_color":"lightblue","left_color":"orange","left_mu":40,"right_mu":20,"left_numbers":[48,30,42,37,34,49,45,56,44,42],"right_numbers":[17,20,0,20,17,16,23,27,30,24],"points_earned":300,"phase":"task","trial_type":"horizons-task","trial_index":48,"time_elapsed":1169010,"internal_node_id":"0.0-44.0","task_version":"0.2"},{"response_times":[735.4099999940954,1183.860000004759,711.9950000050012,725.9699999992736,648.2550000073388],"keys_pressed":["rightarrow","leftarrow","leftarrow","rightarrow","leftarrow"],"horizon":5,"forced_choices":["rightarrow","leftarrow","leftarrow","rightarrow"],"right_color":"lightblue","left_color":"orange","left_mu":40,"right_mu":32,"left_numbers":[42,38,35,33,52],"right_numbers":[34,31,32,42,26],"points_earned":201,"phase":"task","trial_type":"horizons-task","trial_index":49,"time_elapsed":1174533,"internal_node_id":"0.0-45.0","task_version":"0.2"},{"response_times":[960.1200000033714,694.3649999883492,686.5749999997206,685.2700000018813,813.4049999935087,770.4400000073947,771.6399999917485,641.5450000059791,660.6500000054948,636.974999986589],"keys_pressed":["leftarrow","leftarrow","rightarrow","leftarrow","rightarrow","leftarrow","rightarrow","rightarrow","rightarrow","rightarrow"],"horizon":10,"forced_choices":["leftarrow","leftarrow","rightarrow","leftarrow"],"right_color":"orange","left_color":"lightblue","left_mu":40,"right_mu":70,"left_numbers":[22,38,39,45,51,35,41,24,35,47],"right_numbers":[70,68,80,78,63,65,74,63,77,73],"points_earned":570,"phase":"task","trial_type":"horizons-task","trial_index":50,"time_elapsed":1183376,"internal_node_id":"0.0-46.0","task_version":"0.2"},{"view_history":"[{\"page_index\":0,\"viewing_time\":4455.079999999842},{\"page_index\":1,\"viewing_time\":3333.6950000082143}]","rt":7789.375000007683,"trial_type":"instructions","trial_index":51,"time_elapsed":1191167,"internal_node_id":"0.0-47.0","task_version":"0.2"},{"response_times":[1531.0199999948964,821.8499999931082,693.2499999965075,794.444999992149,764.809999993071,719.8449999995064,700.7799999990966,685.1450000102632,682.5800000077579,641.2399999974295],"keys_pressed":["rightarrow","leftarrow","rightarrow","leftarrow","rightarrow","rightarrow","rightarrow","rightarrow","rightarrow","rightarrow"],"horizon":10,"forced_choices":["rightarrow","leftarrow","rightarrow","leftarrow"],"right_color":"orange","left_color":"lightblue","left_mu":40,"right_mu":28,"left_numbers":[51,47,20,33,54,45,34,35,32,40],"right_numbers":[34,26,36,12,28,28,25,22,38,29],"points_earned":320,"phase":"task","trial_type":"horizons-task","trial_index":52,"time_elapsed":1200724,"internal_node_id":"0.0-48.0","task_version":"0.2"},{"response_times":[1895.8800000108313,680.6299999880139,800.5300000077114,913.9799999974202,755.9349999937695,763.4550000075251,726.9300000043586,728.4050000016578,658.3700000045355,679.8149999957532],"keys_pressed":["leftarrow","leftarrow","rightarrow","leftarrow","rightarrow","rightarrow","rightarrow","rightarrow","rightarrow","rightarrow"],"horizon":10,"forced_choices":["leftarrow","leftarrow","rightarrow","leftarrow"],"right_color":"lightblue","left_color":"orange","left_mu":40,"right_mu":32,"left_numbers":[25,47,57,52,59,46,56,55,49,34],"right_numbers":[33,21,25,38,26,35,29,18,42,31],"points_earned":330,"phase":"task","trial_type":"horizons-task","trial_index":53,"time_elapsed":1210843,"internal_node_id":"0.0-49.0","task_version":"0.2"},{"response_times":[806.8849999981467,730.5250000064261,726.3349999992643,1152.0699999965727,848.5350000120234,900.6900000094902,979.0249999933876,689.5999999977648,710.3449999992736,877.2650000029244],"keys_pressed":["leftarrow","rightarrow","leftarrow","leftarrow","leftarrow","rightarrow","rightarrow","rightarrow","rightarrow","leftarrow"],"horizon":10,"forced_choices":["leftarrow","rightarrow","leftarrow","leftarrow"],"right_color":"orange","left_color":"lightblue","left_mu":40,"right_mu":28,"left_numbers":[26,39,39,31,44,50,52,53,38,27],"right_numbers":[27,27,34,27,40,21,20,30,17,32],"points_earned":282,"phase":"task","trial_type":"horizons-task","trial_index":54,"time_elapsed":1220781,"internal_node_id":"0.0-50.0","task_version":"0.2"},{"response_times":[852.2699999883771,974.6949999972712,930.1399999968708,750.8600000001024,812.8099999886472,871.6100000021979,719.1250000032596,736.805000007851,668.6650000046939,825.9849999886937],"keys_pressed":["rightarrow","rightarrow","leftarrow","rightarrow","rightarrow","rightarrow","rightarrow","rightarrow","rightarrow","leftarrow"],"horizon":10,"forced_choices":["rightarrow","rightarrow","leftarrow","rightarrow"],"right_color":"orange","left_color":"lightblue","left_mu":60,"right_mu":40,"left_numbers":[58,70,75,90,74,65,56,62,62,69],"right_numbers":[42,45,29,42,43,47,57,44,42,40],"points_earned":506,"phase":"task","trial_type":"horizons-task","trial_index":55,"time_elapsed":1230441,"internal_node_id":"0.0-51.0","task_version":"0.2"},{"response_times":[963.2450000061654,934.0599999995902,910.5149999959394,920.249999995809,718.1100000014994],"keys_pressed":["leftarrow","leftarrow","rightarrow","leftarrow","rightarrow"],"horizon":5,"forced_choices":["leftarrow","leftarrow","rightarrow","leftarrow"],"right_color":"lightblue","left_color":"orange","left_mu":40,"right_mu":32,"left_numbers":[35,38,43,28,23],"right_numbers":[25,42,29,40,39],"points_earned":169,"phase":"task","trial_type":"horizons-task","trial_index":56,"time_elapsed":1236404,"internal_node_id":"0.0-52.0","task_version":"0.2"},{"response_times":[1196.924999996554,959.9550000128802,1310.4049999965355,926.6499999938533,701.0399999998044,788.1699999999255,692.9950000047684,753.6099999998696,655.1150000013877,605.3499999979977],"keys_pressed":["rightarrow","leftarrow","leftarrow","rightarrow","leftarrow","leftarrow","leftarrow","leftarrow","leftarrow","leftarrow"],"horizon":10,"forced_choices":["rightarrow","leftarrow","leftarrow","rightarrow"],"right_color":"lightblue","left_color":"orange","left_mu":40,"right_mu":32,"left_numbers":[27,35,42,46,33,56,38,41,26,42],"right_numbers":[40,19,33,37,50,31,27,26,18,37],"points_earned":390,"phase":"task","trial_type":"horizons-task","trial_index":57,"time_elapsed":1246508,"internal_node_id":"0.0-53.0","task_version":"0.2"},{"response_times":[826.6749999893364,672.534999990603,741.2599999953527,750.684999991674,722.354999990901,772.2300000023097,702.8799999970943,809.8250000039116,753.0300000072457,917.3900000024587],"keys_pressed":["leftarrow","leftarrow","rightarrow","leftarrow","leftarrow","leftarrow","leftarrow","leftarrow","leftarrow","rightarrow"],"horizon":10,"forced_choices":["leftarrow","leftarrow","rightarrow","leftarrow"],"right_color":"lightblue","left_color":"orange","left_mu":40,"right_mu":10,"left_numbers":[31,38,42,34,43,38,40,38,33,45],"right_numbers":[23,6,11,18,1,9,9,6,8,4],"points_earned":310,"phase":"task","trial_type":"horizons-task","trial_index":58,"time_elapsed":1255692,"internal_node_id":"0.0-54.0","task_version":"0.2"},{"response_times":[1041.3300000072923,698.0250000050291,617.9549999942537,732.0299999993294,656.4950000029057,654.525000005262,685.0750000013504,802.2499999934807,671.0949999978766,677.4050000093412],"keys_pressed":["rightarrow","leftarrow","rightarrow","leftarrow","rightarrow","leftarrow","rightarrow","rightarrow","rightarrow","leftarrow"],"horizon":10,"forced_choices":["rightarrow","leftarrow","rightarrow","leftarrow"],"right_color":"orange","left_color":"lightblue","left_mu":60,"right_mu":52,"left_numbers":[64,72,57,62,58,55,65,60,66,64],"right_numbers":[49,65,62,51,58,48,54,56,61,57],"points_earned":593,"phase":"task","trial_type":"horizons-task","trial_index":59,"time_elapsed":1264444,"internal_node_id":"0.0-55.0","task_version":"0.2"},{"response_times":[771.8850000090897,624.750000002794,793.7949999903794,654.2550000012852,695.914999989327,634.1899999969173,657.3349999962375,719.174999991199,713.9150000002701,1015.7099999925122],"keys_pressed":["rightarrow","leftarrow","leftarrow","rightarrow","leftarrow","rightarrow","rightarrow","rightarrow","rightarrow","leftarrow"],"horizon":10,"forced_choices":["rightarrow","leftarrow","leftarrow","rightarrow"],"right_color":"lightblue","left_color":"orange","left_mu":40,"right_mu":10,"left_numbers":[37,47,29,31,54,41,51,32,37,36],"right_numbers":[3,0,0,6,17,4,12,9,12,9],"points_earned":212,"phase":"task","trial_type":"horizons-task","trial_index":60,"time_elapsed":1273242,"internal_node_id":"0.0-56.0","task_version":"0.2"},{"response_times":[788.0700000096112,743.5850000039209,724.3049999959767,799.5550000050571,765.8200000007637,661.5449999955017,648.2099999992643,748.8250000022817,720.6749999895692,829.8950000023469],"keys_pressed":["leftarrow","leftarrow","rightarrow","rightarrow","leftarrow","rightarrow","leftarrow","leftarrow","rightarrow","rightarrow"],"horizon":10,"forced_choices":["leftarrow","leftarrow","rightarrow","rightarrow"],"right_color":"lightblue","left_color":"orange","left_mu":40,"right_mu":44,"left_numbers":[36,60,46,31,46,47,52,47,41,29],"right_numbers":[30,34,47,50,47,33,37,55,46,35],"points_earned":452,"phase":"task","trial_type":"horizons-task","trial_index":61,"time_elapsed":1282190,"internal_node_id":"0.0-57.0","task_version":"0.2"},{"response_times":[894.4850000115111,737.0399999928195,843.5199999948964,671.5849999892525,741.3650000088383],"keys_pressed":["leftarrow","leftarrow","rightarrow","leftarrow","rightarrow"],"horizon":5,"forced_choices":["leftarrow","leftarrow","rightarrow","leftarrow"],"right_color":"lightblue","left_color":"orange","left_mu":40,"right_mu":10,"left_numbers":[38,43,50,48,40],"right_numbers":[4,11,10,14,0],"points_earned":139,"phase":"task","trial_type":"horizons-task","trial_index":62,"time_elapsed":1287596,"internal_node_id":"0.0-58.0","task_version":"0.2"},{"response_times":[773.2499999983702,654.4200000064448,644.6350000042003,1033.3150000078604,816.5049999952316],"keys_pressed":["rightarrow","leftarrow","rightarrow","leftarrow","rightarrow"],"horizon":5,"forced_choices":["rightarrow","leftarrow","rightarrow","leftarrow"],"right_color":"orange","left_color":"lightblue","left_mu":40,"right_mu":28,"left_numbers":[28,28,37,25,33],"right_numbers":[36,27,33,20,39],"points_earned":161,"phase":"task","trial_type":"horizons-task","trial_index":63,"time_elapsed":1293039,"internal_node_id":"0.0-59.0","task_version":"0.2"},{"response_times":[1141.6500000050291,826.2600000016391,776.320000004489,1028.8200000068173,848.2450000010431,831.0799999888986,686.6100000040606,681.9350000005215,674.1800000015646,766.7300000027753],"keys_pressed":["rightarrow","leftarrow","rightarrow","rightarrow","rightarrow","rightarrow","rightarrow","rightarrow","rightarrow","leftarrow"],"horizon":10,"forced_choices":["rightarrow","leftarrow","rightarrow","rightarrow"],"right_color":"lightblue","left_color":"orange","left_mu":60,"right_mu":30,"left_numbers":[54,49,69,52,55,62,51,47,72,63],"right_numbers":[37,34,40,18,20,18,24,23,38,33],"points_earned":330,"phase":"task","trial_type":"horizons-task","trial_index":64,"time_elapsed":1302814,"internal_node_id":"0.0-60.0","task_version":"0.2"},{"response_times":[1402.2499999990687,990.0999999954365,975.4700000048615,881.204999997979,796.4800000044052],"keys_pressed":["leftarrow","leftarrow","rightarrow","leftarrow","rightarrow"],"horizon":5,"forced_choices":["leftarrow","leftarrow","rightarrow","leftarrow"],"right_color":"orange","left_color":"lightblue","left_mu":40,"right_mu":70,"left_numbers":[44,32,31,33,48],"right_numbers":[66,62,69,69,60],"points_earned":238,"phase":"task","trial_type":"horizons-task","trial_index":65,"time_elapsed":1309380,"internal_node_id":"0.0-61.0","task_version":"0.2"},{"response_times":[783.8749999939464,676.2050000105519,671.4450000000652,1255.1250000104774,904.8800000019837],"keys_pressed":["leftarrow","rightarrow","leftarrow","leftarrow","rightarrow"],"horizon":5,"forced_choices":["leftarrow","rightarrow","leftarrow","leftarrow"],"right_color":"orange","left_color":"lightblue","left_mu":40,"right_mu":28,"left_numbers":[37,43,56,35,29],"right_numbers":[37,30,25,22,22],"points_earned":180,"phase":"task","trial_type":"horizons-task","trial_index":66,"time_elapsed":1315197,"internal_node_id":"0.0-62.0","task_version":"0.2"},{"response_times":[1034.409999993164,784.7949999996927,1206.6750000084285,679.1300000040792,833.9400000113528,695.3150000046007,632.7200000085868,716.5800000075251,593.684999999823,904.9200000008568],"keys_pressed":["leftarrow","rightarrow","rightarrow","rightarrow","rightarrow","rightarrow","rightarrow","rightarrow","rightarrow","leftarrow"],"horizon":10,"forced_choices":["leftarrow","rightarrow","rightarrow","rightarrow"],"right_color":"orange","left_color":"lightblue","left_mu":60,"right_mu":56,"left_numbers":[62,67,75,52,76,52,54,55,73,56],"right_numbers":[63,52,59,57,48,50,67,58,50,66],"points_earned":559,"phase":"task","trial_type":"horizons-task","trial_index":67,"time_elapsed":1324792,"internal_node_id":"0.0-63.0","task_version":"0.2"},{"response_times":[816.4600000018254,681.484999993816,646.2850000096951,594.8449999997392,646.2250000040513],"keys_pressed":["leftarrow","rightarrow","leftarrow","rightarrow","leftarrow"],"horizon":5,"forced_choices":["leftarrow","rightarrow","leftarrow","rightarrow"],"right_color":"lightblue","left_color":"orange","left_mu":60,"right_mu":30,"left_numbers":[65,71,45,61,52],"right_numbers":[37,31,22,37,33],"points_earned":230,"phase":"task","trial_type":"horizons-task","trial_index":68,"time_elapsed":1329697,"internal_node_id":"0.0-64.0","task_version":"0.2"},{"response_times":[1156.474999996135,596.2200000067241,1087.1849999965634,993.215000009397,1371.9700000074226,748.8750000046566,730.6700000043493,739.6399999996647,938.7549999956973,740.2000000001863],"keys_pressed":["rightarrow","leftarrow","leftarrow","rightarrow","rightarrow","rightarrow","rightarrow","rightarrow","rightarrow","leftarrow"],"horizon":10,"forced_choices":["rightarrow","leftarrow","leftarrow","rightarrow"],"right_color":"lightblue","left_color":"orange","left_mu":40,"right_mu":60,"left_numbers":[43,31,33,33,42,42,46,32,35,21],"right_numbers":[65,54,65,40,59,65,59,72,63,62],"points_earned":508,"phase":"task","trial_type":"horizons-task","trial_index":69,"time_elapsed":1340316,"internal_node_id":"0.0-65.0","task_version":"0.2"},{"response_times":[1036.9349999963306,784.3450000071898,1039.7399999930058,894.8249999959953,1109.1149999992922],"keys_pressed":["leftarrow","rightarrow","leftarrow","rightarrow","rightarrow"],"horizon":5,"forced_choices":["leftarrow","rightarrow","leftarrow","rightarrow"],"right_color":"orange","left_color":"lightblue","left_mu":60,"right_mu":68,"left_numbers":[64,65,49,58,56],"right_numbers":[63,62,69,74,75],"points_earned":324,"phase":"task","trial_type":"horizons-task","trial_index":70,"time_elapsed":1346694,"internal_node_id":"0.0-66.0","task_version":"0.2"},{"response_times":[771.9899999939371,779.4799999974202,933.0250000057276,868.5750000001863,831.4450000033248],"keys_pressed":["rightarrow","rightarrow","leftarrow","rightarrow","leftarrow"],"horizon":5,"forced_choices":["rightarrow","rightarrow","leftarrow","rightarrow"],"right_color":"orange","left_color":"lightblue","left_mu":40,"right_mu":36,"left_numbers":[43,37,31,50,45],"right_numbers":[40,37,29,37,29],"points_earned":190,"phase":"task","trial_type":"horizons-task","trial_index":71,"time_elapsed":1352391,"internal_node_id":"0.0-67.0","task_version":"0.2"},{"response_times":[3120.244999998249,784.2949999906123,874.1449999944307,694.0800000012387,757.4200000087731],"keys_pressed":["leftarrow","rightarrow","rightarrow","rightarrow","rightarrow"],"horizon":5,"forced_choices":["leftarrow","rightarrow","rightarrow","rightarrow"],"right_color":"orange","left_color":"lightblue","left_mu":60,"right_mu":52,"left_numbers":[47,68,73,55,61],"right_numbers":[44,49,49,38,55],"points_earned":238,"phase":"task","trial_type":"horizons-task","trial_index":72,"time_elapsed":1360135,"internal_node_id":"0.0-68.0","task_version":"0.2"},{"response_times":[820.7249999977648,630.2799999976996,1264.009999999078,924.4749999924097,2953.3700000029057],"keys_pressed":["rightarrow","rightarrow","leftarrow","leftarrow","rightarrow"],"horizon":5,"forced_choices":["rightarrow","rightarrow","leftarrow","leftarrow"],"right_color":"orange","left_color":"lightblue","left_mu":40,"right_mu":48,"left_numbers":[37,37,42,50,39],"right_numbers":[47,54,45,52,56],"points_earned":249,"phase":"task","trial_type":"horizons-task","trial_index":73,"time_elapsed":1368248,"internal_node_id":"0.0-69.0","task_version":"0.2"},{"response_times":[816.3449999992736,693.5550000052899,624.5049999996554,1269.5949999906588,904.4100000027101,712.994999994291,592.4650000086986,611.9500000057742,541.7400000006892,419.79499999433756],"keys_pressed":["leftarrow","leftarrow","leftarrow","rightarrow","rightarrow","rightarrow","rightarrow","rightarrow","rightarrow","rightarrow"],"horizon":10,"forced_choices":["leftarrow","leftarrow","leftarrow","rightarrow"],"right_color":"lightblue","left_color":"orange","left_mu":40,"right_mu":60,"left_numbers":[45,36,31,51,36,32,42,44,59,33],"right_numbers":[40,67,55,59,38,57,62,59,57,72],"points_earned":516,"phase":"task","trial_type":"horizons-task","trial_index":74,"time_elapsed":1376949,"internal_node_id":"0.0-70.0","task_version":"0.2"},{"response_times":[861.4650000089314,739.8649999960326,725.9000000047963,648.5950000060257,711.835000009276,902.6149999990594,724.5199999888428,660.9300000127405,696.9549999921583,616.3300000044983],"keys_pressed":["leftarrow","rightarrow","rightarrow","rightarrow","rightarrow","leftarrow","rightarrow","rightarrow","leftarrow","rightarrow"],"horizon":10,"forced_choices":["leftarrow","rightarrow","rightarrow","rightarrow"],"right_color":"orange","left_color":"lightblue","left_mu":60,"right_mu":52,"left_numbers":[53,56,60,55,52,69,68,56,53,58],"right_numbers":[49,48,60,57,54,53,60,67,51,52],"points_earned":573,"phase":"task","trial_type":"horizons-task","trial_index":75,"time_elapsed":1385754,"internal_node_id":"0.0-71.0","task_version":"0.2"},{"response_times":[870.5800000026356,643.7549999973271,650.6850000005215,636.3200000049546,531.3750000060536],"keys_pressed":["rightarrow","leftarrow","rightarrow","leftarrow","rightarrow"],"horizon":5,"forced_choices":["rightarrow","leftarrow","rightarrow","leftarrow"],"right_color":"orange","left_color":"lightblue","left_mu":60,"right_mu":52,"left_numbers":[65,58,64,59,65],"right_numbers":[49,70,45,39,50],"points_earned":261,"phase":"task","trial_type":"horizons-task","trial_index":76,"time_elapsed":1390606,"internal_node_id":"0.0-72.0","task_version":"0.2"},{"response_times":[828.2000000034459,940.5899999982212,684.9199999999255,780.0200000056066,576.7849999975879],"keys_pressed":["rightarrow","rightarrow","rightarrow","leftarrow","rightarrow"],"horizon":5,"forced_choices":["rightarrow","rightarrow","rightarrow","leftarrow"],"right_color":"orange","left_color":"lightblue","left_mu":60,"right_mu":68,"left_numbers":[58,59,58,54,53],"right_numbers":[70,54,73,43,78],"points_earned":329,"phase":"task","trial_type":"horizons-task","trial_index":77,"time_elapsed":1395935,"internal_node_id":"0.0-73.0","task_version":"0.2"},{"response_times":[785.8049999922514,630.9949999994133,982.2249999998603,880.5850000062492,625.9500000015832],"keys_pressed":["rightarrow","leftarrow","leftarrow","leftarrow","rightarrow"],"horizon":5,"forced_choices":["rightarrow","leftarrow","leftarrow","leftarrow"],"right_color":"lightblue","left_color":"orange","left_mu":40,"right_mu":44,"left_numbers":[26,39,32,38,32],"right_numbers":[50,58,46,45,41],"points_earned":200,"phase":"task","trial_type":"horizons-task","trial_index":78,"time_elapsed":1401353,"internal_node_id":"0.0-74.0","task_version":"0.2"},{"response_times":[910.2950000087731,825.7650000015274,645.4249999951571,671.4350000109989,650.02000000095],"keys_pressed":["leftarrow","rightarrow","leftarrow","rightarrow","leftarrow"],"horizon":5,"forced_choices":["leftarrow","rightarrow","leftarrow","rightarrow"],"right_color":"orange","left_color":"lightblue","left_mu":60,"right_mu":80,"left_numbers":[66,60,71,54,54],"right_numbers":[75,83,75,81,81],"points_earned":355,"phase":"task","trial_type":"horizons-task","trial_index":79,"time_elapsed":1406571,"internal_node_id":"0.0-75.0","task_version":"0.2"},{"response_times":[1758.490000007674,874.745000008028,1510.3799999924377,892.095000002766,873.1100000003353,682.8949999909382,763.6849999979604,692.5049999989569,719.3700000061654,559.0400000074878],"keys_pressed":["rightarrow","rightarrow","leftarrow","leftarrow","rightarrow","rightarrow","rightarrow","rightarrow","rightarrow","rightarrow"],"horizon":10,"forced_choices":["rightarrow","rightarrow","leftarrow","leftarrow"],"right_color":"orange","left_color":"lightblue","left_mu":40,"right_mu":48,"left_numbers":[33,45,36,48,48,32,39,30,38,33],"right_numbers":[64,43,41,46,53,55,56,43,44,48],"points_earned":490,"phase":"task","trial_type":"horizons-task","trial_index":80,"time_elapsed":1417416,"internal_node_id":"0.0-76.0","task_version":"0.2"},{"response_times":[751.6800000013318,769.199999995064,714.3700000015087,889.6399999940768,667.6200000073295,705.6449999944307,638.6950000014622,810.4900000034831,894.3699999945238,934.8800000008196],"keys_pressed":["rightarrow","rightarrow","rightarrow","leftarrow","rightarrow","rightarrow","rightarrow","rightarrow","rightarrow","leftarrow"],"horizon":10,"forced_choices":["rightarrow","rightarrow","rightarrow","leftarrow"],"right_color":"orange","left_color":"lightblue","left_mu":40,"right_mu":48,"left_numbers":[37,48,56,41,44,33,44,55,47,29],"right_numbers":[57,52,36,57,41,48,44,49,47,26],"points_earned":444,"phase":"task","trial_type":"horizons-task","trial_index":81,"time_elapsed":1426710,"internal_node_id":"0.0-77.0","task_version":"0.2"},{"response_times":[1457.7149999968242,1330.494999987306,1283.7149999975227,1632.8550000034738,668.4050000039861],"keys_pressed":["rightarrow","rightarrow","leftarrow","rightarrow","rightarrow"],"horizon":5,"forced_choices":["rightarrow","rightarrow","leftarrow","rightarrow"],"right_color":"orange","left_color":"lightblue","left_mu":60,"right_mu":40,"left_numbers":[62,56,72,52,53],"right_numbers":[47,42,42,47,31],"points_earned":239,"phase":"task","trial_type":"horizons-task","trial_index":82,"time_elapsed":1434605,"internal_node_id":"0.0-78.0","task_version":"0.2"},{"response_times":[860.7049999991432,1251.485000000801,801.7950000064448,1932.7899999916553,1352.5850000006612],"keys_pressed":["rightarrow","rightarrow","rightarrow","leftarrow","rightarrow"],"horizon":5,"forced_choices":["rightarrow","rightarrow","rightarrow","leftarrow"],"right_color":"orange","left_color":"lightblue","left_mu":40,"right_mu":48,"left_numbers":[21,43,42,41,42],"right_numbers":[45,43,56,42,59],"points_earned":244,"phase":"task","trial_type":"horizons-task","trial_index":83,"time_elapsed":1442318,"internal_node_id":"0.0-79.0","task_version":"0.2"},{"response_times":[942.2199999971781,983.7050000058953,978.4950000029057,1343.5549999994691,1173.8000000040047,772.7299999967217,1201.5850000027567,1100.5500000030734,2076.260000001639,287.07500000018626],"keys_pressed":["rightarrow","leftarrow","leftarrow","leftarrow","rightarrow","rightarrow","rightarrow","rightarrow","rightarrow","rightarrow"],"horizon":10,"forced_choices":["rightarrow","leftarrow","leftarrow","leftarrow"],"right_color":"orange","left_color":"lightblue","left_mu":60,"right_mu":48,"left_numbers":[65,55,66,64,57,52,57,53,53,69],"right_numbers":[50,47,39,35,50,40,42,45,40,51],"points_earned":503,"phase":"task","trial_type":"horizons-task","trial_index":84,"time_elapsed":1454689,"internal_node_id":"0.0-80.0","task_version":"0.2"},{"response_times":[1160.5799999961164,1504.1650000056252,964.204999996582,1501.369999998249,1073.6099999919534,924.1599999950267,838.4700000023004,1419.3250000097323,1064.16999999783,1253.1699999962002],"keys_pressed":["leftarrow","rightarrow","rightarrow","rightarrow","rightarrow","rightarrow","rightarrow","rightarrow","rightarrow","rightarrow"],"horizon":10,"forced_choices":["leftarrow","rightarrow","rightarrow","rightarrow"],"right_color":"orange","left_color":"lightblue","left_mu":60,"right_mu":80,"left_numbers":[60,64,48,63,51,50,57,56,69,62],"right_numbers":[70,68,92,75,85,83,83,78,78,89],"points_earned":791,"phase":"task","trial_type":"horizons-task","trial_index":85,"time_elapsed":1467905,"internal_node_id":"0.0-81.0","task_version":"0.2"},{"response_times":[1588.5899999993853,1927.5349999950267,901.5099999960512,861.2950000097044,1056.8400000047404,1017.6450000000186,1309.4400000120513,1493.1849999995902,1060.4699999969453,946.5649999910966],"keys_pressed":["rightarrow","rightarrow","leftarrow","leftarrow","rightarrow","rightarrow","rightarrow","rightarrow","rightarrow","rightarrow"],"horizon":10,"forced_choices":["rightarrow","rightarrow","leftarrow","leftarrow"],"right_color":"orange","left_color":"lightblue","left_mu":60,"right_mu":48,"left_numbers":[54,57,73,52,65,50,61,71,55,59],"right_numbers":[37,51,40,57,60,37,50,56,49,56],"points_earned":521,"phase":"task","trial_type":"horizons-task","trial_index":86,"time_elapsed":1481583,"internal_node_id":"0.0-82.0","task_version":"0.2"},{"response_times":[2000.8950000046752,790.0450000017881,1144.6399999985006,1452.5950000099838,1116.144999992568,1014.100000000326,18.78500000736676,1496.0250000003725,964.7399999955669,1924.9899999997579],"keys_pressed":["leftarrow","leftarrow","leftarrow","rightarrow","leftarrow","leftarrow","rightarrow","rightarrow","rightarrow","rightarrow"],"horizon":10,"forced_choices":["leftarrow","leftarrow","leftarrow","rightarrow"],"right_color":"lightblue","left_color":"orange","left_mu":60,"right_mu":72,"left_numbers":[56,58,62,60,65,56,66,65,53,55],"right_numbers":[79,66,56,73,52,76,82,88,71,63],"points_earned":674,"phase":"task","trial_type":"horizons-task","trial_index":87,"time_elapsed":1495021,"internal_node_id":"0.0-83.0","task_version":"0.2"},{"response_times":[1353.0850000097416,960.2500000037253,1301.1499999992084,802.1399999996647,948.9549999998417],"keys_pressed":["leftarrow","rightarrow","leftarrow","leftarrow","rightarrow"],"horizon":5,"forced_choices":["leftarrow","rightarrow","leftarrow","leftarrow"],"right_color":"lightblue","left_color":"orange","left_mu":60,"right_mu":90,"left_numbers":[56,61,62,63,66],"right_numbers":[94,88,94,85,85],"points_earned":354,"phase":"task","trial_type":"horizons-task","trial_index":88,"time_elapsed":1501903,"internal_node_id":"0.0-84.0","task_version":"0.2"},{"response_times":[1066.1050000053365,791.8050000008661,764.2250000061467,685.080000010319,727.7200000099838,640.0200000060722,693.3450000067241,695.0649999927264,643.819999997504,801.9400000048336],"keys_pressed":["rightarrow","rightarrow","leftarrow","rightarrow","leftarrow","rightarrow","rightarrow","rightarrow","rightarrow","leftarrow"],"horizon":10,"forced_choices":["rightarrow","rightarrow","leftarrow","rightarrow"],"right_color":"orange","left_color":"lightblue","left_mu":40,"right_mu":36,"left_numbers":[39,34,45,41,17,51,65,36,49,40],"right_numbers":[30,52,32,40,40,32,39,41,52,43],"points_earned":388,"phase":"task","trial_type":"horizons-task","trial_index":89,"time_elapsed":1510931,"internal_node_id":"0.0-85.0","task_version":"0.2"},{"response_times":[1448.4449999872595,747.6199999945238,719.6800000094809,1032.2400000004563,1053.8700000033714,1982.9450000107754,854.1700000059791,773.5700000049546,694.1100000112783,670.2199999999721],"keys_pressed":["leftarrow","rightarrow","leftarrow","leftarrow","rightarrow","leftarrow","leftarrow","leftarrow","leftarrow","leftarrow"],"horizon":10,"forced_choices":["leftarrow","rightarrow","leftarrow","leftarrow"],"right_color":"lightblue","left_color":"orange","left_mu":60,"right_mu":90,"left_numbers":[74,52,51,66,69,67,62,47,55,53],"right_numbers":[96,85,100,84,93,91,99,91,86,100],"points_earned":653,"phase":"task","trial_type":"horizons-task","trial_index":90,"time_elapsed":1522426,"internal_node_id":"0.0-86.0","task_version":"0.2"},{"response_times":[959.9600000074133,626.8600000040606,1046.5699999914505,884.5600000056438,757.8450000002049],"keys_pressed":["rightarrow","leftarrow","leftarrow","rightarrow","leftarrow"],"horizon":5,"forced_choices":["rightarrow","leftarrow","leftarrow","rightarrow"],"right_color":"orange","left_color":"lightblue","left_mu":60,"right_mu":56,"left_numbers":[64,55,63,54,54],"right_numbers":[64,45,60,66,54],"points_earned":302,"phase":"task","trial_type":"horizons-task","trial_index":91,"time_elapsed":1528224,"internal_node_id":"0.0-87.0","task_version":"0.2"},{"rt":28847.27499999269,"responses":{"age":"24","gender-categorical":"Male","gender-free-response":"","ethnicity":"Not Hispanic or Latino","race":["White"],"language":"Yes","fluency":"Very well"},"survey":"demographics","trial_type":"survey-demo","trial_index":92,"time_elapsed":1557078,"internal_node_id":"0.0-88.0","task_version":"0.2"},{"rt":25228.275000001304,"responses":{"difficulty":"5","fun":"5","clarity":"5","strategy":"Intuition","feedback":"None"},"survey":"debrief","trial_type":"survey-debrief","trial_index":93,"time_elapsed":1582314,"internal_node_id":"0.0-89.0","task_version":"0.2","interactions":"[{\"event\":\"blur\",\"trial\":1,\"time\":83998},{\"event\":\"focus\",\"trial\":1,\"time\":88179},{\"event\":\"blur\",\"trial\":4,\"time\":321033},{\"event\":\"focus\",\"trial\":4,\"time\":334308},{\"event\":\"blur\",\"trial\":4,\"time\":382391},{\"event\":\"focus\",\"trial\":4,\"time\":398971},{\"event\":\"blur\",\"trial\":5,\"time\":457977},{\"event\":\"focus\",\"trial\":5,\"time\":465485},{\"event\":\"blur\",\"trial\":5,\"time\":569525},{\"event\":\"focus\",\"trial\":5,\"time\":666896}]"}]