[{"view_history":"[{\"page_index\":0,\"viewing_time\":2870.8150000311434}]","rt":2871.449999976903,"trial_type":"instructions","trial_index":0,"time_elapsed":2884,"internal_node_id":"0.0-0.0","task_version":"0.2"},{"item_order":[2,1,14,8,6,3,4,0,5,12,7,11,13,15,9,10],"responses":{"Q03":"3","Q02":"1","Q15":"2","Q09":"3","Q07":"4","Q04":"3","Q05":"3","Q01":"1","Q06":"3","Q13":"2","Q08":"1","Q12":"3","Q14":"2","Q16":"5","Q10":"2","Q11":"3"},"radio_events":[3832.939999876544,8092.960000038147,11013.6750000529,22103.244999889284,25202.610000036657,30254.6999999322,36444.00499993935,41185.55500009097,47965.434999903664,50982.499999925494,54266.025000019,62632.02999997884,65698.3449999243,68902.46500005014,74371.62499991246,77798.65500004962],"key_events":[],"mouse_events":[0.23499992676079273,3832.939999876544,8092.960000038147,11013.6750000529,22103.244999889284,25202.610000036657,29211.619999958202,30254.6999999322,35396.794999949634,36444.00499993935,41185.55500009097,41950.79499995336,47965.434999903664,50982.499999925494,54266.025000019,60911.869999952614,62632.02999997884,64608.33499999717,65698.3449999243,68902.46500005014,74371.62499991246,77798.65500004962,78903.9749999065],"rt":78909.4599999953,"survey":"nfc","trial_type":"survey-template","trial_index":1,"time_elapsed":81797,"internal_node_id":"0.0-1.0","task_version":"0.2"},{"item_order":[14,13,6,1,7,15,5,10,4,0,8,2,3,12,11,16,9],"responses":{"Q15":"2","Q14":"2","Q07":"3","Q02":"1","Q08":"2","Q16":"3","Q06":"2","Q11":"3","Q05":"4","Q01":"3","Q09":"1","Q03":"4","Q04":"2","Q13":"3","Q12":"2","Q17":"0","Q10":"3"},"radio_events":[3111.839999910444,4565.764999948442,8601.315000094473,10510.990000097081,13410.720000043511,16299.150000093505,18640.03499993123,25027.60499995202,28288.8100000564,36772.63500005938,38431.64999992587,40574.09500004724,44491.57999991439,50060.76000002213,51529.585000127554,54218.229999998584,56982.820000033826],"key_events":[],"mouse_events":[3111.839999910444,4565.764999948442,7421.809999970719,8601.315000094473,10510.990000097081,13410.720000043511,16299.150000093505,18640.03499993123,25027.60499995202,28288.8100000564,28963.445000117645,34041.7450000532,34976.26999998465,36772.63500005938,38431.64999992587,40574.09500004724,44491.57999991439,48266.43500011414,50060.76000002213,51529.585000127554,54218.229999998584,56982.820000033826,60096.29500005394],"rt":60100.409999955446,"survey":"pswq","trial_type":"survey-template","trial_index":2,"time_elapsed":141906,"internal_node_id":"0.0-2.0","task_version":"0.2"},{"item_order":[2,5,10,1,11,7,9,3,4,0,6,8,12],"responses":{"Q03":"1","Q06":"0","Q11":"3","Q02":"2","Q12":"1","Q08":"3","Q10":"0","Q04":"1","Q05":"1","Q01":"1","Q07":"0","Q09":"1","Q13":"4"},"radio_events":[4283.814999973401,6829.639999894425,13024.53999989666,16622.254999820143,20361.30500002764,26018.954999977723,27586.46499994211,32020.759999984875,35031.81999991648,38152.069999836385,40186.155000003055,45255.37499994971,47683.53499984369],"key_events":[],"mouse_events":[4283.814999973401,6829.639999894425,13024.53999989666,16622.254999820143,20361.30500002764,26018.954999977723,27586.46499994211,28443.934999872,32020.759999984875,35031.81999991648,38152.069999836385,40186.155000003055,43959.04999994673,45255.37499994971,47683.53499984369,48759.01499995962],"rt":48762.48999987729,"survey":"ius12","trial_type":"survey-template","trial_index":3,"time_elapsed":190674,"internal_node_id":"0.0-3.0","task_version":"0.2"},{"view_history":"[{\"page_index\":0,\"viewing_time\":3659.95500003919},{\"page_index\":1,\"viewing_time\":3381.4099999144673},{\"page_index\":2,\"viewing_time\":3998.0349999386817},{\"page_index\":3,\"viewing_time\":6172.44500014931},{\"page_index\":4,\"viewing_time\":7202.399999834597},{\"page_index\":5,\"viewing_time\":8506.580000044778},{\"page_index\":6,\"viewing_time\":3399.0350000094622},{\"page_index\":7,\"viewing_time\":5895.724999951199},{\"page_index\":8,\"viewing_time\":3220.0150000862777},{\"page_index\":9,\"viewing_time\":5690.010000020266}]","rt":51125.95499982126,"trial_type":"instructions","trial_index":4,"time_elapsed":241795,"internal_node_id":"0.0-4.0-0.0","task_version":"0.2"},{"response_times":[749.4799999985844,591.5849998127669,426.9650001078844,546.339999884367,2704.9400000832975],"keys_pressed":["rightarrow","leftarrow","rightarrow","rightarrow","leftarrow"],"horizon":5,"forced_choices":["rightarrow","leftarrow","rightarrow","rightarrow"],"right_color":"lightblue","left_color":"orange","left_mu":40,"right_mu":20,"left_numbers":[41,39,48,46,39],"right_numbers":[24,6,0,12,24],"points_earned":114,"phase":"practice","trial_type":"horizons-task","trial_index":5,"time_elapsed":248334,"internal_node_id":"0.0-4.0-1.0","task_version":"0.2"},{"response_times":[1013.3200001437217,548.464999999851,520.3800001181662,563.5049999691546,739.7599997930229,5.2900000009685755,3146.2300000712276,1548.7999999895692,973.7050000112504,847.9999999981374],"keys_pressed":["leftarrow","leftarrow","rightarrow","rightarrow","rightarrow","leftarrow","rightarrow","rightarrow","rightarrow","rightarrow"],"horizon":10,"forced_choices":["leftarrow","leftarrow","rightarrow","rightarrow"],"right_color":"orange","left_color":"lightblue","left_mu":60,"right_mu":70,"left_numbers":[66,63,61,50,44,58,61,64,51,53],"right_numbers":[74,75,56,67,61,64,69,52,71,60],"points_earned":623,"phase":"practice","trial_type":"horizons-task","trial_index":6,"time_elapsed":259751,"internal_node_id":"0.0-4.0-2.0","task_version":"0.2"},{"view_history":"[{\"page_index\":0,\"viewing_time\":12.334999861195683},{\"page_index\":1,\"viewing_time\":2028.510000091046},{\"page_index\":2,\"viewing_time\":2910.274999914691},{\"page_index\":3,\"viewing_time\":1606.110000051558}]","rt":6557.640000013635,"trial_type":"instructions","trial_index":7,"time_elapsed":266310,"internal_node_id":"0.0-4.0-3.0","task_version":"0.2"},{"responses":["true","false","true"],"num_errors":0,"rt":10406.875000102445,"trial_type":"horizons-comprehension","trial_index":8,"time_elapsed":276725,"internal_node_id":"0.0-4.0-4.0","task_version":"0.2"},{"trial_type":"call-function","trial_index":9,"time_elapsed":276729,"internal_node_id":"0.0-5.0","task_version":"0.2"},{"view_history":"[{\"page_index\":0,\"viewing_time\":1604.9699999857694},{\"page_index\":1,\"viewing_time\":1802.4150000419468}]","rt":3407.924999948591,"trial_type":"instructions","trial_index":10,"time_elapsed":280138,"internal_node_id":"0.0-6.0","task_version":"0.2"},{"response_times":[901.649999897927,628.0600000172853,576.8000001553446,541.9950000941753,2131.8949998822063,1309.2349998187274,1372.0199998933822,1093.4250000864267,992.4749999772757,549.9050000216812],"keys_pressed":["leftarrow","rightarrow","leftarrow","leftarrow","leftarrow","leftarrow","leftarrow","leftarrow","leftarrow","leftarrow"],"horizon":10,"forced_choices":["leftarrow","rightarrow","leftarrow","leftarrow"],"right_color":"orange","left_color":"lightblue","left_mu":40,"right_mu":32,"left_numbers":[35,38,41,42,44,28,44,33,32,35],"right_numbers":[24,29,29,25,24,39,29,21,25,24],"points_earned":363,"phase":"task","trial_type":"horizons-task","trial_index":11,"time_elapsed":291747,"internal_node_id":"0.0-7.0","task_version":"0.2"},{"response_times":[827.5300001259893,473.6649999395013,479.46499986574054,1022.1800000872463,1394.8200000450015,871.3200001511723,751.1650000233203,715.8150000032037,702.9299999121577,681.4649999141693],"keys_pressed":["leftarrow","rightarrow","leftarrow","leftarrow","leftarrow","leftarrow","leftarrow","leftarrow","leftarrow","leftarrow"],"horizon":10,"forced_choices":["leftarrow","rightarrow","leftarrow","leftarrow"],"right_color":"lightblue","left_color":"orange","left_mu":40,"right_mu":36,"left_numbers":[35,34,39,42,55,34,30,37,48,46],"right_numbers":[35,47,33,45,24,34,41,31,25,32],"points_earned":413,"phase":"task","trial_type":"horizons-task","trial_index":12,"time_elapsed":301174,"internal_node_id":"0.0-8.0","task_version":"0.2"},{"response_times":[763.3849999401718,531.7550001200289,587.3000000137836,566.7250000406057,987.3200000729412],"keys_pressed":["rightarrow","leftarrow","leftarrow","leftarrow","leftarrow"],"horizon":5,"forced_choices":["rightarrow","leftarrow","leftarrow","leftarrow"],"right_color":"lightblue","left_color":"orange","left_mu":40,"right_mu":28,"left_numbers":[57,42,38,39,52],"right_numbers":[30,28,37,17,19],"points_earned":201,"phase":"task","trial_type":"horizons-task","trial_index":13,"time_elapsed":306119,"internal_node_id":"0.0-9.0","task_version":"0.2"},{"response_times":[1042.4699999857694,598.9999999292195,513.685000129044,562.5400000717491,1697.9050000663847,600.4549998324364,420.66500009968877,408.2500000949949,396.7499998398125,369.6550000458956],"keys_pressed":["rightarrow","leftarrow","leftarrow","rightarrow","rightarrow","rightarrow","rightarrow","rightarrow","rightarrow","rightarrow"],"horizon":10,"forced_choices":["rightarrow","leftarrow","leftarrow","rightarrow"],"right_color":"lightblue","left_color":"orange","left_mu":60,"right_mu":56,"left_numbers":[63,59,57,56,67,58,61,73,53,65],"right_numbers":[58,59,63,60,61,54,66,56,60,66],"points_earned":597,"phase":"task","trial_type":"horizons-task","trial_index":14,"time_elapsed":314238,"internal_node_id":"0.0-10.0","task_version":"0.2"},{"response_times":[1256.760000018403,403.9349998347461,345.4199999105185,489.5399999804795,722.6450000889599,386.3850000780076,372.81999993138015,345.0200001243502,509.5350001938641,305.34500000067055],"keys_pressed":["rightarrow","leftarrow","rightarrow","rightarrow","rightarrow","rightarrow","rightarrow","rightarrow","rightarrow","rightarrow"],"horizon":10,"forced_choices":["rightarrow","leftarrow","rightarrow","rightarrow"],"right_color":"orange","left_color":"lightblue","left_mu":40,"right_mu":70,"left_numbers":[37,44,31,40,50,33,33,39,51,38],"right_numbers":[63,69,67,78,69,78,62,71,62,56],"points_earned":650,"phase":"task","trial_type":"horizons-task","trial_index":15,"time_elapsed":320885,"internal_node_id":"0.0-11.0","task_version":"0.2"},{"response_times":[492.65000014565885,523.215000052005,887.5599999446422,552.9600000008941,1378.7650000303984],"keys_pressed":["rightarrow","rightarrow","leftarrow","leftarrow","rightarrow"],"horizon":5,"forced_choices":["rightarrow","rightarrow","leftarrow","leftarrow"],"right_color":"orange","left_color":"lightblue","left_mu":60,"right_mu":68,"left_numbers":[67,56,77,46,69],"right_numbers":[71,71,63,69,77],"points_earned":342,"phase":"task","trial_type":"horizons-task","trial_index":16,"time_elapsed":326224,"internal_node_id":"0.0-12.0","task_version":"0.2"},{"response_times":[497.21499998122454,482.819999800995,380.76500012539327,402.29000011458993,1845.6999999471009,581.7950000055134,404.3400001246482,380.29500003904104,351.2200000695884,344.2949999589473],"keys_pressed":["rightarrow","rightarrow","leftarrow","leftarrow","rightarrow","rightarrow","rightarrow","rightarrow","rightarrow","rightarrow"],"horizon":10,"forced_choices":["rightarrow","rightarrow","leftarrow","leftarrow"],"right_color":"orange","left_color":"lightblue","left_mu":40,"right_mu":60,"left_numbers":[45,31,45,41,63,52,35,36,27,37],"right_numbers":[49,56,63,65,67,68,59,52,67,53],"points_earned":557,"phase":"task","trial_type":"horizons-task","trial_index":17,"time_elapsed":333406,"internal_node_id":"0.0-13.0","task_version":"0.2"},{"response_times":[589.7250000853091,372.2800000105053,482.9750000499189,431.7300000693649,1162.1199999935925,430.0049999728799,370.0749999843538,544.9950001202524,409.5499999821186,348.9850000478327],"keys_pressed":["leftarrow","rightarrow","leftarrow","rightarrow","rightarrow","rightarrow","rightarrow","rightarrow","rightarrow","rightarrow"],"horizon":10,"forced_choices":["leftarrow","rightarrow","leftarrow","rightarrow"],"right_color":"orange","left_color":"lightblue","left_mu":40,"right_mu":32,"left_numbers":[25,43,35,45,35,43,36,42,46,40],"right_numbers":[28,27,34,42,26,24,28,26,28,23],"points_earned":284,"phase":"task","trial_type":"horizons-task","trial_index":18,"time_elapsed":340053,"internal_node_id":"0.0-14.0","task_version":"0.2"},{"response_times":[537.6450000330806,548.3349999412894,506.56999996863306,576.3550000265241,1698.0749999638647],"keys_pressed":["leftarrow","rightarrow","rightarrow","leftarrow","rightarrow"],"horizon":5,"forced_choices":["leftarrow","rightarrow","rightarrow","leftarrow"],"right_color":"orange","left_color":"lightblue","left_mu":60,"right_mu":64,"left_numbers":[47,62,54,60,70],"right_numbers":[57,68,55,62,74],"points_earned":304,"phase":"task","trial_type":"horizons-task","trial_index":19,"time_elapsed":345426,"internal_node_id":"0.0-15.0","task_version":"0.2"},{"response_times":[690.6399999279529,446.6850000899285,368.69999999180436,654.3749999254942,2639.964999863878],"keys_pressed":["rightarrow","leftarrow","rightarrow","rightarrow","leftarrow"],"horizon":5,"forced_choices":["rightarrow","leftarrow","rightarrow","rightarrow"],"right_color":"lightblue","left_color":"orange","left_mu":60,"right_mu":52,"left_numbers":[42,73,49,63,54],"right_numbers":[58,43,38,51,55],"points_earned":274,"phase":"task","trial_type":"horizons-task","trial_index":20,"time_elapsed":351732,"internal_node_id":"0.0-16.0","task_version":"0.2"},{"response_times":[437.3400001786649,581.5900000743568,410.5200001504272,530.849999981001,2134.5999999903142],"keys_pressed":["rightarrow","rightarrow","rightarrow","leftarrow","leftarrow"],"horizon":5,"forced_choices":["rightarrow","rightarrow","rightarrow","leftarrow"],"right_color":"orange","left_color":"lightblue","left_mu":60,"right_mu":40,"left_numbers":[57,55,63,57,65],"right_numbers":[47,27,40,45,28],"points_earned":236,"phase":"task","trial_type":"horizons-task","trial_index":21,"time_elapsed":357335,"internal_node_id":"0.0-17.0","task_version":"0.2"},{"response_times":[543.1049999315292,403.62500003539026,405.6450000498444,415.20499996840954,1547.484999988228,404.3499999679625,381.71999994665384,345.49500001594424,352.26999991573393,400.8499998599291],"keys_pressed":["leftarrow","leftarrow","rightarrow","rightarrow","rightarrow","rightarrow","rightarrow","rightarrow","rightarrow","rightarrow"],"horizon":10,"forced_choices":["leftarrow","leftarrow","rightarrow","rightarrow"],"right_color":"orange","left_color":"lightblue","left_mu":40,"right_mu":52,"left_numbers":[30,31,46,42,32,33,42,47,49,42],"right_numbers":[59,50,58,78,55,65,59,44,38,58],"points_earned":516,"phase":"task","trial_type":"horizons-task","trial_index":22,"time_elapsed":364040,"internal_node_id":"0.0-18.0","task_version":"0.2"},{"response_times":[557.5349999126047,440.26999990455806,667.6250000018626,499.77999995462596,1279.975000070408],"keys_pressed":["leftarrow","rightarrow","leftarrow","rightarrow","rightarrow"],"horizon":5,"forced_choices":["leftarrow","rightarrow","leftarrow","rightarrow"],"right_color":"lightblue","left_color":"orange","left_mu":60,"right_mu":80,"left_numbers":[57,58,65,55,58],"right_numbers":[95,73,76,63,82],"points_earned":340,"phase":"task","trial_type":"horizons-task","trial_index":23,"time_elapsed":368990,"internal_node_id":"0.0-19.0","task_version":"0.2"},{"response_times":[408.51500001735985,372.3649999592453,461.76999993622303,395.63999976962805,1666.789999930188,406.83499979786575,357.8500000294298,328.1299998052418,310.8000000938773,365.38499989546835],"keys_pressed":["leftarrow","rightarrow","rightarrow","rightarrow","rightarrow","rightarrow","rightarrow","rightarrow","rightarrow","rightarrow"],"horizon":10,"forced_choices":["leftarrow","rightarrow","rightarrow","rightarrow"],"right_color":"lightblue","left_color":"orange","left_mu":40,"right_mu":48,"left_numbers":[34,15,48,39,32,31,35,40,46,53],"right_numbers":[42,54,47,48,46,54,44,66,43,45],"points_earned":481,"phase":"task","trial_type":"horizons-task","trial_index":24,"time_elapsed":375575,"internal_node_id":"0.0-20.0","task_version":"0.2"},{"response_times":[418.9600001554936,502.915000077337,472.47999999672174,546.8999999575317,1424.834999954328,456.6900001373142,340.00000008381903,298.6699999310076,307.3049997910857,323.4200000297278],"keys_pressed":["rightarrow","leftarrow","leftarrow","rightarrow","leftarrow","leftarrow","leftarrow","leftarrow","leftarrow","leftarrow"],"horizon":10,"forced_choices":["rightarrow","leftarrow","leftarrow","rightarrow"],"right_color":"lightblue","left_color":"orange","left_mu":40,"right_mu":20,"left_numbers":[27,34,39,40,49,38,49,33,40,35],"right_numbers":[38,19,35,10,19,33,16,20,27,0],"points_earned":365,"phase":"task","trial_type":"horizons-task","trial_index":25,"time_elapsed":382176,"internal_node_id":"0.0-21.0","task_version":"0.2"},{"response_times":[495.7399999257177,480.2049999125302,787.2200000565499,1426.5699998941272,999.2599999532104,1561.7450000718236,657.3250000365078,391.83499990031123,3153.609999921173,474.5549999643117],"keys_pressed":["rightarrow","rightarrow","leftarrow","rightarrow","leftarrow","rightarrow","leftarrow","leftarrow","rightarrow","rightarrow"],"horizon":10,"forced_choices":["rightarrow","rightarrow","leftarrow","rightarrow"],"right_color":"orange","left_color":"lightblue","left_mu":60,"right_mu":64,"left_numbers":[61,64,62,60,59,54,50,56,62,65],"right_numbers":[64,63,74,45,61,48,71,72,78,72],"points_earned":597,"phase":"task","trial_type":"horizons-task","trial_index":26,"time_elapsed":394113,"internal_node_id":"0.0-22.0","task_version":"0.2"},{"response_times":[753.3199999015778,593.4099999722093,635.9900000970811,548.1950000394136,900.5100000649691],"keys_pressed":["leftarrow","leftarrow","rightarrow","rightarrow","rightarrow"],"horizon":5,"forced_choices":["leftarrow","leftarrow","rightarrow","rightarrow"],"right_color":"orange","left_color":"lightblue","left_mu":40,"right_mu":52,"left_numbers":[45,40,48,55,49],"right_numbers":[53,49,44,69,48],"points_earned":246,"phase":"task","trial_type":"horizons-task","trial_index":27,"time_elapsed":399058,"internal_node_id":"0.0-23.0","task_version":"0.2"},{"response_times":[579.8150000628084,457.33000012114644,441.9850001577288,499.7549999970943,1202.4150001816452,1031.0000001918525,830.1200000569224,589.8549999110401,929.210000205785,574.5350001379848],"keys_pressed":["leftarrow","leftarrow","rightarrow","leftarrow","leftarrow","rightarrow","rightarrow","rightarrow","rightarrow","rightarrow"],"horizon":10,"forced_choices":["leftarrow","leftarrow","rightarrow","leftarrow"],"right_color":"lightblue","left_color":"orange","left_mu":60,"right_mu":72,"left_numbers":[60,63,52,69,65,65,50,72,70,61],"right_numbers":[75,68,73,72,73,60,66,86,78,78],"points_earned":698,"phase":"task","trial_type":"horizons-task","trial_index":28,"time_elapsed":407703,"internal_node_id":"0.0-24.0","task_version":"0.2"},{"response_times":[457.41500006988645,503.9949999190867,528.5050000529736,659.1300000436604,811.0400000587106],"keys_pressed":["rightarrow","rightarrow","leftarrow","rightarrow","leftarrow"],"horizon":5,"forced_choices":["rightarrow","rightarrow","leftarrow","rightarrow"],"right_color":"orange","left_color":"lightblue","left_mu":40,"right_mu":10,"left_numbers":[48,45,35,29,51],"right_numbers":[5,10,3,8,0],"points_earned":109,"phase":"task","trial_type":"horizons-task","trial_index":29,"time_elapsed":412173,"internal_node_id":"0.0-25.0","task_version":"0.2"},{"response_times":[646.0100000258535,422.87499993108213,560.4600000660866,494.5450001396239,1285.0550001021475],"keys_pressed":["leftarrow","rightarrow","leftarrow","leftarrow","rightarrow"],"horizon":5,"forced_choices":["leftarrow","rightarrow","leftarrow","leftarrow"],"right_color":"lightblue","left_color":"orange","left_mu":40,"right_mu":36,"left_numbers":[33,36,39,29,45],"right_numbers":[46,32,19,31,43],"points_earned":176,"phase":"task","trial_type":"horizons-task","trial_index":30,"time_elapsed":417092,"internal_node_id":"0.0-26.0","task_version":"0.2"},{"response_times":[538.1100000813603,482.6550001744181,404.83500016853213,386.2299998290837,519.2950000055134],"keys_pressed":["leftarrow","leftarrow","rightarrow","rightarrow","leftarrow"],"horizon":5,"forced_choices":["leftarrow","leftarrow","rightarrow","rightarrow"],"right_color":"orange","left_color":"lightblue","left_mu":60,"right_mu":40,"left_numbers":[57,67,51,52,46],"right_numbers":[37,47,53,39,48],"points_earned":262,"phase":"task","trial_type":"horizons-task","trial_index":31,"time_elapsed":420932,"internal_node_id":"0.0-27.0","task_version":"0.2"},{"response_times":[2160.274999914691,374.9100000131875,440.7199998386204,371.95500009693205,1272.1150000579655,1080.03000007011,731.1999998055398,733.0799999181181,540.6750000547618,887.7699999138713],"keys_pressed":["rightarrow","leftarrow","leftarrow","rightarrow","leftarrow","leftarrow","leftarrow","rightarrow","rightarrow","leftarrow"],"horizon":10,"forced_choices":["rightarrow","leftarrow","leftarrow","rightarrow"],"right_color":"lightblue","left_color":"orange","left_mu":60,"right_mu":52,"left_numbers":[58,67,57,55,63,63,49,51,51,55],"right_numbers":[46,56,54,29,45,54,56,47,54,49],"points_earned":530,"phase":"task","trial_type":"horizons-task","trial_index":32,"time_elapsed":431035,"internal_node_id":"0.0-28.0","task_version":"0.2"},{"response_times":[648.64999987185,380.9950000140816,348.7150000873953,424.8049999587238,918.6500001233071],"keys_pressed":["rightarrow","rightarrow","leftarrow","leftarrow","rightarrow"],"horizon":5,"forced_choices":["rightarrow","rightarrow","leftarrow","leftarrow"],"right_color":"orange","left_color":"lightblue","left_mu":40,"right_mu":60,"left_numbers":[48,21,50,30,39],"right_numbers":[50,56,71,53,64],"points_earned":250,"phase":"task","trial_type":"horizons-task","trial_index":33,"time_elapsed":435265,"internal_node_id":"0.0-29.0","task_version":"0.2"},{"response_times":[341.85500000603497,305.35499984398484,426.89500004053116,674.9399998225272,769.2400000523776],"keys_pressed":["rightarrow","leftarrow","leftarrow","rightarrow","leftarrow"],"horizon":5,"forced_choices":["rightarrow","leftarrow","leftarrow","rightarrow"],"right_color":"orange","left_color":"lightblue","left_mu":40,"right_mu":10,"left_numbers":[30,32,46,42,51],"right_numbers":[0,3,23,11,0],"points_earned":140,"phase":"task","trial_type":"horizons-task","trial_index":34,"time_elapsed":439293,"internal_node_id":"0.0-30.0","task_version":"0.2"},{"response_times":[446.8100001104176,287.58500004187226,337.91000000201166,384.90500021725893,978.6849999800324],"keys_pressed":["leftarrow","rightarrow","leftarrow","rightarrow","leftarrow"],"horizon":5,"forced_choices":["leftarrow","rightarrow","leftarrow","rightarrow"],"right_color":"orange","left_color":"lightblue","left_mu":60,"right_mu":30,"left_numbers":[63,55,55,70,64],"right_numbers":[35,35,16,22,21],"points_earned":239,"phase":"task","trial_type":"horizons-task","trial_index":35,"time_elapsed":443234,"internal_node_id":"0.0-31.0","task_version":"0.2"},{"response_times":[412.06500004045665,315.50000002607703,326.63000002503395,365.35999993793666,1441.8549998663366],"keys_pressed":["rightarrow","leftarrow","rightarrow","leftarrow","leftarrow"],"horizon":5,"forced_choices":["rightarrow","leftarrow","rightarrow","leftarrow"],"right_color":"lightblue","left_color":"orange","left_mu":60,"right_mu":48,"left_numbers":[54,52,58,62,60],"right_numbers":[46,49,37,68,41],"points_earned":257,"phase":"task","trial_type":"horizons-task","trial_index":36,"time_elapsed":447603,"internal_node_id":"0.0-32.0","task_version":"0.2"},{"response_times":[358.6299999151379,385.2750000078231,396.9999998807907,536.6199999116361,541.3849998731166],"keys_pressed":["rightarrow","leftarrow","rightarrow","rightarrow","rightarrow"],"horizon":5,"forced_choices":["rightarrow","leftarrow","rightarrow","rightarrow"],"right_color":"orange","left_color":"lightblue","left_mu":40,"right_mu":70,"left_numbers":[31,35,51,48,33],"right_numbers":[82,73,70,71,78],"points_earned":336,"phase":"task","trial_type":"horizons-task","trial_index":37,"time_elapsed":451325,"internal_node_id":"0.0-33.0","task_version":"0.2"},{"response_times":[377.3700001183897,268.83499999530613,713.22499983944,648.2850001193583,1270.164999878034],"keys_pressed":["rightarrow","leftarrow","leftarrow","leftarrow","rightarrow"],"horizon":5,"forced_choices":["rightarrow","leftarrow","leftarrow","leftarrow"],"right_color":"orange","left_color":"lightblue","left_mu":60,"right_mu":30,"left_numbers":[61,67,46,66,59],"right_numbers":[36,31,46,26,38],"points_earned":253,"phase":"task","trial_type":"horizons-task","trial_index":38,"time_elapsed":456111,"internal_node_id":"0.0-34.0","task_version":"0.2"},{"response_times":[461.9900002144277,247.05499992705882,333.7250000331551,292.7800000179559,416.8400000780821,994.6500000078231,422.7399998344481,583.1899999175221,376.13500002771616,1256.359999999404],"keys_pressed":["leftarrow","rightarrow","leftarrow","rightarrow","leftarrow","rightarrow","rightarrow","rightarrow","rightarrow","rightarrow"],"horizon":10,"forced_choices":["leftarrow","rightarrow","leftarrow","rightarrow"],"right_color":"orange","left_color":"lightblue","left_mu":60,"right_mu":30,"left_numbers":[57,57,61,62,57,46,52,55,53,59],"right_numbers":[35,16,33,15,19,26,27,34,35,35],"points_earned":363,"phase":"task","trial_type":"horizons-task","trial_index":39,"time_elapsed":462997,"internal_node_id":"0.0-35.0","task_version":"0.2"},{"response_times":[577.0100001245737,511.1299999989569,350.8000001311302,521.2749999482185,1868.9399999566376,414.45499984547496,394.76500009186566,395.2049999497831,399.77499982342124,336.4550000987947],"keys_pressed":["leftarrow","leftarrow","rightarrow","leftarrow","rightarrow","rightarrow","rightarrow","rightarrow","rightarrow","rightarrow"],"horizon":10,"forced_choices":["leftarrow","leftarrow","rightarrow","leftarrow"],"right_color":"orange","left_color":"lightblue","left_mu":40,"right_mu":52,"left_numbers":[43,41,34,29,50,46,33,40,34,43],"right_numbers":[53,50,49,53,61,53,49,57,39,47],"points_earned":468,"phase":"task","trial_type":"horizons-task","trial_index":40,"time_elapsed":470275,"internal_node_id":"0.0-36.0","task_version":"0.2"},{"response_times":[426.81999993510544,400.46999999322,788.5249999817461,528.0549998860806,889.0050000045449,457.5900000054389,510.1050001103431,306.1100000049919,274.8500001616776,260.6099999975413],"keys_pressed":["leftarrow","leftarrow","leftarrow","rightarrow","rightarrow","rightarrow","rightarrow","rightarrow","rightarrow","rightarrow"],"horizon":10,"forced_choices":["leftarrow","leftarrow","leftarrow","rightarrow"],"right_color":"orange","left_color":"lightblue","left_mu":40,"right_mu":60,"left_numbers":[31,30,38,37,42,38,38,34,32,38],"right_numbers":[52,44,41,66,61,52,56,58,54,48],"points_earned":494,"phase":"task","trial_type":"horizons-task","trial_index":41,"time_elapsed":476629,"internal_node_id":"0.0-37.0","task_version":"0.2"},{"response_times":[424.3699999060482,321.82499999180436,297.67500003799796,403.48000009544194,687.3449999839067,227.710000006482,184.73000009544194,207.39500015042722,401.8049999140203,268.30999995581806],"keys_pressed":["leftarrow","rightarrow","leftarrow","rightarrow","rightarrow","rightarrow","rightarrow","rightarrow","rightarrow","rightarrow"],"horizon":10,"forced_choices":["leftarrow","rightarrow","leftarrow","rightarrow"],"right_color":"orange","left_color":"lightblue","left_mu":40,"right_mu":70,"left_numbers":[33,45,42,46,42,39,38,35,32,46],"right_numbers":[71,68,76,70,70,69,81,70,67,59],"points_earned":629,"phase":"task","trial_type":"horizons-task","trial_index":42,"time_elapsed":481569,"internal_node_id":"0.0-38.0","task_version":"0.2"},{"response_times":[366.0599999129772,615.1449999306351,466.6899999137968,380.7049999013543,505.09499991312623],"keys_pressed":["leftarrow","leftarrow","leftarrow","rightarrow","rightarrow"],"horizon":5,"forced_choices":["leftarrow","leftarrow","leftarrow","rightarrow"],"right_color":"orange","left_color":"lightblue","left_mu":40,"right_mu":60,"left_numbers":[51,36,39,41,38],"right_numbers":[59,43,64,66,60],"points_earned":252,"phase":"task","trial_type":"horizons-task","trial_index":43,"time_elapsed":485410,"internal_node_id":"0.0-39.0","task_version":"0.2"},{"response_times":[509.70999989658594,324.9749999959022,450.75000007636845,604.9999999813735,1455.4500000085682],"keys_pressed":["leftarrow","rightarrow","rightarrow","leftarrow","rightarrow"],"horizon":5,"forced_choices":["leftarrow","rightarrow","rightarrow","leftarrow"],"right_color":"lightblue","left_color":"orange","left_mu":40,"right_mu":44,"left_numbers":[26,36,47,32,28],"right_numbers":[62,27,49,43,44],"points_earned":178,"phase":"task","trial_type":"horizons-task","trial_index":44,"time_elapsed":490259,"internal_node_id":"0.0-40.0","task_version":"0.2"},{"response_times":[459.4999998807907,271.94499992765486,434.2100000940263,358.02499996498227,1331.8450001534075,365.40000000968575,300.48999981954694,280.50000010989606,284.69500015489757,336.7250000592321],"keys_pressed":["rightarrow","leftarrow","leftarrow","leftarrow","leftarrow","leftarrow","leftarrow","leftarrow","leftarrow","leftarrow"],"horizon":10,"forced_choices":["rightarrow","leftarrow","leftarrow","leftarrow"],"right_color":"lightblue","left_color":"orange","left_mu":60,"right_mu":48,"left_numbers":[51,49,58,60,60,53,61,54,46,62],"right_numbers":[53,32,47,53,52,52,41,35,50,59],"points_earned":556,"phase":"task","trial_type":"horizons-task","trial_index":45,"time_elapsed":496190,"internal_node_id":"0.0-41.0","task_version":"0.2"},{"response_times":[483.35999995470047,327.92999991215765,355.4549999535084,380.5699998047203,1075.6000000983477,331.66999998502433,566.6000000201166,726.77499987185,180.84000004455447,169.40000001341105],"keys_pressed":["rightarrow","leftarrow","leftarrow","leftarrow","leftarrow","leftarrow","rightarrow","leftarrow","leftarrow","leftarrow"],"horizon":10,"forced_choices":["rightarrow","leftarrow","leftarrow","leftarrow"],"right_color":"lightblue","left_color":"orange","left_mu":40,"right_mu":28,"left_numbers":[40,50,37,35,38,48,42,38,27,33],"right_numbers":[12,33,35,38,21,18,23,25,26,21],"points_earned":341,"phase":"task","trial_type":"horizons-task","trial_index":46,"time_elapsed":502294,"internal_node_id":"0.0-42.0","task_version":"0.2"},{"response_times":[472.61499986052513,331.78999996744096,334.5900001004338,542.6650000736117,1345.2800000086427,436.9100001640618,302.1750000771135,243.78499994054437,241.2250000052154,280.8649998623878],"keys_pressed":["rightarrow","leftarrow","rightarrow","rightarrow","leftarrow","leftarrow","leftarrow","leftarrow","leftarrow","leftarrow"],"horizon":10,"forced_choices":["rightarrow","leftarrow","rightarrow","rightarrow"],"right_color":"lightblue","left_color":"orange","left_mu":60,"right_mu":52,"left_numbers":[63,57,68,53,67,68,55,70,62,57],"right_numbers":[49,60,46,54,37,41,64,56,45,54],"points_earned":585,"phase":"task","trial_type":"horizons-task","trial_index":47,"time_elapsed":508336,"internal_node_id":"0.0-43.0","task_version":"0.2"},{"response_times":[390.48999990336597,636.3850000780076,789.4999999552965,736.975000007078,1303.0900000594556,880.1450000610203,578.5199999809265,269.39999987371266,221.02499986067414,226.07499989680946],"keys_pressed":["leftarrow","leftarrow","rightarrow","leftarrow","leftarrow","rightarrow","leftarrow","leftarrow","leftarrow","leftarrow"],"horizon":10,"forced_choices":["leftarrow","leftarrow","rightarrow","leftarrow"],"right_color":"lightblue","left_color":"orange","left_mu":40,"right_mu":20,"left_numbers":[37,41,56,36,43,44,43,40,31,34],"right_numbers":[25,27,36,12,30,24,24,13,23,13],"points_earned":365,"phase":"task","trial_type":"horizons-task","trial_index":48,"time_elapsed":515875,"internal_node_id":"0.0-44.0","task_version":"0.2"},{"response_times":[358.42499998398125,298.6999999266118,438.25999996624887,390.5899999663234,587.88500004448],"keys_pressed":["leftarrow","rightarrow","rightarrow","rightarrow","rightarrow"],"horizon":5,"forced_choices":["leftarrow","rightarrow","rightarrow","rightarrow"],"right_color":"lightblue","left_color":"orange","left_mu":40,"right_mu":48,"left_numbers":[33,51,33,46,37],"right_numbers":[54,51,35,50,50],"points_earned":219,"phase":"task","trial_type":"horizons-task","trial_index":49,"time_elapsed":519466,"internal_node_id":"0.0-45.0","task_version":"0.2"},{"response_times":[369.3999999668449,334.7849999554455,359.90999988280237,395.0950000435114,1882.7049999963492,511.74500002525747,400.3800000064075,378.7649997975677,728.415000019595,418.89000008814037],"keys_pressed":["rightarrow","leftarrow","rightarrow","leftarrow","leftarrow","leftarrow","leftarrow","rightarrow","leftarrow","leftarrow"],"horizon":10,"forced_choices":["rightarrow","leftarrow","rightarrow","leftarrow"],"right_color":"lightblue","left_color":"orange","left_mu":40,"right_mu":28,"left_numbers":[37,34,50,37,39,36,38,35,49,46],"right_numbers":[45,23,30,20,31,26,26,33,22,20],"points_earned":387,"phase":"task","trial_type":"horizons-task","trial_index":50,"time_elapsed":526758,"internal_node_id":"0.0-46.0","task_version":"0.2"},{"view_history":"[{\"page_index\":0,\"viewing_time\":2692.0749999117106},{\"page_index\":1,\"viewing_time\":1581.030000001192}]","rt":4273.7900000065565,"trial_type":"instructions","trial_index":51,"time_elapsed":531033,"internal_node_id":"0.0-47.0","task_version":"0.2"},{"response_times":[598.0599999893457,463.59500009566545,519.3950000684708,591.359999962151,582.3550000786781],"keys_pressed":["leftarrow","leftarrow","rightarrow","leftarrow","rightarrow"],"horizon":5,"forced_choices":["leftarrow","leftarrow","rightarrow","leftarrow"],"right_color":"orange","left_color":"lightblue","left_mu":40,"right_mu":52,"left_numbers":[45,44,42,46,42],"right_numbers":[42,50,60,55,55],"points_earned":250,"phase":"task","trial_type":"horizons-task","trial_index":52,"time_elapsed":535302,"internal_node_id":"0.0-48.0","task_version":"0.2"},{"response_times":[433.37500002235174,443.3949999511242,624.3749998975545,489.3900000024587,465.91500006616116],"keys_pressed":["rightarrow","rightarrow","leftarrow","rightarrow","rightarrow"],"horizon":5,"forced_choices":["rightarrow","rightarrow","leftarrow","rightarrow"],"right_color":"lightblue","left_color":"orange","left_mu":60,"right_mu":80,"left_numbers":[63,63,52,51,44],"right_numbers":[80,80,73,92,70],"points_earned":374,"phase":"task","trial_type":"horizons-task","trial_index":53,"time_elapsed":539268,"internal_node_id":"0.0-49.0","task_version":"0.2"},{"response_times":[393.9149999059737,400.89499996975064,430.0649999640882,400.85499989800155,1139.4849999342114,364.29499997757375,368.9399999566376,299.1349999792874,532.2050000540912,789.7899998351932],"keys_pressed":["rightarrow","leftarrow","leftarrow","leftarrow","leftarrow","leftarrow","leftarrow","leftarrow","rightarrow","leftarrow"],"horizon":10,"forced_choices":["rightarrow","leftarrow","leftarrow","leftarrow"],"right_color":"orange","left_color":"lightblue","left_mu":60,"right_mu":30,"left_numbers":[56,65,52,52,67,71,59,64,66,68],"right_numbers":[28,11,35,52,33,20,11,24,34,33],"points_earned":560,"phase":"task","trial_type":"horizons-task","trial_index":54,"time_elapsed":545903,"internal_node_id":"0.0-50.0","task_version":"0.2"},{"response_times":[627.4350001476705,402.765000006184,496.0950000677258,537.2649999335408,420.769999967888,1595.8300000056624,285.29000002890825,197.03999999910593,698.8899998832494,356.5750000998378],"keys_pressed":["rightarrow","rightarrow","rightarrow","leftarrow","leftarrow","leftarrow","leftarrow","leftarrow","leftarrow","leftarrow"],"horizon":10,"forced_choices":["rightarrow","rightarrow","rightarrow","leftarrow"],"right_color":"lightblue","left_color":"orange","left_mu":60,"right_mu":56,"left_numbers":[56,62,71,51,63,40,58,66,63,64],"right_numbers":[56,54,38,57,72,44,62,63,62,52],"points_earned":553,"phase":"task","trial_type":"horizons-task","trial_index":55,"time_elapsed":553029,"internal_node_id":"0.0-51.0","task_version":"0.2"},{"response_times":[490.5600000638515,383.21999995969236,471.82500013150275,483.6299999151379,1607.7300000470132],"keys_pressed":["leftarrow","leftarrow","leftarrow","rightarrow","rightarrow"],"horizon":5,"forced_choices":["leftarrow","leftarrow","leftarrow","rightarrow"],"right_color":"orange","left_color":"lightblue","left_mu":60,"right_mu":68,"left_numbers":[58,60,49,71,66],"right_numbers":[68,63,62,66,70],"points_earned":303,"phase":"task","trial_type":"horizons-task","trial_index":56,"time_elapsed":557977,"internal_node_id":"0.0-52.0","task_version":"0.2"},{"response_times":[416.1100001074374,272.8500000666827,445.7399998791516,447.21500016748905,533.144999993965,403.77500001341105,318.58500000089407,243.8049998600036,241.24499992467463,363.95999998785555],"keys_pressed":["rightarrow","leftarrow","rightarrow","leftarrow","rightarrow","rightarrow","rightarrow","rightarrow","rightarrow","rightarrow"],"horizon":10,"forced_choices":["rightarrow","leftarrow","rightarrow","leftarrow"],"right_color":"lightblue","left_color":"orange","left_mu":60,"right_mu":72,"left_numbers":[55,65,72,57,49,45,53,59,62,74],"right_numbers":[78,74,84,62,77,77,87,75,67,66],"points_earned":733,"phase":"task","trial_type":"horizons-task","trial_index":57,"time_elapsed":563173,"internal_node_id":"0.0-53.0","task_version":"0.2"},{"response_times":[491.80499999783933,329.9499999266118,412.914999993518,585.1850002072752,837.5349999405444,322.18499993905425,325.44999988749623,285.7450000010431,634.7399998921901,1204.4699999969453],"keys_pressed":["leftarrow","rightarrow","rightarrow","leftarrow","rightarrow","rightarrow","rightarrow","rightarrow","leftarrow","leftarrow"],"horizon":10,"forced_choices":["leftarrow","rightarrow","rightarrow","leftarrow"],"right_color":"lightblue","left_color":"orange","left_mu":40,"right_mu":44,"left_numbers":[46,31,55,35,39,53,41,32,39,45],"right_numbers":[31,56,44,32,41,48,34,31,46,48],"points_earned":419,"phase":"task","trial_type":"horizons-task","trial_index":58,"time_elapsed":570113,"internal_node_id":"0.0-54.0","task_version":"0.2"},{"response_times":[424.18000008910894,301.5149999409914,453.66499992087483,498.58999997377396,424.7200000099838,793.620000127703,539.9949999991804,558.6049999110401,286.00999992340803,266.4199999999255],"keys_pressed":["leftarrow","rightarrow","rightarrow","rightarrow","leftarrow","rightarrow","leftarrow","rightarrow","rightarrow","rightarrow"],"horizon":10,"forced_choices":["leftarrow","rightarrow","rightarrow","rightarrow"],"right_color":"lightblue","left_color":"orange","left_mu":40,"right_mu":44,"left_numbers":[32,41,45,36,38,22,40,33,43,37],"right_numbers":[49,67,48,40,32,45,64,43,56,35],"points_earned":444,"phase":"task","trial_type":"horizons-task","trial_index":59,"time_elapsed":576166,"internal_node_id":"0.0-55.0","task_version":"0.2"},{"response_times":[456.1799999792129,456.29499992355704,431.319999974221,441.8600001372397,730.320000089705,387.5349999871105,356.8949999753386,952.2750000469387,554.8100001178682,144.71499994397163],"keys_pressed":["rightarrow","rightarrow","rightarrow","leftarrow","leftarrow","leftarrow","leftarrow","rightarrow","leftarrow","leftarrow"],"horizon":10,"forced_choices":["rightarrow","rightarrow","rightarrow","leftarrow"],"right_color":"orange","left_color":"lightblue","left_mu":60,"right_mu":40,"left_numbers":[56,55,50,65,53,64,64,69,60,55],"right_numbers":[39,41,39,45,34,44,41,29,40,31],"points_earned":509,"phase":"task","trial_type":"horizons-task","trial_index":60,"time_elapsed":582582,"internal_node_id":"0.0-56.0","task_version":"0.2"},{"response_times":[539.2149998806417,627.7399999089539,618.1850000284612,697.7800000458956,408.7199999485165],"keys_pressed":["leftarrow","leftarrow","rightarrow","rightarrow","rightarrow"],"horizon":5,"forced_choices":["leftarrow","leftarrow","rightarrow","rightarrow"],"right_color":"lightblue","left_color":"orange","left_mu":40,"right_mu":48,"left_numbers":[44,40,29,36,49],"right_numbers":[52,51,53,42,41],"points_earned":220,"phase":"task","trial_type":"horizons-task","trial_index":61,"time_elapsed":586978,"internal_node_id":"0.0-57.0","task_version":"0.2"},{"response_times":[476.52000002563,466.81999997235835,688.7650000862777,521.3500000536442,549.5299999602139,172.77500010095537,182.4150001630187,189.1050001140684,105.14499992132187,431.16499995812774],"keys_pressed":["rightarrow","rightarrow","leftarrow","rightarrow","rightarrow","rightarrow","rightarrow","rightarrow","rightarrow","rightarrow"],"horizon":10,"forced_choices":["rightarrow","rightarrow","leftarrow","rightarrow"],"right_color":"lightblue","left_color":"orange","left_mu":60,"right_mu":80,"left_numbers":[66,48,45,48,61,45,47,69,58,50],"right_numbers":[65,76,91,90,69,76,84,100,73,80],"points_earned":758,"phase":"task","trial_type":"horizons-task","trial_index":62,"time_elapsed":592272,"internal_node_id":"0.0-58.0","task_version":"0.2"},{"response_times":[433.7400000076741,263.89500009827316,429.9449999816716,734.4299999531358,514.6500000264496],"keys_pressed":["rightarrow","leftarrow","leftarrow","rightarrow","leftarrow"],"horizon":5,"forced_choices":["rightarrow","leftarrow","leftarrow","rightarrow"],"right_color":"lightblue","left_color":"orange","left_mu":60,"right_mu":52,"left_numbers":[55,64,60,54,60],"right_numbers":[48,52,50,39,46],"points_earned":271,"phase":"task","trial_type":"horizons-task","trial_index":63,"time_elapsed":596155,"internal_node_id":"0.0-59.0","task_version":"0.2"},{"response_times":[383.475000038743,541.630000108853,660.3900000918657,430.0550001207739,796.2749998550862],"keys_pressed":["rightarrow","leftarrow","leftarrow","rightarrow","leftarrow"],"horizon":5,"forced_choices":["rightarrow","leftarrow","leftarrow","rightarrow"],"right_color":"lightblue","left_color":"orange","left_mu":40,"right_mu":20,"left_numbers":[32,49,42,47,44],"right_numbers":[19,27,5,22,19],"points_earned":176,"phase":"task","trial_type":"horizons-task","trial_index":64,"time_elapsed":600471,"internal_node_id":"0.0-60.0","task_version":"0.2"},{"response_times":[426.8900000024587,299.97999989427626,373.12999996356666,777.7449998538941,404.8699999693781,301.25000001862645,193.2150002103299,303.4749999642372,165.90999998152256,288.5199999436736],"keys_pressed":["leftarrow","rightarrow","rightarrow","leftarrow","rightarrow","rightarrow","rightarrow","rightarrow","rightarrow","rightarrow"],"horizon":10,"forced_choices":["leftarrow","rightarrow","rightarrow","leftarrow"],"right_color":"orange","left_color":"lightblue","left_mu":60,"right_mu":90,"left_numbers":[68,55,59,46,50,62,60,64,69,54],"right_numbers":[76,97,100,84,78,87,89,91,78,87],"points_earned":821,"phase":"task","trial_type":"horizons-task","trial_index":65,"time_elapsed":605509,"internal_node_id":"0.0-61.0","task_version":"0.2"},{"response_times":[364.77999994531274,417.70000010728836,313.5450000409037,376.0450000409037,1074.104999890551,576.8149998039007,554.4600000139326,181.36000004597008,163.30000013113022,157.91999991051853],"keys_pressed":["leftarrow","leftarrow","rightarrow","rightarrow","leftarrow","rightarrow","rightarrow","rightarrow","rightarrow","rightarrow"],"horizon":10,"forced_choices":["leftarrow","leftarrow","rightarrow","rightarrow"],"right_color":"lightblue","left_color":"orange","left_mu":40,"right_mu":48,"left_numbers":[47,52,30,31,34,43,49,30,39,41],"right_numbers":[39,50,46,45,56,50,67,53,46,49],"points_earned":489,"phase":"task","trial_type":"horizons-task","trial_index":66,"time_elapsed":611196,"internal_node_id":"0.0-62.0","task_version":"0.2"},{"response_times":[397.21999992616475,288.050000090152,407.34000015072525,359.27500016987324,463.4650000371039],"keys_pressed":["leftarrow","rightarrow","rightarrow","rightarrow","rightarrow"],"horizon":5,"forced_choices":["leftarrow","rightarrow","rightarrow","rightarrow"],"right_color":"orange","left_color":"lightblue","left_mu":60,"right_mu":90,"left_numbers":[71,54,58,56,69],"right_numbers":[101,98,85,103,96],"points_earned":453,"phase":"task","trial_type":"horizons-task","trial_index":67,"time_elapsed":614622,"internal_node_id":"0.0-63.0","task_version":"0.2"},{"response_times":[402.79999980702996,443.88499995693564,373.4799998346716,365.37500005215406,1389.570000115782,458.6400000844151,967.6500000059605,526.6050000209361,533.1499997992069,283.9549998752773],"keys_pressed":["rightarrow","rightarrow","leftarrow","leftarrow","rightarrow","leftarrow","rightarrow","leftarrow","rightarrow","rightarrow"],"horizon":10,"forced_choices":["rightarrow","rightarrow","leftarrow","leftarrow"],"right_color":"lightblue","left_color":"orange","left_mu":40,"right_mu":36,"left_numbers":[40,42,40,42,44,36,51,34,55,46],"right_numbers":[49,44,35,30,39,32,44,37,45,29],"points_earned":402,"phase":"task","trial_type":"horizons-task","trial_index":68,"time_elapsed":621874,"internal_node_id":"0.0-64.0","task_version":"0.2"},{"response_times":[465.68500017747283,404.09000008367,372.77999985963106,556.879999814555,455.0900000613183],"keys_pressed":["leftarrow","leftarrow","rightarrow","leftarrow","leftarrow"],"horizon":5,"forced_choices":["leftarrow","leftarrow","rightarrow","leftarrow"],"right_color":"lightblue","left_color":"orange","left_mu":40,"right_mu":20,"left_numbers":[47,35,42,51,29],"right_numbers":[12,25,7,14,33],"points_earned":169,"phase":"task","trial_type":"horizons-task","trial_index":69,"time_elapsed":625640,"internal_node_id":"0.0-65.0","task_version":"0.2"},{"response_times":[429.0599999949336,426.1700001079589,561.699999962002,345.16000002622604,1458.8049999438226],"keys_pressed":["rightarrow","rightarrow","rightarrow","leftarrow","rightarrow"],"horizon":5,"forced_choices":["rightarrow","rightarrow","rightarrow","leftarrow"],"right_color":"lightblue","left_color":"orange","left_mu":60,"right_mu":56,"left_numbers":[67,68,64,58,73],"right_numbers":[63,59,66,56,56],"points_earned":302,"phase":"task","trial_type":"horizons-task","trial_index":70,"time_elapsed":630371,"internal_node_id":"0.0-66.0","task_version":"0.2"},{"response_times":[429.23000012524426,544.9050001334399,522.6849999744445,716.3849999196827,1955.779999960214,768.5799999162555,283.12999987974763,186.53999990783632,180.2900000475347,225.9599999524653],"keys_pressed":["rightarrow","rightarrow","leftarrow","rightarrow","rightarrow","leftarrow","leftarrow","leftarrow","leftarrow","leftarrow"],"horizon":10,"forced_choices":["rightarrow","rightarrow","leftarrow","rightarrow"],"right_color":"orange","left_color":"lightblue","left_mu":40,"right_mu":10,"left_numbers":[42,39,34,30,37,49,31,45,38,32],"right_numbers":[9,1,17,9,18,16,11,23,16,14],"points_earned":266,"phase":"task","trial_type":"horizons-task","trial_index":71,"time_elapsed":637692,"internal_node_id":"0.0-67.0","task_version":"0.2"},{"response_times":[449.2649999447167,435.2649999782443,322.51999992877245,363.87500003911555,689.0800001565367],"keys_pressed":["rightarrow","rightarrow","leftarrow","leftarrow","rightarrow"],"horizon":5,"forced_choices":["rightarrow","rightarrow","leftarrow","leftarrow"],"right_color":"lightblue","left_color":"orange","left_mu":40,"right_mu":36,"left_numbers":[43,52,35,36,37],"right_numbers":[41,33,32,44,28],"points_earned":173,"phase":"task","trial_type":"horizons-task","trial_index":72,"time_elapsed":641459,"internal_node_id":"0.0-68.0","task_version":"0.2"},{"response_times":[463.3400000166148,347.2100000362843,372.54499993287027,407.4450000189245,526.3999998569489,177.66999988816679,159.7599999513477,268.22500000707805,157.60000003501773,139.04999988153577],"keys_pressed":["leftarrow","rightarrow","leftarrow","rightarrow","rightarrow","rightarrow","rightarrow","rightarrow","rightarrow","rightarrow"],"horizon":10,"forced_choices":["leftarrow","rightarrow","leftarrow","rightarrow"],"right_color":"lightblue","left_color":"orange","left_mu":60,"right_mu":80,"left_numbers":[55,63,46,44,56,46,62,72,49,51],"right_numbers":[100,82,77,67,81,75,88,82,74,86],"points_earned":736,"phase":"task","trial_type":"horizons-task","trial_index":73,"time_elapsed":645983,"internal_node_id":"0.0-69.0","task_version":"0.2"},{"response_times":[419.8050000704825,399.9949998687953,348.340000025928,413.7200000695884,991.9400000944734,847.0199999865144,424.9800001271069,149.02999997138977,159.650000045076,192.62999994680285],"keys_pressed":["leftarrow","leftarrow","rightarrow","rightarrow","leftarrow","rightarrow","leftarrow","leftarrow","leftarrow","leftarrow"],"horizon":10,"forced_choices":["leftarrow","leftarrow","rightarrow","rightarrow"],"right_color":"orange","left_color":"lightblue","left_mu":60,"right_mu":40,"left_numbers":[48,59,59,60,42,78,57,69,54,68],"right_numbers":[29,32,38,51,49,37,31,54,43,41],"points_earned":523,"phase":"task","trial_type":"horizons-task","trial_index":74,"time_elapsed":651835,"internal_node_id":"0.0-70.0","task_version":"0.2"},{"response_times":[377.2799998987466,332.179999910295,317.3450001049787,740.5300000682473,500.5200000014156],"keys_pressed":["rightarrow","leftarrow","rightarrow","leftarrow","rightarrow"],"horizon":5,"forced_choices":["rightarrow","leftarrow","rightarrow","leftarrow"],"right_color":"lightblue","left_color":"orange","left_mu":40,"right_mu":28,"left_numbers":[44,18,35,43,33],"right_numbers":[38,46,36,22,32],"points_earned":167,"phase":"task","trial_type":"horizons-task","trial_index":75,"time_elapsed":655613,"internal_node_id":"0.0-71.0","task_version":"0.2"},{"response_times":[429.49499981477857,359.77499978616834,345.2250000555068,501.4249999076128,523.1149999890476],"keys_pressed":["leftarrow","rightarrow","leftarrow","leftarrow","leftarrow"],"horizon":5,"forced_choices":["leftarrow","rightarrow","leftarrow","leftarrow"],"right_color":"orange","left_color":"lightblue","left_mu":40,"right_mu":32,"left_numbers":[56,30,48,45,41],"right_numbers":[29,36,38,31,34],"points_earned":226,"phase":"task","trial_type":"horizons-task","trial_index":76,"time_elapsed":659277,"internal_node_id":"0.0-72.0","task_version":"0.2"},{"response_times":[436.9149999693036,430.80500001087785,359.6250000409782,561.930000083521,717.4599999561906],"keys_pressed":["rightarrow","rightarrow","leftarrow","rightarrow","rightarrow"],"horizon":5,"forced_choices":["rightarrow","rightarrow","leftarrow","rightarrow"],"right_color":"orange","left_color":"lightblue","left_mu":60,"right_mu":64,"left_numbers":[63,59,54,65,51],"right_numbers":[53,50,64,68,70],"points_earned":295,"phase":"task","trial_type":"horizons-task","trial_index":77,"time_elapsed":663293,"internal_node_id":"0.0-73.0","task_version":"0.2"},{"response_times":[310.6900001876056,307.66000016592443,472.14500000700355,624.5099999941885,229.47499994188547],"keys_pressed":["leftarrow","rightarrow","rightarrow","leftarrow","rightarrow"],"horizon":5,"forced_choices":["leftarrow","rightarrow","rightarrow","leftarrow"],"right_color":"orange","left_color":"lightblue","left_mu":60,"right_mu":90,"left_numbers":[62,53,51,63,61],"right_numbers":[86,96,118,95,81],"points_earned":420,"phase":"task","trial_type":"horizons-task","trial_index":78,"time_elapsed":666749,"internal_node_id":"0.0-74.0","task_version":"0.2"},{"response_times":[379.71000000834465,223.06500002741814,206.6999999806285,431.5149998292327,2298.8299999851733,397.8500000666827,596.6849999967963,749.6200001332909,949.5050001423806,592.160000000149],"keys_pressed":["rightarrow","leftarrow","rightarrow","leftarrow","leftarrow","leftarrow","rightarrow","rightarrow","rightarrow","leftarrow"],"horizon":10,"forced_choices":["rightarrow","leftarrow","rightarrow","leftarrow"],"right_color":"lightblue","left_color":"orange","left_mu":60,"right_mu":48,"left_numbers":[57,69,53,58,70,50,61,74,66,62],"right_numbers":[36,47,56,42,51,56,60,62,49,40],"points_earned":572,"phase":"task","trial_type":"horizons-task","trial_index":79,"time_elapsed":675085,"internal_node_id":"0.0-75.0","task_version":"0.2"},{"response_times":[354.91500003263354,257.8100000973791,505.5949999950826,520.920000039041,346.6700001154095,955.7950000744313,200.05499990656972,177.7049999218434,174.69000001437962,162.464999826625],"keys_pressed":["rightarrow","leftarrow","leftarrow","rightarrow","leftarrow","leftarrow","leftarrow","leftarrow","leftarrow","leftarrow"],"horizon":10,"forced_choices":["rightarrow","leftarrow","leftarrow","rightarrow"],"right_color":"orange","left_color":"lightblue","left_mu":40,"right_mu":10,"left_numbers":[40,38,29,47,36,45,32,35,50,44],"right_numbers":[0,7,6,6,21,16,16,10,18,29],"points_earned":315,"phase":"task","trial_type":"horizons-task","trial_index":80,"time_elapsed":680253,"internal_node_id":"0.0-76.0","task_version":"0.2"},{"response_times":[413.9600000344217,173.99000003933907,645.435000071302,437.86499998532236,887.0099999476224],"keys_pressed":["leftarrow","rightarrow","rightarrow","rightarrow","rightarrow"],"horizon":5,"forced_choices":["leftarrow","rightarrow","rightarrow","rightarrow"],"right_color":"lightblue","left_color":"orange","left_mu":40,"right_mu":44,"left_numbers":[32,28,45,33,51],"right_numbers":[40,54,37,39,30],"points_earned":192,"phase":"task","trial_type":"horizons-task","trial_index":81,"time_elapsed":684319,"internal_node_id":"0.0-77.0","task_version":"0.2"},{"response_times":[493.9249998424202,526.2700000312179,422.28000005707145,392.69500016234815,560.4899998288602,361.87499994412065,396.71500003896654,335.7100000139326,240.11499993503094,246.06000003404915],"keys_pressed":["leftarrow","leftarrow","leftarrow","rightarrow","rightarrow","rightarrow","rightarrow","rightarrow","rightarrow","rightarrow"],"horizon":10,"forced_choices":["leftarrow","leftarrow","leftarrow","rightarrow"],"right_color":"orange","left_color":"lightblue","left_mu":60,"right_mu":68,"left_numbers":[60,64,66,54,60,65,54,51,60,53],"right_numbers":[64,74,67,75,62,75,89,56,75,71],"points_earned":693,"phase":"task","trial_type":"horizons-task","trial_index":82,"time_elapsed":689800,"internal_node_id":"0.0-78.0","task_version":"0.2"},{"response_times":[453.4950000233948,452.4300000630319,338.85499997995794,406.3400002196431,790.389999980107,321.16499985568225,407.8800000716001,276.78000018931925,198.80500016734004,389.8300000000745],"keys_pressed":["rightarrow","rightarrow","leftarrow","leftarrow","rightarrow","rightarrow","rightarrow","rightarrow","rightarrow","rightarrow"],"horizon":10,"forced_choices":["rightarrow","rightarrow","leftarrow","leftarrow"],"right_color":"orange","left_color":"lightblue","left_mu":60,"right_mu":68,"left_numbers":[72,68,54,59,63,66,83,68,62,61],"right_numbers":[70,57,76,61,64,68,65,64,75,72],"points_earned":648,"phase":"task","trial_type":"horizons-task","trial_index":83,"time_elapsed":695343,"internal_node_id":"0.0-79.0","task_version":"0.2"},{"response_times":[451.0800000280142,209.874999942258,393.8649999909103,396.41500008292496,796.1949999444187],"keys_pressed":["rightarrow","leftarrow","leftarrow","leftarrow","leftarrow"],"horizon":5,"forced_choices":["rightarrow","leftarrow","leftarrow","leftarrow"],"right_color":"lightblue","left_color":"orange","left_mu":60,"right_mu":48,"left_numbers":[43,60,53,62,55],"right_numbers":[44,55,43,29,49],"points_earned":274,"phase":"task","trial_type":"horizons-task","trial_index":84,"time_elapsed":699101,"internal_node_id":"0.0-80.0","task_version":"0.2"},{"response_times":[433.530000038445,281.11499990336597,351.43499984405935,363.21499990299344,410.6050000991672],"keys_pressed":["leftarrow","rightarrow","leftarrow","rightarrow","rightarrow"],"horizon":5,"forced_choices":["leftarrow","rightarrow","leftarrow","rightarrow"],"right_color":"orange","left_color":"lightblue","left_mu":40,"right_mu":70,"left_numbers":[51,35,35,41,38],"right_numbers":[79,76,62,80,67],"points_earned":309,"phase":"task","trial_type":"horizons-task","trial_index":85,"time_elapsed":702448,"internal_node_id":"0.0-81.0","task_version":"0.2"},{"response_times":[416.95500002242625,407.60499984025955,320.0850000139326,698.9299999549985,589.9349998217076],"keys_pressed":["leftarrow","leftarrow","rightarrow","leftarrow","rightarrow"],"horizon":5,"forced_choices":["leftarrow","leftarrow","rightarrow","leftarrow"],"right_color":"lightblue","left_color":"orange","left_mu":60,"right_mu":72,"left_numbers":[54,56,56,61,56],"right_numbers":[80,63,71,81,70],"points_earned":312,"phase":"task","trial_type":"horizons-task","trial_index":86,"time_elapsed":706392,"internal_node_id":"0.0-82.0","task_version":"0.2"},{"response_times":[366.5650000330061,283.0900000408292,496.1749999783933,369.0899999346584,966.6949999518692],"keys_pressed":["leftarrow","rightarrow","leftarrow","rightarrow","leftarrow"],"horizon":5,"forced_choices":["leftarrow","rightarrow","leftarrow","rightarrow"],"right_color":"orange","left_color":"lightblue","left_mu":40,"right_mu":32,"left_numbers":[31,44,34,24,42],"right_numbers":[26,30,38,25,36],"points_earned":162,"phase":"task","trial_type":"horizons-task","trial_index":87,"time_elapsed":710383,"internal_node_id":"0.0-83.0","task_version":"0.2"},{"response_times":[448.2599999755621,311.3700000103563,407.2399998549372,455.43499989435077,378.9250000845641],"keys_pressed":["rightarrow","leftarrow","leftarrow","rightarrow","leftarrow"],"horizon":5,"forced_choices":["rightarrow","leftarrow","leftarrow","rightarrow"],"right_color":"lightblue","left_color":"orange","left_mu":60,"right_mu":56,"left_numbers":[72,54,61,52,47],"right_numbers":[53,57,55,42,64],"points_earned":257,"phase":"task","trial_type":"horizons-task","trial_index":88,"time_elapsed":713891,"internal_node_id":"0.0-84.0","task_version":"0.2"},{"response_times":[371.93500017747283,299.62499998509884,452.86999992094934,371.5749999973923,354.0099998936057,328.84999993257225,146.3099999818951,132.53999990411103,138.31999991089106,127.49999994412065],"keys_pressed":["leftarrow","rightarrow","rightarrow","rightarrow","rightarrow","rightarrow","rightarrow","rightarrow","rightarrow","rightarrow"],"horizon":10,"forced_choices":["leftarrow","rightarrow","rightarrow","rightarrow"],"right_color":"orange","left_color":"lightblue","left_mu":60,"right_mu":90,"left_numbers":[69,65,58,56,60,66,52,70,68,67],"right_numbers":[87,106,95,89,93,92,87,84,90,92],"points_earned":897,"phase":"task","trial_type":"horizons-task","trial_index":89,"time_elapsed":718118,"internal_node_id":"0.0-85.0","task_version":"0.2"},{"response_times":[421.4149999897927,251.96500006131828,285.7100002001971,426.5050000976771,381.1249998398125],"keys_pressed":["rightarrow","leftarrow","rightarrow","leftarrow","rightarrow"],"horizon":5,"forced_choices":["rightarrow","leftarrow","rightarrow","leftarrow"],"right_color":"lightblue","left_color":"orange","left_mu":60,"right_mu":72,"left_numbers":[59,62,69,66,58],"right_numbers":[86,77,95,69,71],"points_earned":380,"phase":"task","trial_type":"horizons-task","trial_index":90,"time_elapsed":721394,"internal_node_id":"0.0-86.0","task_version":"0.2"},{"response_times":[411.3499999511987,275.85000009275973,434.96500002220273,745.1850001234561,399.8449998907745,471.52499994263053,791.5899998042732,175.53999996744096,130.43999997898936,141.28999994136393],"keys_pressed":["leftarrow","rightarrow","rightarrow","leftarrow","rightarrow","rightarrow","rightarrow","rightarrow","rightarrow","rightarrow"],"horizon":10,"forced_choices":["leftarrow","rightarrow","rightarrow","leftarrow"],"right_color":"orange","left_color":"lightblue","left_mu":60,"right_mu":64,"left_numbers":[48,60,57,56,61,61,55,53,61,63],"right_numbers":[64,81,74,67,58,70,71,51,65,68],"points_earned":642,"phase":"task","trial_type":"horizons-task","trial_index":91,"time_elapsed":726883,"internal_node_id":"0.0-87.0","task_version":"0.2"},{"rt":15379.470000043511,"responses":{"age":"25","gender-categorical":"Female","gender-free-response":"","ethnicity":"Hispanic or Latino","race":["Rather not say"],"language":"Yes","fluency":"Very well"},"survey":"demographics","trial_type":"survey-demo","trial_index":92,"time_elapsed":742267,"internal_node_id":"0.0-88.0","task_version":"0.2"},{"rt":57851.065000053495,"responses":{"difficulty":"5","fun":"3","clarity":"5","strategy":"Occasionally I would test the waters with the side I was not picking, to make sure maybe I wasn't missing any random big numbers, but usually I would pick one side I felt was giving the better numbers and just stick to it","feedback":""},"survey":"debrief","trial_type":"survey-debrief","trial_index":93,"time_elapsed":800120,"internal_node_id":"0.0-89.0","task_version":"0.2","interactions":"[]"}]