[{"view_history":"[{\"page_index\":0,\"viewing_time\":7402.375000005122}]","rt":7403.8150000269525,"trial_type":"instructions","trial_index":0,"time_elapsed":7426,"internal_node_id":"0.0-0.0","task_version":"0.2"},{"item_order":[5,11,1,2,8,3,4,0,10,12,9,6,7],"responses":{"Q06":"1","Q12":"0","Q02":"2","Q03":"1","Q09":"1","Q04":"2","Q05":"1","Q01":"0","Q11":"2","Q13":"4","Q10":"0","Q07":"1","Q08":"0"},"radio_events":[19116.489999985788,29421.30999994697,34061.37499999022,39848.509999981616,43701.0199999786,51478.56999997748,58166.05999995954,62937.2999999905,68662.5950000016,74590.54499998456,80752.64999998035,90380.76499995077,96778.60999997938],"key_events":[],"mouse_events":[0.22499996703118086,19116.489999985788,29421.30999994697,34061.37499999022,39848.509999981616,43701.0199999786,51478.56999997748,58166.05999995954,62937.2999999905,68662.5950000016,74590.54499998456,80752.64999998035,90380.76499995077,96778.60999997938,99603.7499999511],"rt":99607.85999998916,"survey":"ius12","trial_type":"survey-template","trial_index":1,"time_elapsed":107042,"internal_node_id":"0.0-1.0","task_version":"0.2"},{"item_order":[9,16,14,8,4,7,5,11,13,1,12,3,10,0,6,15,2],"responses":{"Q10":"2","Q17":"0","Q15":"1","Q09":"1","Q05":"2","Q08":"2","Q06":"1","Q12":"0","Q14":"0","Q02":"1","Q13":"2","Q04":"1","Q11":"1","Q01":"2","Q07":"0","Q16":"2","Q03":"2"},"radio_events":[7022.984999988694,11337.865000008605,24698.440000007395,47796.60000000149,54070.88999997359,56146.21999999508,60476.64499998791,67456.13999996567,70472.19000000041,74224.57999998005,80078.31999997143,83983.70500002056,89473.98499998963,95846.12000000197,107146.17500000168,110810.27499999618,115448.07500002207,122818.51999997161],"key_events":[],"mouse_events":[7022.984999988694,11337.865000008605,24698.440000007395,47796.60000000149,54070.88999997359,56146.21999999508,60476.64499998791,67456.13999996567,70472.19000000041,74224.57999998005,80078.31999997143,83983.70500002056,89473.98499998963,95846.12000000197,107146.17500000168,110810.27499999618,115448.07500002207,122818.51999997161,124103.72000001371],"rt":124107.8550000093,"survey":"pswq","trial_type":"survey-template","trial_index":2,"time_elapsed":231156,"internal_node_id":"0.0-2.0","task_version":"0.2"},{"item_order":[2,4,11,12,13,9,10,1,8,15,6,14,5,0,3,7],"responses":{"Q03":"3","Q05":"3","Q12":"3","Q13":"3","Q14":"1","Q10":"4","Q11":"2","Q02":"2","Q09":"2","Q16":"3","Q07":"3","Q15":"2","Q06":"3","Q01":"2","Q04":"3","Q08":"3"},"radio_events":[9555.44500000542,22879.41499997396,28568.874999997206,34509.48999996763,42800.909999990836,55945.200000016484,62787.509999994654,72506.715000025,81287.4249999877,86082.99000002444,90201.18500001263,93583.2250000094,99761.14999997662,106309.1349999886,117221.17500001332,124657.26499998709],"key_events":[],"mouse_events":[9555.44500000542,22879.41499997396,28568.874999997206,34509.48999996763,42800.909999990836,55945.200000016484,62787.509999994654,72506.715000025,81287.4249999877,86082.99000002444,90201.18500001263,93583.2250000094,99761.14999997662,106309.1349999886,117221.17500001332,124657.26499998709,126014.00500000454],"rt":126018.68500001729,"survey":"nfc","trial_type":"survey-template","trial_index":3,"time_elapsed":357185,"internal_node_id":"0.0-3.0","task_version":"0.2"},{"view_history":"[{\"page_index\":0,\"viewing_time\":7019.284999987576},{\"page_index\":1,\"viewing_time\":11520.269999979064},{\"page_index\":2,\"viewing_time\":16273.935000004712},{\"page_index\":3,\"viewing_time\":10614.53000002075},{\"page_index\":4,\"viewing_time\":9527.200000011362},{\"page_index\":5,\"viewing_time\":8256.67999999132},{\"page_index\":6,\"viewing_time\":5083.259999984875},{\"page_index\":7,\"viewing_time\":22116.284999996424},{\"page_index\":8,\"viewing_time\":8937.670000013895},{\"page_index\":9,\"viewing_time\":16504.10499999998}]","rt":115853.99999999208,"trial_type":"instructions","trial_index":4,"time_elapsed":473045,"internal_node_id":"0.0-4.0-0.0","task_version":"0.2"},{"response_times":[2280.144999967888,1607.975000049919,617.9399999673478,751.5349999885075,3592.4249999807216],"keys_pressed":["rightarrow","leftarrow","rightarrow","rightarrow","leftarrow"],"horizon":5,"forced_choices":["rightarrow","leftarrow","rightarrow","rightarrow"],"right_color":"lightblue","left_color":"orange","left_mu":40,"right_mu":20,"left_numbers":[43,46,36,56,37],"right_numbers":[6,22,21,0,1],"points_earned":110,"phase":"practice","trial_type":"horizons-task","trial_index":5,"time_elapsed":483419,"internal_node_id":"0.0-4.0-1.0","task_version":"0.2"},{"response_times":[1184.590000018943,766.6399999870919,650.1299999654293,920.9050000063144,1694.5950000081211,3639.1549999825656,2275.030000018887,1028.7150000222027,1112.7650000271387,718.6099999817088],"keys_pressed":["leftarrow","leftarrow","rightarrow","rightarrow","rightarrow","rightarrow","rightarrow","rightarrow","rightarrow","rightarrow"],"horizon":10,"forced_choices":["leftarrow","leftarrow","rightarrow","rightarrow"],"right_color":"orange","left_color":"lightblue","left_mu":60,"right_mu":70,"left_numbers":[68,48,64,76,62,50,57,64,72,61],"right_numbers":[58,70,89,83,50,72,74,64,62,62],"points_earned":672,"phase":"practice","trial_type":"horizons-task","trial_index":6,"time_elapsed":498918,"internal_node_id":"0.0-4.0-2.0","task_version":"0.2"},{"view_history":"[{\"page_index\":0,\"viewing_time\":3153.745000017807},{\"page_index\":1,\"viewing_time\":4801.084999984596},{\"page_index\":2,\"viewing_time\":5727.68500004895},{\"page_index\":3,\"viewing_time\":5332.869999983814}]","rt":19016.06500003254,"trial_type":"instructions","trial_index":7,"time_elapsed":517935,"internal_node_id":"0.0-4.0-3.0","task_version":"0.2"},{"responses":["true","false","true"],"num_errors":0,"rt":17653.915000031702,"trial_type":"horizons-comprehension","trial_index":8,"time_elapsed":535594,"internal_node_id":"0.0-4.0-4.0","task_version":"0.2"},{"trial_type":"call-function","trial_index":9,"time_elapsed":535600,"internal_node_id":"0.0-5.0","task_version":"0.2"},{"view_history":"[{\"page_index\":0,\"viewing_time\":2207.9950000043027},{\"page_index\":1,\"viewing_time\":6349.465000035707}]","rt":8558.170000032987,"trial_type":"instructions","trial_index":10,"time_elapsed":544162,"internal_node_id":"0.0-6.0","task_version":"0.2"},{"response_times":[1736.44999996759,810.910000000149,1531.69999999227,756.9450000301003,1269.205000018701],"keys_pressed":["rightarrow","rightarrow","leftarrow","rightarrow","rightarrow"],"horizon":5,"forced_choices":["rightarrow","rightarrow","leftarrow","rightarrow"],"right_color":"lightblue","left_color":"orange","left_mu":60,"right_mu":56,"left_numbers":[61,66,57,68,75],"right_numbers":[58,58,65,53,51],"points_earned":277,"phase":"task","trial_type":"horizons-task","trial_index":11,"time_elapsed":551793,"internal_node_id":"0.0-7.0","task_version":"0.2"},{"response_times":[2694.774999981746,799.8500000103377,2811.3550000125542,778.3150000032037,1853.2199999899603],"keys_pressed":["rightarrow","leftarrow","leftarrow","rightarrow","leftarrow"],"horizon":5,"forced_choices":["rightarrow","leftarrow","leftarrow","rightarrow"],"right_color":"lightblue","left_color":"orange","left_mu":60,"right_mu":30,"left_numbers":[63,49,63,55,62],"right_numbers":[28,28,38,28,32],"points_earned":230,"phase":"task","trial_type":"horizons-task","trial_index":12,"time_elapsed":562241,"internal_node_id":"0.0-8.0","task_version":"0.2"},{"response_times":[800.8499999996275,1030.0249999854714,559.8749999771826,872.399999992922,1615.909999993164],"keys_pressed":["rightarrow","leftarrow","leftarrow","rightarrow","rightarrow"],"horizon":5,"forced_choices":["rightarrow","leftarrow","leftarrow","rightarrow"],"right_color":"lightblue","left_color":"orange","left_mu":60,"right_mu":90,"left_numbers":[55,63,56,58,68],"right_numbers":[96,100,106,89,92],"points_earned":396,"phase":"task","trial_type":"horizons-task","trial_index":13,"time_elapsed":568634,"internal_node_id":"0.0-9.0","task_version":"0.2"},{"response_times":[867.374999972526,616.6450000018813,731.4800000167452,707.0899999816902,3436.809999984689,2051.9050000002608,798.4699999797158,1166.6149999946356,1152.3049999959767,837.9300000378862],"keys_pressed":["leftarrow","rightarrow","leftarrow","leftarrow","leftarrow","leftarrow","leftarrow","leftarrow","leftarrow","leftarrow"],"horizon":10,"forced_choices":["leftarrow","rightarrow","leftarrow","leftarrow"],"right_color":"lightblue","left_color":"orange","left_mu":40,"right_mu":28,"left_numbers":[51,42,36,36,36,43,53,47,40,32],"right_numbers":[36,22,35,16,29,38,25,14,20,28],"points_earned":396,"phase":"task","trial_type":"horizons-task","trial_index":14,"time_elapsed":582545,"internal_node_id":"0.0-10.0","task_version":"0.2"},{"response_times":[818.3150000404567,803.1799999880604,1209.325000003446,1084.694999968633,2592.785000044387],"keys_pressed":["rightarrow","rightarrow","leftarrow","leftarrow","leftarrow"],"horizon":5,"forced_choices":["rightarrow","rightarrow","leftarrow","leftarrow"],"right_color":"lightblue","left_color":"orange","left_mu":60,"right_mu":72,"left_numbers":[58,70,63,69,63],"right_numbers":[59,70,65,70,75],"points_earned":324,"phase":"task","trial_type":"horizons-task","trial_index":15,"time_elapsed":590579,"internal_node_id":"0.0-11.0","task_version":"0.2"},{"response_times":[861.1600000294857,549.7800000011921,532.9199999687262,596.7149999924004,4925.235000031535,1450.4650000017136,1102.759999979753,1266.3750000065193,1418.0499999783933,587.0049999793991],"keys_pressed":["leftarrow","rightarrow","rightarrow","rightarrow","leftarrow","leftarrow","leftarrow","leftarrow","leftarrow","leftarrow"],"horizon":10,"forced_choices":["leftarrow","rightarrow","rightarrow","rightarrow"],"right_color":"orange","left_color":"lightblue","left_mu":60,"right_mu":48,"left_numbers":[55,50,65,62,68,68,72,63,65,58],"right_numbers":[49,52,48,45,39,49,45,57,44,44],"points_earned":594,"phase":"task","trial_type":"horizons-task","trial_index":16,"time_elapsed":605381,"internal_node_id":"0.0-12.0","task_version":"0.2"},{"response_times":[735.5749999987893,819.1900000092573,1438.0300000193529,1063.640000007581,1256.3150000059977],"keys_pressed":["rightarrow","rightarrow","leftarrow","leftarrow","rightarrow"],"horizon":5,"forced_choices":["rightarrow","rightarrow","leftarrow","leftarrow"],"right_color":"orange","left_color":"lightblue","left_mu":60,"right_mu":68,"left_numbers":[44,55,64,48,59],"right_numbers":[65,67,83,60,58],"points_earned":302,"phase":"task","trial_type":"horizons-task","trial_index":17,"time_elapsed":612209,"internal_node_id":"0.0-13.0","task_version":"0.2"},{"response_times":[709.7500000381842,505.5900000152178,656.4699999871664,679.6500000054948,2423.8649999606423,1833.184999995865,1033.8300000294112,1230.6100000278093,842.8200000198558,733.4949999931268],"keys_pressed":["leftarrow","rightarrow","rightarrow","leftarrow","rightarrow","rightarrow","leftarrow","rightarrow","rightarrow","rightarrow"],"horizon":10,"forced_choices":["leftarrow","rightarrow","rightarrow","leftarrow"],"right_color":"lightblue","left_color":"orange","left_mu":40,"right_mu":60,"left_numbers":[38,43,38,36,37,26,42,45,44,47],"right_numbers":[51,63,73,52,56,47,61,58,58,37],"points_earned":508,"phase":"task","trial_type":"horizons-task","trial_index":18,"time_elapsed":624369,"internal_node_id":"0.0-14.0","task_version":"0.2"},{"response_times":[901.6300000366755,655.1200000103563,1157.4250000412576,838.3550000144169,2250.9350000182167],"keys_pressed":["rightarrow","rightarrow","leftarrow","leftarrow","leftarrow"],"horizon":5,"forced_choices":["rightarrow","rightarrow","leftarrow","leftarrow"],"right_color":"orange","left_color":"lightblue","left_mu":60,"right_mu":52,"left_numbers":[67,56,81,39,61],"right_numbers":[55,67,47,52,52],"points_earned":303,"phase":"task","trial_type":"horizons-task","trial_index":19,"time_elapsed":631678,"internal_node_id":"0.0-15.0","task_version":"0.2"},{"response_times":[787.064999982249,485.80999998375773,899.8700000229292,833.00500002224,2298.2349999947473],"keys_pressed":["leftarrow","leftarrow","leftarrow","rightarrow","leftarrow"],"horizon":5,"forced_choices":["leftarrow","leftarrow","leftarrow","rightarrow"],"right_color":"lightblue","left_color":"orange","left_mu":40,"right_mu":20,"left_numbers":[43,22,30,39,36],"right_numbers":[15,19,16,18,29],"points_earned":149,"phase":"task","trial_type":"horizons-task","trial_index":20,"time_elapsed":638487,"internal_node_id":"0.0-16.0","task_version":"0.2"},{"response_times":[847.1649999846704,507.61999998940155,517.0900000375696,694.2849999759346,1987.5100000062957,1887.3550000134856,943.0849999771453,528.9049999555573,1044.1200000350364,624.1849999642],"keys_pressed":["leftarrow","leftarrow","leftarrow","rightarrow","leftarrow","rightarrow","rightarrow","rightarrow","rightarrow","rightarrow"],"horizon":10,"forced_choices":["leftarrow","leftarrow","leftarrow","rightarrow"],"right_color":"lightblue","left_color":"orange","left_mu":60,"right_mu":72,"left_numbers":[66,49,67,65,62,68,66,60,61,50],"right_numbers":[72,77,79,69,75,74,73,75,65,62],"points_earned":662,"phase":"task","trial_type":"horizons-task","trial_index":21,"time_elapsed":649582,"internal_node_id":"0.0-17.0","task_version":"0.2"},{"response_times":[775.7850000052713,469.8249999783002,615.9599999664351,509.71000001300126,1895.7299999892712,849.8849999741651,1222.5250000483356,1224.0499999606982,1093.6150000197813,923.8599999807775],"keys_pressed":["rightarrow","leftarrow","leftarrow","leftarrow","rightarrow","rightarrow","rightarrow","rightarrow","rightarrow","rightarrow"],"horizon":10,"forced_choices":["rightarrow","leftarrow","leftarrow","leftarrow"],"right_color":"orange","left_color":"lightblue","left_mu":40,"right_mu":70,"left_numbers":[38,47,41,27,30,41,42,37,31,37],"right_numbers":[78,72,74,77,72,68,77,72,72,67],"points_earned":621,"phase":"task","trial_type":"horizons-task","trial_index":22,"time_elapsed":660678,"internal_node_id":"0.0-18.0","task_version":"0.2"},{"response_times":[908.129999996163,1054.1099999682046,763.219999964349,1401.8350000260398,2073.8300000084564,1301.7000000108965,859.5399999758229,1797.179999994114,1862.5400000019,779.9700000323355],"keys_pressed":["rightarrow","rightarrow","leftarrow","rightarrow","leftarrow","rightarrow","rightarrow","leftarrow","leftarrow","rightarrow"],"horizon":10,"forced_choices":["rightarrow","rightarrow","leftarrow","rightarrow"],"right_color":"lightblue","left_color":"orange","left_mu":40,"right_mu":32,"left_numbers":[40,39,49,43,30,42,41,35,30,47],"right_numbers":[45,40,7,29,40,56,36,44,28,34],"points_earned":384,"phase":"task","trial_type":"horizons-task","trial_index":23,"time_elapsed":674984,"internal_node_id":"0.0-19.0","task_version":"0.2"},{"response_times":[810.1350000360981,446.4450000086799,576.5400000382215,619.2750000045635,1819.240000040736],"keys_pressed":["leftarrow","rightarrow","rightarrow","leftarrow","rightarrow"],"horizon":5,"forced_choices":["leftarrow","rightarrow","rightarrow","leftarrow"],"right_color":"lightblue","left_color":"orange","left_mu":40,"right_mu":60,"left_numbers":[45,52,37,36,37],"right_numbers":[59,60,51,61,77],"points_earned":269,"phase":"task","trial_type":"horizons-task","trial_index":24,"time_elapsed":680764,"internal_node_id":"0.0-20.0","task_version":"0.2"},{"response_times":[707.1750000468455,573.9300000132062,725.9400000330061,815.3100000345148,2970.6050000386313,1603.884999989532,922.2650000010617,2502.9849999700673,1701.5949999913573,846.6450000414625],"keys_pressed":["leftarrow","rightarrow","leftarrow","rightarrow","rightarrow","leftarrow","leftarrow","rightarrow","leftarrow","leftarrow"],"horizon":10,"forced_choices":["leftarrow","rightarrow","leftarrow","rightarrow"],"right_color":"orange","left_color":"lightblue","left_mu":60,"right_mu":64,"left_numbers":[46,42,61,58,59,70,61,59,69,64],"right_numbers":[62,47,72,72,66,59,65,61,69,71],"points_earned":617,"phase":"task","trial_type":"horizons-task","trial_index":25,"time_elapsed":695646,"internal_node_id":"0.0-21.0","task_version":"0.2"},{"response_times":[764.6550000063144,484.3850000179373,1276.6849999898113,558.870000008028,1793.1049999897368,888.5050000390038,568.2350000133738,677.9199999873526,650.580000015907,695.9700000006706],"keys_pressed":["rightarrow","leftarrow","rightarrow","rightarrow","rightarrow","rightarrow","rightarrow","rightarrow","rightarrow","rightarrow"],"horizon":10,"forced_choices":["rightarrow","leftarrow","rightarrow","rightarrow"],"right_color":"lightblue","left_color":"orange","left_mu":60,"right_mu":90,"left_numbers":[65,58,50,72,60,59,69,62,56,47],"right_numbers":[94,83,77,92,96,91,99,93,89,98],"points_earned":887,"phase":"task","trial_type":"horizons-task","trial_index":26,"time_elapsed":705519,"internal_node_id":"0.0-22.0","task_version":"0.2"},{"response_times":[741.8499999912456,501.1449999874458,558.359999966342,648.6799999838695,1495.134999975562],"keys_pressed":["leftarrow","leftarrow","rightarrow","rightarrow","rightarrow"],"horizon":5,"forced_choices":["leftarrow","leftarrow","rightarrow","rightarrow"],"right_color":"orange","left_color":"lightblue","left_mu":40,"right_mu":48,"left_numbers":[29,52,38,33,44],"right_numbers":[44,36,66,49,44],"points_earned":240,"phase":"task","trial_type":"horizons-task","trial_index":27,"time_elapsed":710975,"internal_node_id":"0.0-23.0","task_version":"0.2"},{"response_times":[683.8299999944866,482.25499998079613,727.3149999673478,487.90999996708706,1120.3199999872595,1418.4100000420585,1328.780000039842,833.8600000133738,583.5100000258535,1344.3850000039674],"keys_pressed":["leftarrow","leftarrow","rightarrow","rightarrow","leftarrow","leftarrow","rightarrow","leftarrow","leftarrow","leftarrow"],"horizon":10,"forced_choices":["leftarrow","leftarrow","rightarrow","rightarrow"],"right_color":"orange","left_color":"lightblue","left_mu":40,"right_mu":10,"left_numbers":[25,28,25,48,43,30,26,35,40,47],"right_numbers":[13,18,20,7,15,5,19,2,6,11],"points_earned":294,"phase":"task","trial_type":"horizons-task","trial_index":28,"time_elapsed":721490,"internal_node_id":"0.0-24.0","task_version":"0.2"},{"response_times":[783.9650000096299,527.9500000178814,553.3799999975599,577.1350000286475,1731.3999999896623,701.0450000525452,631.2899999902584,595.1449999702163,1201.694999996107,654.3149999924935],"keys_pressed":["rightarrow","leftarrow","rightarrow","leftarrow","rightarrow","rightarrow","rightarrow","rightarrow","rightarrow","rightarrow"],"horizon":10,"forced_choices":["rightarrow","leftarrow","rightarrow","leftarrow"],"right_color":"lightblue","left_color":"orange","left_mu":60,"right_mu":80,"left_numbers":[59,49,64,45,56,74,53,57,66,62],"right_numbers":[72,72,73,74,76,83,78,64,82,90],"points_earned":712,"phase":"task","trial_type":"horizons-task","trial_index":29,"time_elapsed":730961,"internal_node_id":"0.0-25.0","task_version":"0.2"},{"response_times":[702.2700000088662,424.2599999997765,741.7550000245683,800.9150000289083,3746.5650000376627,922.1350000007078,1145.650000020396,896.6999999829568,1315.775000024587,771.5399999869987],"keys_pressed":["rightarrow","leftarrow","leftarrow","rightarrow","leftarrow","leftarrow","rightarrow","leftarrow","leftarrow","leftarrow"],"horizon":10,"forced_choices":["rightarrow","leftarrow","leftarrow","rightarrow"],"right_color":"orange","left_color":"lightblue","left_mu":60,"right_mu":48,"left_numbers":[67,58,51,59,74,58,56,47,53,65],"right_numbers":[50,62,52,57,44,40,50,62,45,41],"points_earned":563,"phase":"task","trial_type":"horizons-task","trial_index":30,"time_elapsed":743954,"internal_node_id":"0.0-26.0","task_version":"0.2"},{"response_times":[700.3549999790266,394.02499998686835,677.1899999585003,1973.584999970626,957.6349999988452],"keys_pressed":["rightarrow","leftarrow","leftarrow","leftarrow","rightarrow"],"horizon":5,"forced_choices":["rightarrow","leftarrow","leftarrow","leftarrow"],"right_color":"orange","left_color":"lightblue","left_mu":40,"right_mu":70,"left_numbers":[59,42,36,41,49],"right_numbers":[90,54,71,68,65],"points_earned":274,"phase":"task","trial_type":"horizons-task","trial_index":31,"time_elapsed":750173,"internal_node_id":"0.0-27.0","task_version":"0.2"},{"response_times":[988.8700000010431,650.0300000188872,1861.7250000243075,823.5250000143424,1168.790000025183],"keys_pressed":["rightarrow","leftarrow","rightarrow","rightarrow","rightarrow"],"horizon":5,"forced_choices":["rightarrow","leftarrow","rightarrow","rightarrow"],"right_color":"lightblue","left_color":"orange","left_mu":60,"right_mu":90,"left_numbers":[59,58,67,58,56],"right_numbers":[88,82,82,88,84],"points_earned":400,"phase":"task","trial_type":"horizons-task","trial_index":32,"time_elapsed":757180,"internal_node_id":"0.0-28.0","task_version":"0.2"},{"response_times":[664.6399999735877,422.0750000094995,546.169999986887,1220.6499999738298,1811.249999969732,924.8150000348687,869.704999960959,1323.8250000285916,615.5100000323728,1255.3600000101142],"keys_pressed":["rightarrow","leftarrow","leftarrow","rightarrow","leftarrow","leftarrow","leftarrow","leftarrow","leftarrow","leftarrow"],"horizon":10,"forced_choices":["rightarrow","leftarrow","leftarrow","rightarrow"],"right_color":"lightblue","left_color":"orange","left_mu":60,"right_mu":30,"left_numbers":[62,61,69,42,62,65,62,62,58,70],"right_numbers":[38,30,36,48,47,14,34,15,21,41],"points_earned":595,"phase":"task","trial_type":"horizons-task","trial_index":33,"time_elapsed":768340,"internal_node_id":"0.0-29.0","task_version":"0.2"},{"response_times":[659.574999997858,425.97500002011657,666.6850000037812,620.0199999730103,2250.3499999875203],"keys_pressed":["rightarrow","leftarrow","rightarrow","leftarrow","leftarrow"],"horizon":5,"forced_choices":["rightarrow","leftarrow","rightarrow","leftarrow"],"right_color":"lightblue","left_color":"orange","left_mu":40,"right_mu":28,"left_numbers":[41,36,56,38,47],"right_numbers":[24,31,17,17,18],"points_earned":162,"phase":"task","trial_type":"horizons-task","trial_index":34,"time_elapsed":774473,"internal_node_id":"0.0-30.0","task_version":"0.2"},{"response_times":[792.7700000000186,473.68499997537583,680.8449999662116,747.7899999939837,877.8300000121817],"keys_pressed":["leftarrow","rightarrow","leftarrow","rightarrow","rightarrow"],"horizon":5,"forced_choices":["leftarrow","rightarrow","leftarrow","rightarrow"],"right_color":"orange","left_color":"lightblue","left_mu":40,"right_mu":70,"left_numbers":[29,35,36,46,49],"right_numbers":[74,68,62,74,75],"points_earned":282,"phase":"task","trial_type":"horizons-task","trial_index":35,"time_elapsed":779553,"internal_node_id":"0.0-31.0","task_version":"0.2"},{"response_times":[745.1000000000931,493.2000000262633,1079.2750000255182,1865.6550000305288,906.5249999985099],"keys_pressed":["leftarrow","rightarrow","rightarrow","rightarrow","leftarrow"],"horizon":5,"forced_choices":["leftarrow","rightarrow","rightarrow","rightarrow"],"right_color":"orange","left_color":"lightblue","left_mu":40,"right_mu":10,"left_numbers":[51,33,44,28,44],"right_numbers":[7,0,10,17,5],"points_earned":122,"phase":"task","trial_type":"horizons-task","trial_index":36,"time_elapsed":786156,"internal_node_id":"0.0-32.0","task_version":"0.2"},{"response_times":[659.5699999597855,469.90500000538304,1044.0449999878183,979.5499999891035,968.0749999824911],"keys_pressed":["leftarrow","rightarrow","rightarrow","rightarrow","rightarrow"],"horizon":5,"forced_choices":["leftarrow","rightarrow","rightarrow","rightarrow"],"right_color":"lightblue","left_color":"orange","left_mu":40,"right_mu":52,"left_numbers":[42,43,44,42,35],"right_numbers":[67,45,58,48,42],"points_earned":235,"phase":"task","trial_type":"horizons-task","trial_index":37,"time_elapsed":791783,"internal_node_id":"0.0-33.0","task_version":"0.2"},{"response_times":[1003.3150000381283,392.7150000235997,614.159999997355,488.7800000142306,2363.690000027418,2094.314999994822,1770.0499999918975,561.6549999685958,882.1100000059232,508.7599999969825],"keys_pressed":["rightarrow","leftarrow","rightarrow","leftarrow","leftarrow","leftarrow","leftarrow","leftarrow","leftarrow","leftarrow"],"horizon":10,"forced_choices":["rightarrow","leftarrow","rightarrow","leftarrow"],"right_color":"orange","left_color":"lightblue","left_mu":60,"right_mu":40,"left_numbers":[60,62,44,76,60,48,54,45,62,28],"right_numbers":[32,43,40,46,30,32,53,44,45,30],"points_earned":507,"phase":"task","trial_type":"horizons-task","trial_index":38,"time_elapsed":803974,"internal_node_id":"0.0-34.0","task_version":"0.2"},{"response_times":[945.7999999867752,408.3550000214018,901.7500000190921,870.7549999817275,653.8399999844842,1593.7949999934062,1254.979999968782,1443.120000010822,538.8299999758601,955.2949999924749],"keys_pressed":["leftarrow","rightarrow","rightarrow","leftarrow","rightarrow","leftarrow","rightarrow","rightarrow","rightarrow","leftarrow"],"horizon":10,"forced_choices":["leftarrow","rightarrow","rightarrow","leftarrow"],"right_color":"lightblue","left_color":"orange","left_mu":40,"right_mu":52,"left_numbers":[20,46,57,54,38,46,47,37,49,30],"right_numbers":[46,57,60,60,41,55,48,54,48,49],"points_earned":458,"phase":"task","trial_type":"horizons-task","trial_index":39,"time_elapsed":815053,"internal_node_id":"0.0-35.0","task_version":"0.2"},{"response_times":[726.1650000000373,408.78499997779727,570.1300000073388,433.23500000406057,1406.1450000153854,954.2899999651127,759.0299999574199,601.8150000018068,889.3599999719299,477.2950000478886],"keys_pressed":["leftarrow","rightarrow","leftarrow","rightarrow","leftarrow","rightarrow","leftarrow","leftarrow","leftarrow","leftarrow"],"horizon":10,"forced_choices":["leftarrow","rightarrow","leftarrow","rightarrow"],"right_color":"lightblue","left_color":"orange","left_mu":40,"right_mu":20,"left_numbers":[44,32,54,31,36,34,58,39,40,33],"right_numbers":[26,16,21,0,28,13,31,15,17,14],"points_earned":333,"phase":"task","trial_type":"horizons-task","trial_index":40,"time_elapsed":823793,"internal_node_id":"0.0-36.0","task_version":"0.2"},{"response_times":[802.4650000152178,517.0550000038929,749.3949999916367,485.9600000199862,3053.040000027977,1714.6349999820814,955.9850000077859,753.4250000026077,729.3449999997392,570.7249999977648],"keys_pressed":["leftarrow","leftarrow","rightarrow","rightarrow","leftarrow","rightarrow","leftarrow","leftarrow","rightarrow","rightarrow"],"horizon":10,"forced_choices":["leftarrow","leftarrow","rightarrow","rightarrow"],"right_color":"lightblue","left_color":"orange","left_mu":40,"right_mu":32,"left_numbers":[28,33,29,49,50,38,34,22,22,36],"right_numbers":[34,32,35,27,28,28,40,32,36,36],"points_earned":329,"phase":"task","trial_type":"horizons-task","trial_index":41,"time_elapsed":835638,"internal_node_id":"0.0-37.0","task_version":"0.2"},{"response_times":[924.9849999905564,952.8799999970943,1533.2000000053085,1090.8199999830686,1042.7250000066124],"keys_pressed":["rightarrow","rightarrow","leftarrow","rightarrow","rightarrow"],"horizon":5,"forced_choices":["rightarrow","rightarrow","leftarrow","rightarrow"],"right_color":"lightblue","left_color":"orange","left_mu":40,"right_mu":32,"left_numbers":[41,31,35,28,37],"right_numbers":[22,35,26,30,33],"points_earned":155,"phase":"task","trial_type":"horizons-task","trial_index":42,"time_elapsed":842693,"internal_node_id":"0.0-38.0","task_version":"0.2"},{"response_times":[797.5649999571033,730.3299999912269,1140.6650000135414,796.9849999644794,951.6299999668263,1446.4500000467524,693.6899999855086,843.8850000384264,616.6499999817461,375.28999999631196],"keys_pressed":["rightarrow","rightarrow","leftarrow","leftarrow","leftarrow","leftarrow","leftarrow","leftarrow","leftarrow","leftarrow"],"horizon":10,"forced_choices":["rightarrow","rightarrow","leftarrow","leftarrow"],"right_color":"orange","left_color":"lightblue","left_mu":60,"right_mu":52,"left_numbers":[73,50,58,70,56,54,53,56,64,62],"right_numbers":[51,51,49,51,44,52,55,46,54,38],"points_earned":575,"phase":"task","trial_type":"horizons-task","trial_index":43,"time_elapsed":852618,"internal_node_id":"0.0-39.0","task_version":"0.2"},{"response_times":[694.4900000235066,621.599999954924,817.8900000057183,1135.904999973718,1046.9900000025518],"keys_pressed":["rightarrow","leftarrow","leftarrow","leftarrow","leftarrow"],"horizon":5,"forced_choices":["rightarrow","leftarrow","leftarrow","leftarrow"],"right_color":"lightblue","left_color":"orange","left_mu":60,"right_mu":80,"left_numbers":[63,66,72,64,61],"right_numbers":[68,81,83,78,71],"points_earned":331,"phase":"task","trial_type":"horizons-task","trial_index":44,"time_elapsed":858446,"internal_node_id":"0.0-40.0","task_version":"0.2"},{"response_times":[807.245000032708,680.1800000248477,670.4099999624304,1045.6600000034086,1889.2549999873154,1312.5,587.679999996908,604.6699999715202,405.4300000425428,391.52000000467524],"keys_pressed":["leftarrow","rightarrow","rightarrow","rightarrow","leftarrow","leftarrow","leftarrow","leftarrow","leftarrow","leftarrow"],"horizon":10,"forced_choices":["leftarrow","rightarrow","rightarrow","rightarrow"],"right_color":"orange","left_color":"lightblue","left_mu":40,"right_mu":10,"left_numbers":[32,44,32,31,30,49,42,42,36,45],"right_numbers":[24,5,3,6,11,6,14,10,10,10],"points_earned":290,"phase":"task","trial_type":"horizons-task","trial_index":45,"time_elapsed":868347,"internal_node_id":"0.0-41.0","task_version":"0.2"},{"response_times":[740.4749999986961,463.70999998180196,700.5849999841303,1777.5699999765493,1146.610000054352],"keys_pressed":["leftarrow","leftarrow","rightarrow","leftarrow","leftarrow"],"horizon":5,"forced_choices":["leftarrow","leftarrow","rightarrow","leftarrow"],"right_color":"orange","left_color":"lightblue","left_mu":40,"right_mu":48,"left_numbers":[30,27,40,37,53],"right_numbers":[58,40,39,58,37],"points_earned":186,"phase":"task","trial_type":"horizons-task","trial_index":46,"time_elapsed":874693,"internal_node_id":"0.0-42.0","task_version":"0.2"},{"response_times":[708.6699999636039,693.2149999774992,1041.2199999555014,525.46999999322,1844.0299999783747,572.8399999788962,1219.9450000189245,663.330000010319,574.6299999882467,485.40000000502914],"keys_pressed":["leftarrow","leftarrow","rightarrow","rightarrow","rightarrow","rightarrow","rightarrow","rightarrow","rightarrow","rightarrow"],"horizon":10,"forced_choices":["leftarrow","leftarrow","rightarrow","rightarrow"],"right_color":"orange","left_color":"lightblue","left_mu":40,"right_mu":48,"left_numbers":[37,45,51,53,39,39,26,27,29,34],"right_numbers":[54,43,34,60,57,56,44,52,51,45],"points_earned":481,"phase":"task","trial_type":"horizons-task","trial_index":47,"time_elapsed":884531,"internal_node_id":"0.0-43.0","task_version":"0.2"},{"response_times":[750.3249999717809,447.9999999748543,772.0599999884143,527.5699999765493,657.3000000207685],"keys_pressed":["leftarrow","leftarrow","rightarrow","rightarrow","leftarrow"],"horizon":5,"forced_choices":["leftarrow","leftarrow","rightarrow","rightarrow"],"right_color":"orange","left_color":"lightblue","left_mu":40,"right_mu":10,"left_numbers":[39,48,45,44,35],"right_numbers":[7,10,5,1,0],"points_earned":128,"phase":"task","trial_type":"horizons-task","trial_index":48,"time_elapsed":889191,"internal_node_id":"0.0-44.0","task_version":"0.2"},{"response_times":[931.8899999489076,500.56999997468665,1213.3999999496154,821.2300000013784,1427.460000035353],"keys_pressed":["rightarrow","leftarrow","leftarrow","rightarrow","leftarrow"],"horizon":5,"forced_choices":["rightarrow","leftarrow","leftarrow","rightarrow"],"right_color":"orange","left_color":"lightblue","left_mu":60,"right_mu":48,"left_numbers":[64,64,59,57,60],"right_numbers":[35,61,39,42,43],"points_earned":260,"phase":"task","trial_type":"horizons-task","trial_index":49,"time_elapsed":895599,"internal_node_id":"0.0-45.0","task_version":"0.2"},{"response_times":[612.4849999905564,465.5199999688193,974.1099999519065,467.59999997448176,2011.7349999491125,1123.0250000371598,697.954999981448,350.9349999949336,516.3800000445917,478.5249999840744],"keys_pressed":["rightarrow","leftarrow","rightarrow","leftarrow","leftarrow","rightarrow","leftarrow","leftarrow","leftarrow","leftarrow"],"horizon":10,"forced_choices":["rightarrow","leftarrow","rightarrow","leftarrow"],"right_color":"lightblue","left_color":"orange","left_mu":40,"right_mu":28,"left_numbers":[43,51,49,42,31,46,48,35,32,44],"right_numbers":[24,33,42,25,25,24,34,17,31,19],"points_earned":373,"phase":"task","trial_type":"horizons-task","trial_index":50,"time_elapsed":904808,"internal_node_id":"0.0-46.0","task_version":"0.2"},{"view_history":"[{\"page_index\":0,\"viewing_time\":10907.360000011977},{\"page_index\":1,\"viewing_time\":5313.904999988154}]","rt":16222.219999996014,"trial_type":"instructions","trial_index":51,"time_elapsed":921025,"internal_node_id":"0.0-47.0","task_version":"0.2"},{"response_times":[49410.8750000014,704.314999980852,3412.285000027623,1563.0499999970198,1236.2750000320375],"keys_pressed":["rightarrow","rightarrow","rightarrow","leftarrow","rightarrow"],"horizon":5,"forced_choices":["rightarrow","rightarrow","rightarrow","leftarrow"],"right_color":"lightblue","left_color":"orange","left_mu":60,"right_mu":30,"left_numbers":[69,75,55,58,56],"right_numbers":[33,33,25,50,28],"points_earned":177,"phase":"task","trial_type":"horizons-task","trial_index":52,"time_elapsed":978875,"internal_node_id":"0.0-48.0","task_version":"0.2"},{"response_times":[810.910000000149,551.1649999534711,504.19000000692904,1241.760000004433,1431.3550000078976],"keys_pressed":["leftarrow","rightarrow","leftarrow","rightarrow","leftarrow"],"horizon":5,"forced_choices":["leftarrow","rightarrow","leftarrow","rightarrow"],"right_color":"orange","left_color":"lightblue","left_mu":60,"right_mu":64,"left_numbers":[62,53,66,59,64],"right_numbers":[58,58,71,53,58],"points_earned":303,"phase":"task","trial_type":"horizons-task","trial_index":53,"time_elapsed":984925,"internal_node_id":"0.0-49.0","task_version":"0.2"},{"response_times":[657.245000009425,414.0849999967031,587.8999999840744,487.44999995687976,2884.639999945648,636.8699999875389,549.8900000238791,843.9600000274368,885.8749999781139,450.6800000090152],"keys_pressed":["rightarrow","leftarrow","leftarrow","leftarrow","leftarrow","leftarrow","leftarrow","leftarrow","leftarrow","leftarrow"],"horizon":10,"forced_choices":["rightarrow","leftarrow","leftarrow","leftarrow"],"right_color":"lightblue","left_color":"orange","left_mu":60,"right_mu":80,"left_numbers":[68,66,48,62,66,66,67,50,64,63],"right_numbers":[87,71,71,68,70,81,94,88,92,80],"points_earned":639,"phase":"task","trial_type":"horizons-task","trial_index":54,"time_elapsed":994837,"internal_node_id":"0.0-50.0","task_version":"0.2"},{"response_times":[833.4400000167079,1150.5649999598972,695.1300000073388,1217.7550000487827,1126.1999999987893],"keys_pressed":["leftarrow","leftarrow","rightarrow","leftarrow","leftarrow"],"horizon":5,"forced_choices":["leftarrow","leftarrow","rightarrow","leftarrow"],"right_color":"orange","left_color":"lightblue","left_mu":40,"right_mu":36,"left_numbers":[49,39,31,35,52],"right_numbers":[35,29,42,44,59],"points_earned":217,"phase":"task","trial_type":"horizons-task","trial_index":55,"time_elapsed":1001366,"internal_node_id":"0.0-51.0","task_version":"0.2"},{"response_times":[656.9350000354461,434.4699999783188,508.7799999746494,465.9949999768287,2439.319999946747],"keys_pressed":["leftarrow","rightarrow","leftarrow","rightarrow","leftarrow"],"horizon":5,"forced_choices":["leftarrow","rightarrow","leftarrow","rightarrow"],"right_color":"lightblue","left_color":"orange","left_mu":40,"right_mu":20,"left_numbers":[49,51,42,45,36],"right_numbers":[25,6,26,17,18],"points_earned":150,"phase":"task","trial_type":"horizons-task","trial_index":56,"time_elapsed":1007382,"internal_node_id":"0.0-52.0","task_version":"0.2"},{"response_times":[749.6350000146776,407.6750000240281,1148.0500000179745,734.2599999974482,614.7750000236556],"keys_pressed":["leftarrow","rightarrow","rightarrow","rightarrow","rightarrow"],"horizon":5,"forced_choices":["leftarrow","rightarrow","rightarrow","rightarrow"],"right_color":"orange","left_color":"lightblue","left_mu":60,"right_mu":48,"left_numbers":[46,58,63,56,49],"right_numbers":[43,61,58,35,51],"points_earned":251,"phase":"task","trial_type":"horizons-task","trial_index":57,"time_elapsed":1012545,"internal_node_id":"0.0-53.0","task_version":"0.2"},{"response_times":[697.5199999869801,354.79499999200925,748.749999969732,356.9400000269525,1675.394999969285,772.1149999997579,1111.3449999829754,427.0249999826774,393.9050000044517,295.2250000089407],"keys_pressed":["leftarrow","rightarrow","leftarrow","rightarrow","rightarrow","rightarrow","rightarrow","rightarrow","rightarrow","rightarrow"],"horizon":10,"forced_choices":["leftarrow","rightarrow","leftarrow","rightarrow"],"right_color":"orange","left_color":"lightblue","left_mu":40,"right_mu":70,"left_numbers":[36,28,21,31,51,14,57,54,45,38],"right_numbers":[78,59,77,82,68,93,67,63,57,82],"points_earned":628,"phase":"task","trial_type":"horizons-task","trial_index":58,"time_elapsed":1020886,"internal_node_id":"0.0-54.0","task_version":"0.2"},{"response_times":[587.5700000324287,438.12000000616536,789.0150000457652,1261.8449999717996,1388.9550000312738,573.7499999813735,869.2399999708869,499.0600000019185,1468.1599999894388,702.2499999729916],"keys_pressed":["leftarrow","rightarrow","rightarrow","leftarrow","rightarrow","rightarrow","rightarrow","rightarrow","rightarrow","rightarrow"],"horizon":10,"forced_choices":["leftarrow","rightarrow","rightarrow","leftarrow"],"right_color":"lightblue","left_color":"orange","left_mu":60,"right_mu":56,"left_numbers":[51,78,57,56,63,57,55,68,55,54],"right_numbers":[76,60,76,43,60,52,53,51,53,62],"points_earned":574,"phase":"task","trial_type":"horizons-task","trial_index":59,"time_elapsed":1030973,"internal_node_id":"0.0-55.0","task_version":"0.2"},{"response_times":[728.8449999759905,608.974999981001,919.3550000200048,1090.3249999973923,1666.0899999551475,751.5150000108406,456.06499997666106,829.7899999888614,1460.8049999806099,483.08500001439825],"keys_pressed":["rightarrow","rightarrow","leftarrow","rightarrow","leftarrow","rightarrow","rightarrow","rightarrow","rightarrow","leftarrow"],"horizon":10,"forced_choices":["rightarrow","rightarrow","leftarrow","rightarrow"],"right_color":"lightblue","left_color":"orange","left_mu":60,"right_mu":56,"left_numbers":[66,56,71,64,37,50,58,62,65,62],"right_numbers":[54,49,57,60,63,60,48,72,48,70],"points_earned":561,"phase":"task","trial_type":"horizons-task","trial_index":60,"time_elapsed":1041475,"internal_node_id":"0.0-56.0","task_version":"0.2"},{"response_times":[1088.0250000045635,907.8650000155903,1157.370000029914,530.6299999938346,1213.0649999598972],"keys_pressed":["rightarrow","leftarrow","rightarrow","leftarrow","leftarrow"],"horizon":5,"forced_choices":["rightarrow","leftarrow","rightarrow","leftarrow"],"right_color":"orange","left_color":"lightblue","left_mu":60,"right_mu":40,"left_numbers":[53,62,69,51,48],"right_numbers":[39,50,39,46,31],"points_earned":239,"phase":"task","trial_type":"horizons-task","trial_index":61,"time_elapsed":1047878,"internal_node_id":"0.0-57.0","task_version":"0.2"},{"response_times":[648.1500000227243,478.7750000250526,732.785000000149,411.8550000130199,2685.779999999795,992.1600000234321,586.1300000105985,1178.8500000257045,3598.055000009481,595.8000000100583],"keys_pressed":["leftarrow","leftarrow","rightarrow","leftarrow","leftarrow","leftarrow","leftarrow","rightarrow","rightarrow","rightarrow"],"horizon":10,"forced_choices":["leftarrow","leftarrow","rightarrow","leftarrow"],"right_color":"orange","left_color":"lightblue","left_mu":40,"right_mu":48,"left_numbers":[43,48,41,24,42,56,29,26,58,41],"right_numbers":[67,62,48,43,46,45,55,43,45,49],"points_earned":427,"phase":"task","trial_type":"horizons-task","trial_index":62,"time_elapsed":1061298,"internal_node_id":"0.0-58.0","task_version":"0.2"},{"response_times":[686.6349999909289,388.1800000090152,1427.365000010468,1275.370000046678,1212.664999999106],"keys_pressed":["leftarrow","rightarrow","rightarrow","leftarrow","rightarrow"],"horizon":5,"forced_choices":["leftarrow","rightarrow","rightarrow","leftarrow"],"right_color":"lightblue","left_color":"orange","left_mu":60,"right_mu":56,"left_numbers":[54,64,66,41,54],"right_numbers":[53,51,41,65,51],"points_earned":238,"phase":"task","trial_type":"horizons-task","trial_index":63,"time_elapsed":1067817,"internal_node_id":"0.0-59.0","task_version":"0.2"},{"response_times":[665.8949999837205,410.7349999831058,919.7449999628589,582.834999950137,1889.2700000433251,1033.8899999624118,759.1000000247732,1120.8450000267476,1204.1650000028312,701.9149999832734],"keys_pressed":["leftarrow","rightarrow","leftarrow","leftarrow","rightarrow","rightarrow","rightarrow","rightarrow","rightarrow","rightarrow"],"horizon":10,"forced_choices":["leftarrow","rightarrow","leftarrow","leftarrow"],"right_color":"orange","left_color":"lightblue","left_mu":40,"right_mu":44,"left_numbers":[24,50,38,32,39,33,46,50,40,51],"right_numbers":[44,39,53,48,51,45,39,42,43,33],"points_earned":386,"phase":"task","trial_type":"horizons-task","trial_index":64,"time_elapsed":1078614,"internal_node_id":"0.0-60.0","task_version":"0.2"},{"response_times":[771.7599999741651,431.89500004518777,1123.749999969732,624.6650000102818,1286.0999999684282],"keys_pressed":["leftarrow","rightarrow","leftarrow","rightarrow","leftarrow"],"horizon":5,"forced_choices":["leftarrow","rightarrow","leftarrow","rightarrow"],"right_color":"orange","left_color":"lightblue","left_mu":40,"right_mu":44,"left_numbers":[41,48,46,47,34],"right_numbers":[45,33,49,48,47],"points_earned":202,"phase":"task","trial_type":"horizons-task","trial_index":65,"time_elapsed":1084357,"internal_node_id":"0.0-61.0","task_version":"0.2"},{"response_times":[758.6100000189617,551.244999980554,698.1900000246242,1512.9350000061095,648.9949999959208],"keys_pressed":["rightarrow","rightarrow","rightarrow","leftarrow","rightarrow"],"horizon":5,"forced_choices":["rightarrow","rightarrow","rightarrow","leftarrow"],"right_color":"orange","left_color":"lightblue","left_mu":60,"right_mu":64,"left_numbers":[53,59,64,55,65],"right_numbers":[59,63,63,52,71],"points_earned":311,"phase":"task","trial_type":"horizons-task","trial_index":66,"time_elapsed":1090035,"internal_node_id":"0.0-62.0","task_version":"0.2"},{"response_times":[684.3600000138395,635.4000000283122,621.6350000468083,770.4399999929592,1992.8649999783374,933.9700000127777,1185.9349999576807,799.9699999927543,1275.7799999671988,1015.5399999930523],"keys_pressed":["rightarrow","leftarrow","leftarrow","rightarrow","rightarrow","rightarrow","rightarrow","leftarrow","leftarrow","leftarrow"],"horizon":10,"forced_choices":["rightarrow","leftarrow","leftarrow","rightarrow"],"right_color":"orange","left_color":"lightblue","left_mu":40,"right_mu":36,"left_numbers":[35,30,31,34,29,35,31,43,33,49],"right_numbers":[29,29,46,38,52,46,29,32,35,37],"points_earned":380,"phase":"task","trial_type":"horizons-task","trial_index":67,"time_elapsed":1101457,"internal_node_id":"0.0-63.0","task_version":"0.2"},{"response_times":[976.7649999703281,433.9400000171736,1172.3350000102073,875.6649999995716,1284.754999971483],"keys_pressed":["rightarrow","leftarrow","leftarrow","leftarrow","leftarrow"],"horizon":5,"forced_choices":["rightarrow","leftarrow","leftarrow","leftarrow"],"right_color":"orange","left_color":"lightblue","left_mu":60,"right_mu":68,"left_numbers":[52,53,72,54,66],"right_numbers":[69,69,70,70,70],"points_earned":314,"phase":"task","trial_type":"horizons-task","trial_index":68,"time_elapsed":1107710,"internal_node_id":"0.0-64.0","task_version":"0.2"},{"response_times":[682.9799999832176,635.5050000129268,698.8400000263937,1156.0300000128336,2107.83499997342,1355.8349999948405,761.6850000340492,1057.9549999674782,654.0599999716505,935.7600000221282],"keys_pressed":["leftarrow","rightarrow","leftarrow","rightarrow","rightarrow","rightarrow","leftarrow","leftarrow","leftarrow","rightarrow"],"horizon":10,"forced_choices":["leftarrow","rightarrow","leftarrow","rightarrow"],"right_color":"orange","left_color":"lightblue","left_mu":40,"right_mu":44,"left_numbers":[46,43,37,37,35,38,44,39,25,43],"right_numbers":[46,40,44,38,42,34,32,54,41,56],"points_earned":401,"phase":"task","trial_type":"horizons-task","trial_index":69,"time_elapsed":1119269,"internal_node_id":"0.0-65.0","task_version":"0.2"},{"response_times":[550.9749999619089,845.6499999738298,683.5299999802373,1346.7550000059418,2181.2949999584816],"keys_pressed":["leftarrow","leftarrow","rightarrow","leftarrow","leftarrow"],"horizon":5,"forced_choices":["leftarrow","leftarrow","rightarrow","leftarrow"],"right_color":"lightblue","left_color":"orange","left_mu":40,"right_mu":60,"left_numbers":[26,50,55,43,38],"right_numbers":[69,60,51,55,65],"points_earned":208,"phase":"task","trial_type":"horizons-task","trial_index":70,"time_elapsed":1126385,"internal_node_id":"0.0-66.0","task_version":"0.2"},{"response_times":[690.485000028275,456.8250000011176,642.630000016652,563.0349999992177,1337.0899999863468,698.7700000172481,725.8850000216626,557.459999981802,1778.9049999555573,464.44000001065433],"keys_pressed":["leftarrow","leftarrow","rightarrow","leftarrow","rightarrow","rightarrow","leftarrow","leftarrow","leftarrow","leftarrow"],"horizon":10,"forced_choices":["leftarrow","leftarrow","rightarrow","leftarrow"],"right_color":"orange","left_color":"lightblue","left_mu":40,"right_mu":36,"left_numbers":[43,44,54,32,41,28,41,37,37,50],"right_numbers":[27,26,40,29,47,28,49,39,44,33],"points_earned":399,"phase":"task","trial_type":"horizons-task","trial_index":71,"time_elapsed":1135809,"internal_node_id":"0.0-67.0","task_version":"0.2"},{"response_times":[667.7200000267476,386.65000000037253,739.2800000379793,620.7300000241958,772.1899999887682,2421.565000026021,532.2900000028312,620.7949999952689,529.065000009723,370.55499997222796],"keys_pressed":["leftarrow","rightarrow","rightarrow","rightarrow","rightarrow","rightarrow","rightarrow","rightarrow","rightarrow","rightarrow"],"horizon":10,"forced_choices":["leftarrow","rightarrow","rightarrow","rightarrow"],"right_color":"lightblue","left_color":"orange","left_mu":40,"right_mu":52,"left_numbers":[37,45,36,53,28,31,34,42,66,38],"right_numbers":[47,46,36,55,46,38,37,44,60,58],"points_earned":457,"phase":"task","trial_type":"horizons-task","trial_index":72,"time_elapsed":1144979,"internal_node_id":"0.0-68.0","task_version":"0.2"},{"response_times":[899.6150000020862,927.3350000148639,1624.8650000197813,578.6699999589473,1688.8449999969453,607.2450000210665,783.6600000155158,1573.9949999842793,1245.5299999564886,482.82500001369044],"keys_pressed":["rightarrow","rightarrow","rightarrow","leftarrow","leftarrow","leftarrow","leftarrow","rightarrow","rightarrow","rightarrow"],"horizon":10,"forced_choices":["rightarrow","rightarrow","rightarrow","leftarrow"],"right_color":"orange","left_color":"lightblue","left_mu":60,"right_mu":64,"left_numbers":[64,65,53,52,59,74,54,53,59,75],"right_numbers":[59,54,79,60,73,74,74,64,56,55],"points_earned":606,"phase":"task","trial_type":"horizons-task","trial_index":73,"time_elapsed":1156901,"internal_node_id":"0.0-69.0","task_version":"0.2"},{"response_times":[777.6500000036322,568.0450000218116,866.5550000150688,484.33499998645857,1217.3249999759719,852.5800000061281,945.8849999937229,858.5150000290014,2936.2399999517947,829.9999999580905],"keys_pressed":["rightarrow","rightarrow","leftarrow","leftarrow","leftarrow","rightarrow","rightarrow","rightarrow","rightarrow","rightarrow"],"horizon":10,"forced_choices":["rightarrow","rightarrow","leftarrow","leftarrow"],"right_color":"orange","left_color":"lightblue","left_mu":60,"right_mu":68,"left_numbers":[56,43,70,71,48,56,68,61,61,50],"right_numbers":[66,68,60,69,61,75,65,70,55,71],"points_earned":659,"phase":"task","trial_type":"horizons-task","trial_index":74,"time_elapsed":1168748,"internal_node_id":"0.0-70.0","task_version":"0.2"},{"response_times":[639.3099999986589,417.61000000406057,604.375000053551,907.8500000177883,1102.3750000167638],"keys_pressed":["rightarrow","leftarrow","leftarrow","rightarrow","leftarrow"],"horizon":5,"forced_choices":["rightarrow","leftarrow","leftarrow","rightarrow"],"right_color":"orange","left_color":"lightblue","left_mu":40,"right_mu":36,"left_numbers":[35,50,26,52,35],"right_numbers":[33,28,24,35,34],"points_earned":179,"phase":"task","trial_type":"horizons-task","trial_index":75,"time_elapsed":1173927,"internal_node_id":"0.0-71.0","task_version":"0.2"},{"response_times":[815.7050000154413,701.2850000173785,923.1150000123307,858.3400000352412,670.624999969732],"keys_pressed":["leftarrow","rightarrow","leftarrow","leftarrow","leftarrow"],"horizon":5,"forced_choices":["leftarrow","rightarrow","leftarrow","leftarrow"],"right_color":"lightblue","left_color":"orange","left_mu":40,"right_mu":28,"left_numbers":[47,38,59,50,23],"right_numbers":[8,27,30,18,17],"points_earned":206,"phase":"task","trial_type":"horizons-task","trial_index":76,"time_elapsed":1179403,"internal_node_id":"0.0-72.0","task_version":"0.2"},{"response_times":[676.2500000186265,401.6350000165403,628.4200000227429,727.7950000134297,1539.8600000189617],"keys_pressed":["leftarrow","rightarrow","rightarrow","leftarrow","rightarrow"],"horizon":5,"forced_choices":["leftarrow","rightarrow","rightarrow","leftarrow"],"right_color":"lightblue","left_color":"orange","left_mu":40,"right_mu":52,"left_numbers":[38,34,46,41,35],"right_numbers":[62,51,46,54,56],"points_earned":232,"phase":"task","trial_type":"horizons-task","trial_index":77,"time_elapsed":1184887,"internal_node_id":"0.0-73.0","task_version":"0.2"},{"response_times":[605.2250000066124,497.44500004453585,996.3599999900907,722.5399999879301,1756.7899999557994],"keys_pressed":["leftarrow","leftarrow","leftarrow","rightarrow","leftarrow"],"horizon":5,"forced_choices":["leftarrow","leftarrow","leftarrow","rightarrow"],"right_color":"lightblue","left_color":"orange","left_mu":60,"right_mu":72,"left_numbers":[68,52,56,70,58],"right_numbers":[72,86,71,81,91],"points_earned":315,"phase":"task","trial_type":"horizons-task","trial_index":78,"time_elapsed":1190976,"internal_node_id":"0.0-74.0","task_version":"0.2"},{"response_times":[692.5599999958649,525.3900000243448,829.8850000137463,551.5649999724701,2120.230000000447,1291.1250000470318,806.5850000130013,600.3149999887682,635.1750000030734,200.01999998930842],"keys_pressed":["rightarrow","rightarrow","leftarrow","leftarrow","rightarrow","leftarrow","rightarrow","rightarrow","rightarrow","rightarrow"],"horizon":10,"forced_choices":["rightarrow","rightarrow","leftarrow","leftarrow"],"right_color":"lightblue","left_color":"orange","left_mu":60,"right_mu":72,"left_numbers":[52,57,55,56,59,44,55,60,77,59],"right_numbers":[75,68,68,78,65,74,61,68,59,59],"points_earned":610,"phase":"task","trial_type":"horizons-task","trial_index":79,"time_elapsed":1200753,"internal_node_id":"0.0-75.0","task_version":"0.2"},{"response_times":[696.2300000013784,562.5850000069477,562.4100000131875,541.2900000228547,1653.72500004014,982.929999998305,730.6499999831431,1019.7199999820441,506.1100000166334,357.08500002510846],"keys_pressed":["rightarrow","rightarrow","leftarrow","rightarrow","leftarrow","leftarrow","leftarrow","leftarrow","leftarrow","leftarrow"],"horizon":10,"forced_choices":["rightarrow","rightarrow","leftarrow","rightarrow"],"right_color":"orange","left_color":"lightblue","left_mu":60,"right_mu":40,"left_numbers":[72,77,53,66,61,55,55,57,62,70],"right_numbers":[26,40,39,29,43,36,25,35,40,30],"points_earned":508,"phase":"task","trial_type":"horizons-task","trial_index":80,"time_elapsed":1209873,"internal_node_id":"0.0-76.0","task_version":"0.2"},{"response_times":[775.545000040438,614.244999946095,1502.135000017006,861.6949999704957,731.9799999822862,855.4299999959767,785.1500000106171,1229.7799999942072,575.7999999914318,421.4750000392087],"keys_pressed":["rightarrow","rightarrow","rightarrow","leftarrow","leftarrow","leftarrow","leftarrow","leftarrow","leftarrow","leftarrow"],"horizon":10,"forced_choices":["rightarrow","rightarrow","rightarrow","leftarrow"],"right_color":"lightblue","left_color":"orange","left_mu":60,"right_mu":30,"left_numbers":[48,50,61,62,72,67,50,61,63,60],"right_numbers":[17,19,22,18,45,30,36,7,55,24],"points_earned":493,"phase":"task","trial_type":"horizons-task","trial_index":81,"time_elapsed":1219734,"internal_node_id":"0.0-77.0","task_version":"0.2"},{"response_times":[661.66499996325,560.4750000056811,629.4299999717623,706.304999999702,1903.2449999940582,793.3850000263192,1618.079999985639,480.64000002341345,1184.6950000035577,511.41000003553927],"keys_pressed":["leftarrow","leftarrow","rightarrow","leftarrow","rightarrow","rightarrow","rightarrow","rightarrow","rightarrow","rightarrow"],"horizon":10,"forced_choices":["leftarrow","leftarrow","rightarrow","leftarrow"],"right_color":"lightblue","left_color":"orange","left_mu":40,"right_mu":60,"left_numbers":[49,37,48,40,41,36,38,35,42,33],"right_numbers":[60,64,64,63,67,51,65,64,55,53],"points_earned":545,"phase":"task","trial_type":"horizons-task","trial_index":82,"time_elapsed":1230297,"internal_node_id":"0.0-78.0","task_version":"0.2"},{"response_times":[765.9449999919161,431.08000000938773,786.7499999701977,753.6199999740347,2223.2550000189804,702.0699999993667,924.8450000304729,557.2900000261143,400.7550000096671,447.76000001002103],"keys_pressed":["leftarrow","leftarrow","leftarrow","rightarrow","rightarrow","leftarrow","leftarrow","leftarrow","leftarrow","leftarrow"],"horizon":10,"forced_choices":["leftarrow","leftarrow","leftarrow","rightarrow"],"right_color":"lightblue","left_color":"orange","left_mu":40,"right_mu":20,"left_numbers":[41,43,48,44,42,35,50,45,46,42],"right_numbers":[11,15,17,18,24,17,8,17,12,34],"points_earned":392,"phase":"task","trial_type":"horizons-task","trial_index":83,"time_elapsed":1239801,"internal_node_id":"0.0-79.0","task_version":"0.2"},{"response_times":[781.1150000197813,405.48000001581386,1128.8599999970756,1041.0200000042096,1941.8299999670126],"keys_pressed":["rightarrow","leftarrow","rightarrow","leftarrow","rightarrow"],"horizon":5,"forced_choices":["rightarrow","leftarrow","rightarrow","leftarrow"],"right_color":"lightblue","left_color":"orange","left_mu":60,"right_mu":80,"left_numbers":[64,56,66,64,44],"right_numbers":[64,81,67,58,83],"points_earned":334,"phase":"task","trial_type":"horizons-task","trial_index":84,"time_elapsed":1246606,"internal_node_id":"0.0-80.0","task_version":"0.2"},{"response_times":[588.6349999927916,664.9450000259094,1331.670000043232,1100.174999970477,622.1799999475479,641.3049999973737,576.4000000199303,1078.2600000384264,649.3899999768473,362.77000000700355],"keys_pressed":["rightarrow","leftarrow","leftarrow","rightarrow","rightarrow","rightarrow","rightarrow","rightarrow","rightarrow","rightarrow"],"horizon":10,"forced_choices":["rightarrow","leftarrow","leftarrow","rightarrow"],"right_color":"lightblue","left_color":"orange","left_mu":60,"right_mu":90,"left_numbers":[55,67,73,53,52,53,62,58,53,61],"right_numbers":[109,103,92,93,92,88,91,86,91,79],"points_earned":869,"phase":"task","trial_type":"horizons-task","trial_index":85,"time_elapsed":1255728,"internal_node_id":"0.0-81.0","task_version":"0.2"},{"response_times":[701.3399999705143,457.7350000035949,990.8800000557676,1629.51499997871,1773.8399999798276],"keys_pressed":["rightarrow","leftarrow","rightarrow","rightarrow","rightarrow"],"horizon":5,"forced_choices":["rightarrow","leftarrow","rightarrow","rightarrow"],"right_color":"orange","left_color":"lightblue","left_mu":60,"right_mu":52,"left_numbers":[59,54,51,60,57],"right_numbers":[67,62,44,61,49],"points_earned":275,"phase":"task","trial_type":"horizons-task","trial_index":86,"time_elapsed":1262790,"internal_node_id":"0.0-82.0","task_version":"0.2"},{"response_times":[692.1049999655224,578.719999990426,654.1399999987334,736.2800000119023,863.515000033658],"keys_pressed":["leftarrow","leftarrow","rightarrow","rightarrow","leftarrow"],"horizon":5,"forced_choices":["leftarrow","leftarrow","rightarrow","rightarrow"],"right_color":"lightblue","left_color":"orange","left_mu":40,"right_mu":32,"left_numbers":[25,33,35,51,56],"right_numbers":[36,20,29,33,25],"points_earned":176,"phase":"task","trial_type":"horizons-task","trial_index":87,"time_elapsed":1267820,"internal_node_id":"0.0-83.0","task_version":"0.2"},{"response_times":[662.3149999650195,492.19000001903623,577.4400000227615,917.1750000095926,1459.340000001248],"keys_pressed":["rightarrow","rightarrow","leftarrow","rightarrow","rightarrow"],"horizon":5,"forced_choices":["rightarrow","rightarrow","leftarrow","rightarrow"],"right_color":"orange","left_color":"lightblue","left_mu":60,"right_mu":40,"left_numbers":[50,62,45,48,60],"right_numbers":[50,37,43,38,30],"points_earned":200,"phase":"task","trial_type":"horizons-task","trial_index":88,"time_elapsed":1273442,"internal_node_id":"0.0-84.0","task_version":"0.2"},{"response_times":[651.2450000154786,633.5350000299513,747.5700000068173,792.2050000051968,1874.7499999590218,1619.21999999322,1434.590000018943,649.6250000200234,1021.889999974519,670.1699999975972],"keys_pressed":["rightarrow","leftarrow","leftarrow","leftarrow","rightarrow","rightarrow","rightarrow","leftarrow","rightarrow","rightarrow"],"horizon":10,"forced_choices":["rightarrow","leftarrow","leftarrow","leftarrow"],"right_color":"orange","left_color":"lightblue","left_mu":60,"right_mu":68,"left_numbers":[60,58,66,61,59,71,56,61,75,52],"right_numbers":[78,67,66,70,65,65,61,69,73,70],"points_earned":658,"phase":"task","trial_type":"horizons-task","trial_index":89,"time_elapsed":1285045,"internal_node_id":"0.0-85.0","task_version":"0.2"},{"response_times":[748.8799999700859,439.69000002834946,943.5250000096858,1243.4599999687634,757.8450000146404],"keys_pressed":["leftarrow","rightarrow","leftarrow","leftarrow","leftarrow"],"horizon":5,"forced_choices":["leftarrow","rightarrow","leftarrow","leftarrow"],"right_color":"orange","left_color":"lightblue","left_mu":40,"right_mu":44,"left_numbers":[50,37,47,32,33],"right_numbers":[49,39,38,43,54],"points_earned":201,"phase":"task","trial_type":"horizons-task","trial_index":90,"time_elapsed":1290692,"internal_node_id":"0.0-86.0","task_version":"0.2"},{"response_times":[813.1900000153109,498.6700000008568,1032.3249999783002,767.1200000331737,1300.0500000198372,757.5450000003912,2218.7249999842606,494.89500001072884,609.230000001844,445.10499999159947],"keys_pressed":["rightarrow","leftarrow","rightarrow","rightarrow","leftarrow","rightarrow","leftarrow","rightarrow","rightarrow","rightarrow"],"horizon":10,"forced_choices":["rightarrow","leftarrow","rightarrow","rightarrow"],"right_color":"orange","left_color":"lightblue","left_mu":60,"right_mu":52,"left_numbers":[72,65,58,59,52,76,60,65,45,56],"right_numbers":[46,53,40,56,52,64,56,43,47,47],"points_earned":520,"phase":"task","trial_type":"horizons-task","trial_index":91,"time_elapsed":1301141,"internal_node_id":"0.0-87.0","task_version":"0.2"},{"rt":28275.25499998592,"responses":{"age":"47","gender-categorical":"Male","gender-free-response":"","ethnicity":"Not Hispanic or Latino","race":["White"],"language":"Yes","fluency":"Very well"},"survey":"demographics","trial_type":"survey-demo","trial_index":92,"time_elapsed":1329425,"internal_node_id":"0.0-88.0","task_version":"0.2"},{"rt":76337.16499997536,"responses":{"difficulty":"3","fun":"5","clarity":"5","strategy":"I tried to keep selecting the \"hot\" machine","feedback":"Interesting and fun study. Not enough of these studies are as interactive as this one..."},"survey":"debrief","trial_type":"survey-debrief","trial_index":93,"time_elapsed":1405774,"internal_node_id":"0.0-89.0","task_version":"0.2","interactions":"[]"}]