[{"view_history":"[{\"page_index\":0,\"viewing_time\":2771.4249999262393}]","rt":2771.9550000038,"trial_type":"instructions","trial_index":0,"time_elapsed":2781,"internal_node_id":"0.0-0.0","task_version":"0.2"},{"item_order":[1,9,6,10,4,2,5,11,7,8,0,3,12],"responses":{"Q02":"3","Q10":"2","Q07":"2","Q11":"2","Q05":"3","Q03":"2","Q06":"1","Q12":"1","Q08":"3","Q09":"2","Q01":"2","Q04":"2","Q13":"4"},"radio_events":[6028.660000069067,6789.005000027828,9092.535000061616,12965.030000079423,14556.525000021793,16676.710000028834,19412.849999964237,22044.77500007488,23948.815000010654,27444.660000037402,29460.6850000564,33908.67000003345,37220.77500005253],"key_events":[],"mouse_events":[0.0950000248849392,3772.9350000154227,4908.5999999661,5372.785000014119,6028.660000069067,6789.005000027828,9092.535000061616,12965.030000079423,14556.525000021793,16676.710000028834,19412.849999964237,22044.77500007488,23948.815000010654,27444.660000037402,29460.6850000564,33908.67000003345,37220.77500005253,42221.10500000417],"rt":42224.45500001777,"survey":"ius12","trial_type":"survey-template","trial_index":1,"time_elapsed":45010,"internal_node_id":"0.0-1.0","task_version":"0.2"},{"item_order":[4,7,16,12,10,5,6,3,13,11,2,9,8,0,1,14,15],"responses":{"Q05":"3","Q08":"3","Q17":"0","Q13":"2","Q11":"3","Q06":"3","Q07":"2","Q04":"2","Q14":"3","Q12":"3","Q03":"4","Q10":"4","Q09":"1","Q01":"3","Q02":"2","Q15":"2","Q16":"2"},"radio_events":[5686.649999930523,8406.764999963343,10222.754999995232,12526.634999900125,15310.609999927692,16974.709999980405,18710.43999993708,21118.459999910556,21926.949999993667,25350.804999936372,26366.589999990538,27806.429999996908,29334.819999989122,31622.40499991458,33142.72499992512,34830.729999928735,36758.799999952316],"key_events":[],"mouse_events":[5686.649999930523,8406.764999963343,10222.754999995232,12526.634999900125,15310.609999927692,16974.709999980405,18710.43999993708,21118.459999910556,21926.949999993667,25350.804999936372,26366.589999990538,27806.429999996908,29334.819999989122,31622.40499991458,33142.72499992512,34830.729999928735,35894.76499997545,36758.799999952316,37814.489999902435],"rt":37816.57999998424,"survey":"pswq","trial_type":"survey-template","trial_index":2,"time_elapsed":82831,"internal_node_id":"0.0-2.0","task_version":"0.2"},{"item_order":[9,13,8,4,1,11,2,6,12,0,3,5,15,7,14,10],"responses":{"Q10":"3","Q14":"2","Q09":"3","Q05":"4","Q02":"1","Q12":"1","Q03":"2","Q07":"3","Q13":"1","Q01":"4","Q04":"3","Q06":"3","Q16":"5","Q08":"3","Q15":"3","Q11":"2"},"radio_events":[5770.894999965094,8290.569999953732,15858.389999950305,18059.3349999981,21074.474999913946,25106.264999951236,26642.319999984466,28938.379999948665,31178.264999995008,33274.32499988936,40194.51499998104,40978.21499989368,43714.26999999676,45994.36499993317,47658.33499992732,50250.23999996483],"key_events":[],"mouse_events":[5770.894999965094,8290.569999953732,15858.389999950305,18059.3349999981,20626.47499993909,21074.474999913946,25106.264999951236,26642.319999984466,28938.379999948665,31178.264999995008,33274.32499988936,35634.53499996103,39746.27000000328,40194.51499998104,40978.21499989368,43714.26999999676,45994.36499993317,47658.33499992732,50250.23999996483,50978.519999887794],"rt":50980.90499988757,"survey":"nfc","trial_type":"survey-template","trial_index":3,"time_elapsed":133816,"internal_node_id":"0.0-3.0","task_version":"0.2"},{"view_history":"[{\"page_index\":0,\"viewing_time\":3867.369999992661},{\"page_index\":1,\"viewing_time\":6695.54500002414},{\"page_index\":2,\"viewing_time\":6335.89500002563},{\"page_index\":3,\"viewing_time\":9096.279999939725},{\"page_index\":4,\"viewing_time\":3871.805000002496},{\"page_index\":5,\"viewing_time\":6624.360000016168},{\"page_index\":6,\"viewing_time\":7807.655000011437},{\"page_index\":7,\"viewing_time\":5048.769999993965},{\"page_index\":8,\"viewing_time\":5847.160000004806},{\"page_index\":9,\"viewing_time\":4728.050000034273}]","rt":59923.135000048205,"trial_type":"instructions","trial_index":4,"time_elapsed":193740,"internal_node_id":"0.0-4.0-0.0","task_version":"0.2"},{"response_times":[1608.5999999195337,1407.5400000438094,1087.8650000086054,1552.5200000265613,3071.7299999669194],"keys_pressed":["rightarrow","leftarrow","rightarrow","rightarrow","leftarrow"],"horizon":5,"forced_choices":["rightarrow","leftarrow","rightarrow","rightarrow"],"right_color":"lightblue","left_color":"orange","left_mu":40,"right_mu":20,"left_numbers":[33,48,26,36,39],"right_numbers":[42,19,9,28,15],"points_earned":166,"phase":"practice","trial_type":"horizons-task","trial_index":5,"time_elapsed":203978,"internal_node_id":"0.0-4.0-1.0","task_version":"0.2"},{"response_times":[1170.1500000199303,1197.5150000071153,832.0149999344721,768.184999935329,3407.909999950789,2159.8050000611693,1793.1549999630079,2798.784999991767,592.6650000037625,783.5350000532344],"keys_pressed":["leftarrow","leftarrow","rightarrow","rightarrow","rightarrow","rightarrow","rightarrow","leftarrow","rightarrow","rightarrow"],"horizon":10,"forced_choices":["leftarrow","leftarrow","rightarrow","rightarrow"],"right_color":"orange","left_color":"lightblue","left_mu":60,"right_mu":70,"left_numbers":[59,53,66,63,73,71,64,50,66,54],"right_numbers":[66,75,73,85,63,73,73,74,63,77],"points_earned":669,"phase":"practice","trial_type":"horizons-task","trial_index":6,"time_elapsed":220985,"internal_node_id":"0.0-4.0-2.0","task_version":"0.2"},{"view_history":"[{\"page_index\":0,\"viewing_time\":3242.255000048317},{\"page_index\":1,\"viewing_time\":2448.039999930188},{\"page_index\":2,\"viewing_time\":3056.014999980107},{\"page_index\":3,\"viewing_time\":1688.0600000731647}]","rt":10434.649999951944,"trial_type":"instructions","trial_index":7,"time_elapsed":231420,"internal_node_id":"0.0-4.0-3.0","task_version":"0.2"},{"responses":["true","false","true"],"num_errors":0,"rt":6406.859999988228,"trial_type":"horizons-comprehension","trial_index":8,"time_elapsed":237828,"internal_node_id":"0.0-4.0-4.0","task_version":"0.2"},{"trial_type":"call-function","trial_index":9,"time_elapsed":237831,"internal_node_id":"0.0-5.0","task_version":"0.2"},{"view_history":"[{\"page_index\":0,\"viewing_time\":1644.510000012815},{\"page_index\":1,\"viewing_time\":4519.949999987148}]","rt":6164.744999958202,"trial_type":"instructions","trial_index":10,"time_elapsed":243996,"internal_node_id":"0.0-6.0","task_version":"0.2"},{"response_times":[1290.6149999471381,863.8949999585748,656.055000028573,737.3399999924004,2238.774999976158,895.8700000075623,783.8900000788271,896.1049999343231,528.154999949038,672.010000096634],"keys_pressed":["rightarrow","leftarrow","rightarrow","leftarrow","leftarrow","leftarrow","rightarrow","leftarrow","leftarrow","leftarrow"],"horizon":10,"forced_choices":["rightarrow","leftarrow","rightarrow","leftarrow"],"right_color":"orange","left_color":"lightblue","left_mu":40,"right_mu":10,"left_numbers":[35,36,38,35,48,27,56,30,38,29],"right_numbers":[16,0,24,7,21,0,2,13,0,4],"points_earned":285,"phase":"task","trial_type":"horizons-task","trial_index":11,"time_elapsed":255065,"internal_node_id":"0.0-7.0","task_version":"0.2"},{"response_times":[2224.0799999563023,592.9900000337511,894.9599999468774,671.985000022687,1376.3550000730902,719.5649999193847,848.0899999849498,912.0900001144037,912.0600000023842,2399.9100000364706],"keys_pressed":["rightarrow","leftarrow","leftarrow","rightarrow","leftarrow","rightarrow","leftarrow","leftarrow","rightarrow","leftarrow"],"horizon":10,"forced_choices":["rightarrow","leftarrow","leftarrow","rightarrow"],"right_color":"lightblue","left_color":"orange","left_mu":40,"right_mu":36,"left_numbers":[28,40,47,53,40,37,33,27,41,38],"right_numbers":[43,35,40,42,26,25,44,51,35,37],"points_earned":370,"phase":"task","trial_type":"horizons-task","trial_index":12,"time_elapsed":268121,"internal_node_id":"0.0-8.0","task_version":"0.2"},{"response_times":[1889.879999915138,638.829999952577,1472.0150000648573,927.945000003092,1903.9600000251085,1856.0900000156835,815.8899999689311,831.9600000977516,752.0299999741837,719.9950000504032],"keys_pressed":["rightarrow","rightarrow","leftarrow","rightarrow","leftarrow","leftarrow","leftarrow","leftarrow","leftarrow","leftarrow"],"horizon":10,"forced_choices":["rightarrow","rightarrow","leftarrow","rightarrow"],"right_color":"lightblue","left_color":"orange","left_mu":60,"right_mu":48,"left_numbers":[61,58,69,61,57,57,70,55,51,53],"right_numbers":[48,35,45,40,50,46,45,55,41,44],"points_earned":535,"phase":"task","trial_type":"horizons-task","trial_index":13,"time_elapsed":281432,"internal_node_id":"0.0-9.0","task_version":"0.2"},{"response_times":[2434.099999954924,846.4600000297651,751.8600000767037,831.9850000552833,2464.009999996051],"keys_pressed":["rightarrow","rightarrow","rightarrow","leftarrow","leftarrow"],"horizon":5,"forced_choices":["rightarrow","rightarrow","rightarrow","leftarrow"],"right_color":"orange","left_color":"lightblue","left_mu":60,"right_mu":52,"left_numbers":[76,61,56,61,73],"right_numbers":[48,53,60,53,44],"points_earned":295,"phase":"task","trial_type":"horizons-task","trial_index":14,"time_elapsed":290264,"internal_node_id":"0.0-10.0","task_version":"0.2"},{"response_times":[1744.6299999719486,975.8399999700487,783.9849999872968,848.8999999826774,1871.3699999498203,2111.8449999485165,1103.8100000005215,719.9750000145286,607.9149999422953,688.0499999970198],"keys_pressed":["leftarrow","leftarrow","rightarrow","leftarrow","rightarrow","leftarrow","leftarrow","rightarrow","rightarrow","rightarrow"],"horizon":10,"forced_choices":["leftarrow","leftarrow","rightarrow","leftarrow"],"right_color":"lightblue","left_color":"orange","left_mu":60,"right_mu":68,"left_numbers":[38,43,58,51,49,68,52,63,62,57],"right_numbers":[70,75,73,54,61,74,61,75,86,58],"points_earned":605,"phase":"task","trial_type":"horizons-task","trial_index":15,"time_elapsed":303230,"internal_node_id":"0.0-11.0","task_version":"0.2"},{"response_times":[1434.9200000287965,686.9250000454485,784.0149999829009,768.0549999931827,2143.859999952838,1376.010000007227,1072.4199999822304,895.8750000456348,911.7049999767914,1681.0100000584498],"keys_pressed":["leftarrow","rightarrow","rightarrow","rightarrow","leftarrow","rightarrow","rightarrow","rightarrow","rightarrow","rightarrow"],"horizon":10,"forced_choices":["leftarrow","rightarrow","rightarrow","rightarrow"],"right_color":"lightblue","left_color":"orange","left_mu":40,"right_mu":32,"left_numbers":[28,37,36,36,31,35,37,34,32,47],"right_numbers":[17,34,22,45,32,32,48,43,7,33],"points_earned":323,"phase":"task","trial_type":"horizons-task","trial_index":16,"time_elapsed":316490,"internal_node_id":"0.0-12.0","task_version":"0.2"},{"response_times":[799.6399999829009,720.0849999208003,719.965000054799,639.9299999466166,3168.139999965206],"keys_pressed":["leftarrow","rightarrow","leftarrow","rightarrow","leftarrow"],"horizon":5,"forced_choices":["leftarrow","rightarrow","leftarrow","rightarrow"],"right_color":"lightblue","left_color":"orange","left_mu":60,"right_mu":56,"left_numbers":[63,53,56,62,65],"right_numbers":[54,60,55,57,54],"points_earned":301,"phase":"task","trial_type":"horizons-task","trial_index":17,"time_elapsed":324040,"internal_node_id":"0.0-13.0","task_version":"0.2"},{"response_times":[2192.9300000192598,799.1549998987466,895.8499999716878,768.225000007078,2527.754999930039,863.8649999629706,959.9949999246746,831.9449999835342,783.9399999938905,560.2799999760464],"keys_pressed":["rightarrow","leftarrow","leftarrow","leftarrow","rightarrow","rightarrow","leftarrow","leftarrow","rightarrow","rightarrow"],"horizon":10,"forced_choices":["rightarrow","leftarrow","leftarrow","leftarrow"],"right_color":"orange","left_color":"lightblue","left_mu":40,"right_mu":48,"left_numbers":[29,39,49,26,54,43,52,37,50,41],"right_numbers":[43,39,42,49,47,57,57,48,56,50],"points_earned":456,"phase":"task","trial_type":"horizons-task","trial_index":18,"time_elapsed":336729,"internal_node_id":"0.0-14.0","task_version":"0.2"},{"response_times":[2576.024999958463,639.0150000806898,1039.9500000057742,735.9199998900294,2320.3200000571087,607.6700000558048,991.9199999421835,1104.0450000436977,1184.015000006184,655.8900000527501],"keys_pressed":["rightarrow","rightarrow","leftarrow","leftarrow","leftarrow","rightarrow","rightarrow","rightarrow","rightarrow","rightarrow"],"horizon":10,"forced_choices":["rightarrow","rightarrow","leftarrow","leftarrow"],"right_color":"lightblue","left_color":"orange","left_mu":60,"right_mu":48,"left_numbers":[50,63,49,45,48,57,61,60,64,72],"right_numbers":[41,46,55,32,38,60,52,60,62,45],"points_earned":508,"phase":"task","trial_type":"horizons-task","trial_index":19,"time_elapsed":350089,"internal_node_id":"0.0-15.0","task_version":"0.2"},{"response_times":[1729.300000006333,1118.750000023283,624.0949999773875,783.9950000634417,2911.8999999482185,591.9099999591708,1408.0149999354035,767.9550000466406,688.0349999992177,527.9200000222772],"keys_pressed":["rightarrow","rightarrow","leftarrow","leftarrow","leftarrow","rightarrow","rightarrow","leftarrow","rightarrow","rightarrow"],"horizon":10,"forced_choices":["rightarrow","rightarrow","leftarrow","leftarrow"],"right_color":"orange","left_color":"lightblue","left_mu":40,"right_mu":48,"left_numbers":[34,32,36,42,44,29,35,32,34,39],"right_numbers":[53,34,42,53,51,38,47,63,59,51],"points_earned":436,"phase":"task","trial_type":"horizons-task","trial_index":20,"time_elapsed":362745,"internal_node_id":"0.0-16.0","task_version":"0.2"},{"response_times":[1585.2100000483915,638.8599999481812,448.3699999982491,719.5449999999255,2848.065000027418],"keys_pressed":["leftarrow","leftarrow","rightarrow","leftarrow","rightarrow"],"horizon":5,"forced_choices":["leftarrow","leftarrow","rightarrow","leftarrow"],"right_color":"orange","left_color":"lightblue","left_mu":40,"right_mu":70,"left_numbers":[36,36,43,43,39],"right_numbers":[72,61,72,72,78],"points_earned":265,"phase":"task","trial_type":"horizons-task","trial_index":21,"time_elapsed":370490,"internal_node_id":"0.0-17.0","task_version":"0.2"},{"response_times":[639.2950000008568,623.9150000037625,575.9749999269843,832.0400000084192,1248.9199999254197],"keys_pressed":["leftarrow","leftarrow","rightarrow","rightarrow","leftarrow"],"horizon":5,"forced_choices":["leftarrow","leftarrow","rightarrow","rightarrow"],"right_color":"lightblue","left_color":"orange","left_mu":40,"right_mu":28,"left_numbers":[44,42,34,35,37],"right_numbers":[18,20,29,14,34],"points_earned":166,"phase":"task","trial_type":"horizons-task","trial_index":22,"time_elapsed":375914,"internal_node_id":"0.0-18.0","task_version":"0.2"},{"response_times":[752.1649999544024,895.9400000749156,799.9950000084937,847.9350000852719,1152.1600000560284],"keys_pressed":["leftarrow","rightarrow","rightarrow","rightarrow","leftarrow"],"horizon":5,"forced_choices":["leftarrow","rightarrow","rightarrow","rightarrow"],"right_color":"lightblue","left_color":"orange","left_mu":40,"right_mu":32,"left_numbers":[49,47,45,35,38],"right_numbers":[31,24,23,19,19],"points_earned":153,"phase":"task","trial_type":"horizons-task","trial_index":23,"time_elapsed":381865,"internal_node_id":"0.0-19.0","task_version":"0.2"},{"response_times":[1436.6549999685958,1281.2599999597296,798.6149999778718,768.6400000238791,1775.38500004448,927.8149999445304,608.1949999788776,911.809999961406,591.9850000645965,800.2250000135973],"keys_pressed":["leftarrow","leftarrow","rightarrow","rightarrow","rightarrow","rightarrow","leftarrow","rightarrow","rightarrow","rightarrow"],"horizon":10,"forced_choices":["leftarrow","leftarrow","rightarrow","rightarrow"],"right_color":"orange","left_color":"lightblue","left_mu":60,"right_mu":72,"left_numbers":[58,48,63,58,52,65,59,60,56,74],"right_numbers":[77,60,64,79,72,70,57,68,54,69],"points_earned":641,"phase":"task","trial_type":"horizons-task","trial_index":24,"time_elapsed":393274,"internal_node_id":"0.0-20.0","task_version":"0.2"},{"response_times":[3664.6050000563264,526.1199999367818,687.9900000058115,623.8650000886992,2863.8749999227],"keys_pressed":["rightarrow","leftarrow","leftarrow","rightarrow","rightarrow"],"horizon":5,"forced_choices":["rightarrow","leftarrow","leftarrow","rightarrow"],"right_color":"lightblue","left_color":"orange","left_mu":60,"right_mu":68,"left_numbers":[75,68,49,71,55],"right_numbers":[71,69,61,59,48],"points_earned":295,"phase":"task","trial_type":"horizons-task","trial_index":25,"time_elapsed":403145,"internal_node_id":"0.0-21.0","task_version":"0.2"},{"response_times":[831.7349998978898,719.9049999471754,928.0099999159575,863.9449999900535,2017.3900000518188],"keys_pressed":["leftarrow","rightarrow","rightarrow","rightarrow","rightarrow"],"horizon":5,"forced_choices":["leftarrow","rightarrow","rightarrow","rightarrow"],"right_color":"lightblue","left_color":"orange","left_mu":60,"right_mu":90,"left_numbers":[51,70,66,61,60],"right_numbers":[104,107,93,64,83],"points_earned":398,"phase":"task","trial_type":"horizons-task","trial_index":26,"time_elapsed":410010,"internal_node_id":"0.0-22.0","task_version":"0.2"},{"response_times":[1039.615000016056,623.9999999525025,688.0549999186769,703.8800000445917,1760.619999957271],"keys_pressed":["rightarrow","rightarrow","rightarrow","leftarrow","leftarrow"],"horizon":5,"forced_choices":["rightarrow","rightarrow","rightarrow","leftarrow"],"right_color":"lightblue","left_color":"orange","left_mu":40,"right_mu":36,"left_numbers":[44,49,34,54,46],"right_numbers":[28,42,46,28,40],"points_earned":216,"phase":"task","trial_type":"horizons-task","trial_index":27,"time_elapsed":416329,"internal_node_id":"0.0-23.0","task_version":"0.2"},{"response_times":[832.384999957867,575.9850000031292,816.6699999710545,591.2800000514835,1871.8249999219552,735.9849999193102,495.8649999462068,624.0600000601262,512.0549999410287,528.1149999937043],"keys_pressed":["leftarrow","leftarrow","leftarrow","rightarrow","leftarrow","leftarrow","rightarrow","leftarrow","leftarrow","leftarrow"],"horizon":10,"forced_choices":["leftarrow","leftarrow","leftarrow","rightarrow"],"right_color":"orange","left_color":"lightblue","left_mu":40,"right_mu":10,"left_numbers":[20,40,56,45,35,37,39,34,28,36],"right_numbers":[10,4,17,14,26,4,0,17,8,14],"points_earned":300,"phase":"task","trial_type":"horizons-task","trial_index":28,"time_elapsed":425417,"internal_node_id":"0.0-24.0","task_version":"0.2"},{"response_times":[2335.755000007339,703.8650000467896,929.0699999546632,750.9749999735504,1184.3649999937043,623.4799999510869,576.035000034608,799.8800000641495,688.1450000219047,607.8850000631064],"keys_pressed":["leftarrow","rightarrow","rightarrow","rightarrow","leftarrow","rightarrow","rightarrow","rightarrow","rightarrow","rightarrow"],"horizon":10,"forced_choices":["leftarrow","rightarrow","rightarrow","rightarrow"],"right_color":"lightblue","left_color":"orange","left_mu":60,"right_mu":90,"left_numbers":[74,56,57,80,48,57,51,59,46,58],"right_numbers":[97,88,94,85,91,70,85,102,99,89],"points_earned":834,"phase":"task","trial_type":"horizons-task","trial_index":29,"time_elapsed":436121,"internal_node_id":"0.0-25.0","task_version":"0.2"},{"response_times":[2063.6950000189245,719.6950000943616,913.0099999019876,799.2999999551103,2335.759999928996,591.8799999635667,576.05000003241,575.8950000163168,479.9950000597164,528.4650000976399],"keys_pressed":["rightarrow","leftarrow","leftarrow","rightarrow","rightarrow","leftarrow","rightarrow","rightarrow","rightarrow","rightarrow"],"horizon":10,"forced_choices":["rightarrow","leftarrow","leftarrow","rightarrow"],"right_color":"lightblue","left_color":"orange","left_mu":60,"right_mu":68,"left_numbers":[58,56,63,48,67,63,56,57,57,65],"right_numbers":[79,70,76,77,73,58,70,77,64,68],"points_earned":690,"phase":"task","trial_type":"horizons-task","trial_index":30,"time_elapsed":447209,"internal_node_id":"0.0-26.0","task_version":"0.2"},{"response_times":[1807.8800000948831,576.1449999408796,816.8650000588968,846.9350000377744,896.0750000551343],"keys_pressed":["rightarrow","leftarrow","leftarrow","leftarrow","rightarrow"],"horizon":5,"forced_choices":["rightarrow","leftarrow","leftarrow","leftarrow"],"right_color":"orange","left_color":"lightblue","left_mu":60,"right_mu":80,"left_numbers":[74,53,66,63,64],"right_numbers":[86,90,85,81,86],"points_earned":354,"phase":"task","trial_type":"horizons-task","trial_index":31,"time_elapsed":453656,"internal_node_id":"0.0-27.0","task_version":"0.2"},{"response_times":[1281.0749999480322,624.115000013262,687.7450000029057,608.0000000074506,975.8850000798702,544.0500000258908,1231.995000038296,703.9349999977276,785.2399999974295,1262.7649999922141],"keys_pressed":["leftarrow","rightarrow","leftarrow","rightarrow","leftarrow","leftarrow","leftarrow","leftarrow","leftarrow","leftarrow"],"horizon":10,"forced_choices":["leftarrow","rightarrow","leftarrow","rightarrow"],"right_color":"lightblue","left_color":"orange","left_mu":60,"right_mu":40,"left_numbers":[66,69,63,67,68,47,53,68,69,61],"right_numbers":[51,20,32,40,41,42,42,30,39,41],"points_earned":555,"phase":"task","trial_type":"horizons-task","trial_index":32,"time_elapsed":463864,"internal_node_id":"0.0-28.0","task_version":"0.2"},{"response_times":[1489.439999917522,831.8950000684708,768.0449999170378,655.9099999722093,1888.039999990724,559.9550000624731,1008.0249999882653,833.0650000134483,606.7850000690669,496.0150000406429],"keys_pressed":["rightarrow","leftarrow","leftarrow","rightarrow","leftarrow","rightarrow","rightarrow","leftarrow","rightarrow","rightarrow"],"horizon":10,"forced_choices":["rightarrow","leftarrow","leftarrow","rightarrow"],"right_color":"lightblue","left_color":"orange","left_mu":40,"right_mu":44,"left_numbers":[39,22,45,36,43,53,46,34,30,34],"right_numbers":[47,42,41,41,30,54,36,53,46,41],"points_earned":409,"phase":"task","trial_type":"horizons-task","trial_index":33,"time_elapsed":474505,"internal_node_id":"0.0-29.0","task_version":"0.2"},{"response_times":[1551.7049999907613,495.8649999462068,720.1750000240281,1167.8599999286234,1103.9600000949576],"keys_pressed":["leftarrow","rightarrow","rightarrow","leftarrow","rightarrow"],"horizon":5,"forced_choices":["leftarrow","rightarrow","rightarrow","leftarrow"],"right_color":"orange","left_color":"lightblue","left_mu":40,"right_mu":70,"left_numbers":[52,42,39,43,33],"right_numbers":[61,72,74,59,70],"points_earned":311,"phase":"task","trial_type":"horizons-task","trial_index":34,"time_elapsed":481049,"internal_node_id":"0.0-30.0","task_version":"0.2"},{"response_times":[1456.8500000750646,735.5049999896437,607.5300000375137,975.9199999971315,3167.9299999959767],"keys_pressed":["rightarrow","rightarrow","leftarrow","leftarrow","leftarrow"],"horizon":5,"forced_choices":["rightarrow","rightarrow","leftarrow","leftarrow"],"right_color":"orange","left_color":"lightblue","left_mu":40,"right_mu":48,"left_numbers":[44,54,49,46,24],"right_numbers":[38,65,57,44,44],"points_earned":222,"phase":"task","trial_type":"horizons-task","trial_index":35,"time_elapsed":489497,"internal_node_id":"0.0-31.0","task_version":"0.2"},{"response_times":[1680.3400000790134,655.544999986887,705.1099999807775,670.8100000396371,1664.0149999875575,736.0699999844655,1471.9650000333786,735.9500000020489,527.9149999842048,672.1200000029057],"keys_pressed":["leftarrow","rightarrow","leftarrow","rightarrow","rightarrow","leftarrow","leftarrow","rightarrow","rightarrow","rightarrow"],"horizon":10,"forced_choices":["leftarrow","rightarrow","leftarrow","rightarrow"],"right_color":"orange","left_color":"lightblue","left_mu":60,"right_mu":80,"left_numbers":[58,47,52,55,63,73,63,64,70,58],"right_numbers":[74,73,84,91,74,81,86,77,69,74],"points_earned":704,"phase":"task","trial_type":"horizons-task","trial_index":36,"time_elapsed":500520,"internal_node_id":"0.0-32.0","task_version":"0.2"},{"response_times":[1504.3900000164285,609.1099999612197,958.9599999599159,768.2899999199435,2335.495000006631,959.9850000813603,1967.9250000044703,624.1399999707937,1231.7599999951199,1136.0300000524148],"keys_pressed":["leftarrow","leftarrow","leftarrow","rightarrow","rightarrow","leftarrow","rightarrow","rightarrow","rightarrow","rightarrow"],"horizon":10,"forced_choices":["leftarrow","leftarrow","leftarrow","rightarrow"],"right_color":"orange","left_color":"lightblue","left_mu":40,"right_mu":52,"left_numbers":[31,47,34,35,42,36,38,49,42,30],"right_numbers":[54,31,57,56,49,55,50,46,44,52],"points_earned":445,"phase":"task","trial_type":"horizons-task","trial_index":37,"time_elapsed":514121,"internal_node_id":"0.0-33.0","task_version":"0.2"},{"response_times":[817.8000000771135,511.03000005241483,639.8950000293553,912.1899999445304,1711.8349999655038],"keys_pressed":["rightarrow","leftarrow","rightarrow","rightarrow","leftarrow"],"horizon":5,"forced_choices":["rightarrow","leftarrow","rightarrow","rightarrow"],"right_color":"orange","left_color":"lightblue","left_mu":40,"right_mu":20,"left_numbers":[54,30,32,40,37],"right_numbers":[17,22,21,4,19],"points_earned":109,"phase":"task","trial_type":"horizons-task","trial_index":38,"time_elapsed":520216,"internal_node_id":"0.0-34.0","task_version":"0.2"},{"response_times":[944.9850000673905,639.7100000176579,2384.169999975711,944.9599999934435,1294.9400000507012,559.9950000178069,991.8749999487773,688.0849999142811,575.8650000207126,560.0349999731407],"keys_pressed":["leftarrow","rightarrow","rightarrow","leftarrow","leftarrow","rightarrow","rightarrow","leftarrow","leftarrow","leftarrow"],"horizon":10,"forced_choices":["leftarrow","rightarrow","rightarrow","leftarrow"],"right_color":"lightblue","left_color":"orange","left_mu":40,"right_mu":32,"left_numbers":[66,28,58,35,48,44,54,37,31,30],"right_numbers":[39,31,28,37,23,47,28,41,28,34],"points_earned":381,"phase":"task","trial_type":"horizons-task","trial_index":39,"time_elapsed":531305,"internal_node_id":"0.0-35.0","task_version":"0.2"},{"response_times":[1023.5250000841916,784.1449999250472,1071.7799999983981,1009.4950000056997,1966.4249999914318],"keys_pressed":["rightarrow","leftarrow","leftarrow","leftarrow","leftarrow"],"horizon":5,"forced_choices":["rightarrow","leftarrow","leftarrow","leftarrow"],"right_color":"lightblue","left_color":"orange","left_mu":60,"right_mu":64,"left_numbers":[66,46,58,66,67],"right_numbers":[56,69,58,69,77],"points_earned":293,"phase":"task","trial_type":"horizons-task","trial_index":40,"time_elapsed":538665,"internal_node_id":"0.0-36.0","task_version":"0.2"},{"response_times":[750.6750000175089,1712.0400000130758,879.9400000134483,911.9349999818951,2321.2749999947846],"keys_pressed":["rightarrow","rightarrow","leftarrow","leftarrow","rightarrow"],"horizon":5,"forced_choices":["rightarrow","rightarrow","leftarrow","leftarrow"],"right_color":"lightblue","left_color":"orange","left_mu":60,"right_mu":48,"left_numbers":[63,38,59,54,53],"right_numbers":[68,61,54,43,48],"points_earned":290,"phase":"task","trial_type":"horizons-task","trial_index":41,"time_elapsed":546746,"internal_node_id":"0.0-37.0","task_version":"0.2"},{"response_times":[1932.7849999535829,767.8600000217557,1071.9099999405444,815.9549999982119,1871.984999976121,800.0999999931082,800.0949999550357,752.7800000971183,398.9650000585243,464.34000006411225],"keys_pressed":["leftarrow","leftarrow","rightarrow","leftarrow","rightarrow","rightarrow","leftarrow","rightarrow","rightarrow","rightarrow"],"horizon":10,"forced_choices":["leftarrow","leftarrow","rightarrow","leftarrow"],"right_color":"orange","left_color":"lightblue","left_mu":40,"right_mu":60,"left_numbers":[54,41,27,41,25,43,44,37,49,28],"right_numbers":[50,61,60,50,56,76,61,49,61,47],"points_earned":529,"phase":"task","trial_type":"horizons-task","trial_index":42,"time_elapsed":557929,"internal_node_id":"0.0-38.0","task_version":"0.2"},{"response_times":[2688.4749999735504,943.7550000147894,591.8199999723583,703.925000037998,1967.9150000447407],"keys_pressed":["leftarrow","leftarrow","rightarrow","leftarrow","rightarrow"],"horizon":5,"forced_choices":["leftarrow","leftarrow","rightarrow","leftarrow"],"right_color":"lightblue","left_color":"orange","left_mu":60,"right_mu":68,"left_numbers":[66,67,52,51,43],"right_numbers":[54,60,70,62,75],"points_earned":329,"phase":"task","trial_type":"horizons-task","trial_index":43,"time_elapsed":566328,"internal_node_id":"0.0-39.0","task_version":"0.2"},{"response_times":[1138.6799999745563,526.9400000106543,735.9500000020489,767.9750000825152,1279.9799999920651],"keys_pressed":["leftarrow","rightarrow","leftarrow","rightarrow","leftarrow"],"horizon":5,"forced_choices":["leftarrow","rightarrow","leftarrow","rightarrow"],"right_color":"lightblue","left_color":"orange","left_mu":60,"right_mu":40,"left_numbers":[58,61,56,59,57],"right_numbers":[42,30,18,30,36],"points_earned":231,"phase":"task","trial_type":"horizons-task","trial_index":44,"time_elapsed":572281,"internal_node_id":"0.0-40.0","task_version":"0.2"},{"response_times":[1551.8199999351054,863.9350000303239,751.8549999222159,751.9849999807775,1441.2699999520555,670.7999999634922,639.8999999510124,591.954999952577,672.1350000007078,303.89500001911074],"keys_pressed":["leftarrow","leftarrow","rightarrow","leftarrow","rightarrow","rightarrow","leftarrow","rightarrow","rightarrow","rightarrow"],"horizon":10,"forced_choices":["leftarrow","leftarrow","rightarrow","leftarrow"],"right_color":"orange","left_color":"lightblue","left_mu":40,"right_mu":70,"left_numbers":[44,39,33,48,35,37,53,51,43,44],"right_numbers":[69,61,56,65,72,56,73,74,71,69],"points_earned":582,"phase":"task","trial_type":"horizons-task","trial_index":45,"time_elapsed":582025,"internal_node_id":"0.0-41.0","task_version":"0.2"},{"response_times":[1055.5600000079721,607.8749999869615,767.8699999814853,832.0450000464916,2401.0199999902397,959.2999999877065,1119.6699999272823,879.8650000244379,768.0249999975786,768.1899999734014],"keys_pressed":["leftarrow","rightarrow","leftarrow","leftarrow","rightarrow","rightarrow","rightarrow","rightarrow","rightarrow","rightarrow"],"horizon":10,"forced_choices":["leftarrow","rightarrow","leftarrow","leftarrow"],"right_color":"orange","left_color":"lightblue","left_mu":60,"right_mu":72,"left_numbers":[58,52,52,59,58,57,53,57,57,61],"right_numbers":[76,66,62,59,82,81,76,83,73,74],"points_earned":704,"phase":"task","trial_type":"horizons-task","trial_index":46,"time_elapsed":593688,"internal_node_id":"0.0-42.0","task_version":"0.2"},{"response_times":[1041.1399999866262,1551.9799999892712,687.984999967739,719.8449999559671,1568.9549999078736,526.975000044331,672.0300000160933,1392.060000100173,4143.995000049472,2351.939999964088],"keys_pressed":["rightarrow","rightarrow","leftarrow","rightarrow","rightarrow","leftarrow","leftarrow","rightarrow","leftarrow","rightarrow"],"horizon":10,"forced_choices":["rightarrow","rightarrow","leftarrow","rightarrow"],"right_color":"lightblue","left_color":"orange","left_mu":60,"right_mu":56,"left_numbers":[70,60,59,63,62,65,43,66,52,45],"right_numbers":[55,49,60,65,57,46,68,59,69,60],"points_earned":564,"phase":"task","trial_type":"horizons-task","trial_index":47,"time_elapsed":609848,"internal_node_id":"0.0-43.0","task_version":"0.2"},{"response_times":[1778.3399999607354,783.1999999471009,1087.6550000393763,864.0150000574067,1871.984999976121,800.044999923557,655.8700000168756,1728.0099999625236,1056.0200000181794,1055.8650000020862],"keys_pressed":["rightarrow","rightarrow","rightarrow","leftarrow","leftarrow","rightarrow","rightarrow","rightarrow","rightarrow","rightarrow"],"horizon":10,"forced_choices":["rightarrow","rightarrow","rightarrow","leftarrow"],"right_color":"lightblue","left_color":"orange","left_mu":40,"right_mu":36,"left_numbers":[39,59,40,44,38,29,28,42,41,43],"right_numbers":[51,36,37,22,19,53,47,32,45,33],"points_earned":416,"phase":"task","trial_type":"horizons-task","trial_index":48,"time_elapsed":623032,"internal_node_id":"0.0-44.0","task_version":"0.2"},{"response_times":[1362.0649999938905,607.0900000631809,608.1100000301376,655.6700000073761,1840.0399999227375,815.9999999916181,1199.945000000298,944.0050000557676,1424.1249999031425,3232.9450000543147],"keys_pressed":["rightarrow","leftarrow","rightarrow","leftarrow","leftarrow","rightarrow","rightarrow","rightarrow","leftarrow","leftarrow"],"horizon":10,"forced_choices":["rightarrow","leftarrow","rightarrow","leftarrow"],"right_color":"lightblue","left_color":"orange","left_mu":60,"right_mu":64,"left_numbers":[70,56,56,60,62,53,72,61,55,54],"right_numbers":[57,68,77,47,72,52,69,53,79,69],"points_earned":595,"phase":"task","trial_type":"horizons-task","trial_index":49,"time_elapsed":637226,"internal_node_id":"0.0-45.0","task_version":"0.2"},{"response_times":[2314.6799999522045,624.1049999371171,831.8100000033155,783.9149999199435,1969.260000041686,750.7700000423938,864.075000048615,1201.245000003837,1438.8099999632686,1855.7450000662357],"keys_pressed":["leftarrow","rightarrow","leftarrow","rightarrow","rightarrow","leftarrow","leftarrow","leftarrow","leftarrow","leftarrow"],"horizon":10,"forced_choices":["leftarrow","rightarrow","leftarrow","rightarrow"],"right_color":"orange","left_color":"lightblue","left_mu":40,"right_mu":20,"left_numbers":[45,40,24,34,35,37,50,45,43,51],"right_numbers":[5,27,24,37,31,8,27,25,13,23],"points_earned":390,"phase":"task","trial_type":"horizons-task","trial_index":50,"time_elapsed":651369,"internal_node_id":"0.0-46.0","task_version":"0.2"},{"view_history":"[{\"page_index\":0,\"viewing_time\":10106.295000063255},{\"page_index\":1,\"viewing_time\":2824.0849999710917}]","rt":12930.720000062138,"trial_type":"instructions","trial_index":51,"time_elapsed":664301,"internal_node_id":"0.0-47.0","task_version":"0.2"},{"response_times":[874.5300000300631,591.9749999884516,655.9650000417605,703.9249999215826,1008.2049999618903],"keys_pressed":["leftarrow","leftarrow","leftarrow","rightarrow","rightarrow"],"horizon":5,"forced_choices":["leftarrow","leftarrow","leftarrow","rightarrow"],"right_color":"orange","left_color":"lightblue","left_mu":40,"right_mu":52,"left_numbers":[48,35,53,43,47],"right_numbers":[60,53,52,60,59],"points_earned":255,"phase":"task","trial_type":"horizons-task","trial_index":52,"time_elapsed":669641,"internal_node_id":"0.0-48.0","task_version":"0.2"},{"response_times":[1728.789999964647,800.9750000201166,942.975000012666,623.9699999568984,1327.9900000197813,752.0099999383092,879.9300000537187,559.9950000178069,639.9999998975545,592.0150000602007],"keys_pressed":["rightarrow","rightarrow","leftarrow","rightarrow","rightarrow","leftarrow","leftarrow","rightarrow","leftarrow","leftarrow"],"horizon":10,"forced_choices":["rightarrow","rightarrow","leftarrow","rightarrow"],"right_color":"lightblue","left_color":"orange","left_mu":40,"right_mu":28,"left_numbers":[34,32,23,40,43,37,43,41,49,38],"right_numbers":[28,25,32,27,41,17,25,40,36,29],"points_earned":351,"phase":"task","trial_type":"horizons-task","trial_index":53,"time_elapsed":679993,"internal_node_id":"0.0-49.0","task_version":"0.2"},{"response_times":[2064.3299999646842,657.1750000584871,670.7549999700859,480.0399999367073,1039.8649999406189],"keys_pressed":["leftarrow","leftarrow","leftarrow","rightarrow","leftarrow"],"horizon":5,"forced_choices":["leftarrow","leftarrow","leftarrow","rightarrow"],"right_color":"orange","left_color":"lightblue","left_mu":40,"right_mu":10,"left_numbers":[37,34,54,29,54],"right_numbers":[6,24,6,16,2],"points_earned":195,"phase":"task","trial_type":"horizons-task","trial_index":54,"time_elapsed":686409,"internal_node_id":"0.0-50.0","task_version":"0.2"},{"response_times":[1295.9999999729916,687.9799999296665,592.0349999796599,623.9449999993667,1536.2050000112504],"keys_pressed":["leftarrow","leftarrow","rightarrow","rightarrow","rightarrow"],"horizon":5,"forced_choices":["leftarrow","leftarrow","rightarrow","rightarrow"],"right_color":"orange","left_color":"lightblue","left_mu":40,"right_mu":52,"left_numbers":[41,57,27,54,45],"right_numbers":[56,43,59,60,40],"points_earned":257,"phase":"task","trial_type":"horizons-task","trial_index":55,"time_elapsed":692649,"internal_node_id":"0.0-51.0","task_version":"0.2"},{"response_times":[1217.9050000850111,607.1450000163168,975.8800000417978,1295.7300000125542,1759.9100000225008,528.1050000339746,447.8899999521673,639.9799999780953,639.9400000227615,527.9749999754131],"keys_pressed":["rightarrow","leftarrow","leftarrow","rightarrow","leftarrow","leftarrow","rightarrow","rightarrow","leftarrow","leftarrow"],"horizon":10,"forced_choices":["rightarrow","leftarrow","leftarrow","rightarrow"],"right_color":"orange","left_color":"lightblue","left_mu":60,"right_mu":30,"left_numbers":[67,56,48,65,47,49,72,59,59,43],"right_numbers":[37,27,26,46,31,21,47,27,21,23],"points_earned":459,"phase":"task","trial_type":"horizons-task","trial_index":56,"time_elapsed":702792,"internal_node_id":"0.0-52.0","task_version":"0.2"},{"response_times":[9890.23499994073,766.910000005737,608.0350000411272,720.2749999705702,2095.6399999558926,607.9499999759719,1039.9600000819191,608.1400000257418,415.804999996908,672.0349999377504],"keys_pressed":["leftarrow","leftarrow","rightarrow","rightarrow","rightarrow","leftarrow","leftarrow","rightarrow","rightarrow","rightarrow"],"horizon":10,"forced_choices":["leftarrow","leftarrow","rightarrow","rightarrow"],"right_color":"orange","left_color":"lightblue","left_mu":40,"right_mu":52,"left_numbers":[39,29,44,40,50,54,35,25,30,40],"right_numbers":[55,52,48,58,52,51,42,43,38,65],"points_earned":461,"phase":"task","trial_type":"horizons-task","trial_index":57,"time_elapsed":721720,"internal_node_id":"0.0-53.0","task_version":"0.2"},{"response_times":[848.4349999343976,673.6450000898913,798.2549999142066,751.9350000657141,3088.084999937564],"keys_pressed":["rightarrow","rightarrow","leftarrow","rightarrow","leftarrow"],"horizon":5,"forced_choices":["rightarrow","rightarrow","leftarrow","rightarrow"],"right_color":"lightblue","left_color":"orange","left_mu":60,"right_mu":56,"left_numbers":[58,59,58,72,63],"right_numbers":[61,35,54,54,64],"points_earned":271,"phase":"task","trial_type":"horizons-task","trial_index":58,"time_elapsed":729384,"internal_node_id":"0.0-54.0","task_version":"0.2"},{"response_times":[1104.9650000641122,735.8099999837577,592.0700000133365,767.8900000173599,1601.0499999392778],"keys_pressed":["rightarrow","rightarrow","leftarrow","rightarrow","leftarrow"],"horizon":5,"forced_choices":["rightarrow","rightarrow","leftarrow","rightarrow"],"right_color":"lightblue","left_color":"orange","left_mu":40,"right_mu":28,"left_numbers":[45,36,36,47,37],"right_numbers":[30,17,17,28,18],"points_earned":148,"phase":"task","trial_type":"horizons-task","trial_index":59,"time_elapsed":735690,"internal_node_id":"0.0-55.0","task_version":"0.2"},{"response_times":[1695.6500000087544,671.9699999084696,832.2850000113249,751.6600000672042,1328.3550000051036],"keys_pressed":["rightarrow","leftarrow","leftarrow","rightarrow","leftarrow"],"horizon":5,"forced_choices":["rightarrow","leftarrow","leftarrow","rightarrow"],"right_color":"orange","left_color":"lightblue","left_mu":60,"right_mu":30,"left_numbers":[71,41,63,50,55],"right_numbers":[34,44,38,32,39],"points_earned":225,"phase":"task","trial_type":"horizons-task","trial_index":60,"time_elapsed":742473,"internal_node_id":"0.0-56.0","task_version":"0.2"},{"response_times":[1103.1449999427423,527.8699999907985,657.0200000423938,799.0149999968708,2063.979999977164],"keys_pressed":["leftarrow","rightarrow","rightarrow","leftarrow","leftarrow"],"horizon":5,"forced_choices":["leftarrow","rightarrow","rightarrow","leftarrow"],"right_color":"lightblue","left_color":"orange","left_mu":40,"right_mu":32,"left_numbers":[54,35,30,33,39],"right_numbers":[35,32,17,34,38],"points_earned":175,"phase":"task","trial_type":"horizons-task","trial_index":61,"time_elapsed":749129,"internal_node_id":"0.0-57.0","task_version":"0.2"},{"response_times":[1664.7649999940768,623.2800000580028,703.9050000021234,832.0799999637529,1711.949999909848,721.1200000019744,1038.9150000410154,512.1100000105798,560.0499999709427,527.6750000193715],"keys_pressed":["rightarrow","leftarrow","leftarrow","leftarrow","leftarrow","leftarrow","leftarrow","leftarrow","leftarrow","leftarrow"],"horizon":10,"forced_choices":["rightarrow","leftarrow","leftarrow","leftarrow"],"right_color":"lightblue","left_color":"orange","left_mu":60,"right_mu":64,"left_numbers":[44,63,62,70,65,56,54,76,61,67],"right_numbers":[46,69,58,74,56,62,61,71,57,67],"points_earned":620,"phase":"task","trial_type":"horizons-task","trial_index":62,"time_elapsed":759529,"internal_node_id":"0.0-58.0","task_version":"0.2"},{"response_times":[2351.8700000131503,719.9949999339879,2080.049999989569,1360.8999999705702,1470.6650000298396,575.9300000499934,608.1449999473989,528.0650000786409,543.8149999827147,512.5100000295788],"keys_pressed":["leftarrow","rightarrow","rightarrow","leftarrow","rightarrow","leftarrow","rightarrow","rightarrow","rightarrow","rightarrow"],"horizon":10,"forced_choices":["leftarrow","rightarrow","rightarrow","leftarrow"],"right_color":"orange","left_color":"lightblue","left_mu":40,"right_mu":70,"left_numbers":[41,37,37,38,46,35,55,55,43,41],"right_numbers":[60,49,66,60,62,67,74,66,71,80],"points_earned":582,"phase":"task","trial_type":"horizons-task","trial_index":63,"time_elapsed":771785,"internal_node_id":"0.0-59.0","task_version":"0.2"},{"response_times":[7520.799999940209,5502.980000106618,7185.1400000741705,846.8100000172853,1088.069999939762,591.8799999635667,640.3649999992922,559.6750000258908,543.8650000141934,527.9650000156835],"keys_pressed":["rightarrow","leftarrow","rightarrow","leftarrow","rightarrow","rightarrow","rightarrow","rightarrow","rightarrow","rightarrow"],"horizon":10,"forced_choices":["rightarrow","leftarrow","rightarrow","leftarrow"],"right_color":"lightblue","left_color":"orange","left_mu":60,"right_mu":90,"left_numbers":[61,58,76,65,53,52,71,49,37,47],"right_numbers":[88,83,99,97,97,86,99,100,95,88],"points_earned":875,"phase":"task","trial_type":"horizons-task","trial_index":64,"time_elapsed":798296,"internal_node_id":"0.0-60.0","task_version":"0.2"},{"response_times":[976.2800000607967,623.784999945201,784.0350000187755,687.8449999494478,1377.0999999251217],"keys_pressed":["rightarrow","leftarrow","leftarrow","rightarrow","leftarrow"],"horizon":5,"forced_choices":["rightarrow","leftarrow","leftarrow","rightarrow"],"right_color":"lightblue","left_color":"orange","left_mu":40,"right_mu":36,"left_numbers":[50,36,30,40,47],"right_numbers":[32,33,32,30,35],"points_earned":175,"phase":"task","trial_type":"horizons-task","trial_index":65,"time_elapsed":804249,"internal_node_id":"0.0-61.0","task_version":"0.2"},{"response_times":[1168.0349999805912,575.7999999914318,624.2199999978766,607.9299999400973,1007.8300000168383,704.3349999003112,671.7599999392405,495.78500003553927,431.93500000052154,320.3199999406934],"keys_pressed":["rightarrow","leftarrow","rightarrow","rightarrow","leftarrow","leftarrow","rightarrow","leftarrow","leftarrow","leftarrow"],"horizon":10,"forced_choices":["rightarrow","leftarrow","rightarrow","rightarrow"],"right_color":"orange","left_color":"lightblue","left_mu":40,"right_mu":20,"left_numbers":[41,45,46,40,45,31,41,36,38,58],"right_numbers":[20,13,6,24,18,9,13,16,22,20],"points_earned":316,"phase":"task","trial_type":"horizons-task","trial_index":66,"time_elapsed":812360,"internal_node_id":"0.0-62.0","task_version":"0.2"},{"response_times":[1344.844999955967,798.890000092797,768.0249999975786,703.925000037998,1024.0149999735877],"keys_pressed":["rightarrow","rightarrow","leftarrow","rightarrow","leftarrow"],"horizon":5,"forced_choices":["rightarrow","rightarrow","leftarrow","rightarrow"],"right_color":"lightblue","left_color":"orange","left_mu":60,"right_mu":48,"left_numbers":[74,71,62,67,55],"right_numbers":[54,49,51,38,56],"points_earned":258,"phase":"task","trial_type":"horizons-task","trial_index":67,"time_elapsed":818503,"internal_node_id":"0.0-63.0","task_version":"0.2"},{"response_times":[2545.7499999320135,671.9799999846146,592.270000022836,623.7949999049306,944.7950000176206,559.235000051558,831.720000016503,672.1599999582395,895.8349999738857,560.0150000536814],"keys_pressed":["leftarrow","rightarrow","leftarrow","rightarrow","leftarrow","rightarrow","rightarrow","leftarrow","rightarrow","rightarrow"],"horizon":10,"forced_choices":["leftarrow","rightarrow","leftarrow","rightarrow"],"right_color":"lightblue","left_color":"orange","left_mu":60,"right_mu":56,"left_numbers":[64,68,57,57,64,59,55,49,54,60],"right_numbers":[58,50,54,56,50,63,58,51,53,38],"points_earned":552,"phase":"task","trial_type":"horizons-task","trial_index":68,"time_elapsed":828905,"internal_node_id":"0.0-64.0","task_version":"0.2"},{"response_times":[1535.1749999681488,543.849999899976,672.0600000116974,655.9099999722093,975.9850000264123],"keys_pressed":["leftarrow","rightarrow","leftarrow","rightarrow","leftarrow"],"horizon":5,"forced_choices":["leftarrow","rightarrow","leftarrow","rightarrow"],"right_color":"orange","left_color":"lightblue","left_mu":40,"right_mu":20,"left_numbers":[39,27,45,55,44],"right_numbers":[13,16,12,6,7],"points_earned":150,"phase":"task","trial_type":"horizons-task","trial_index":69,"time_elapsed":834792,"internal_node_id":"0.0-65.0","task_version":"0.2"},{"response_times":[1330.240000039339,766.4400000358,720.0400000438094,736.0249999910593,911.9649999774992],"keys_pressed":["leftarrow","leftarrow","rightarrow","rightarrow","rightarrow"],"horizon":5,"forced_choices":["leftarrow","leftarrow","rightarrow","rightarrow"],"right_color":"orange","left_color":"lightblue","left_mu":60,"right_mu":72,"left_numbers":[58,51,58,63,70],"right_numbers":[87,78,69,78,84],"points_earned":340,"phase":"task","trial_type":"horizons-task","trial_index":70,"time_elapsed":840760,"internal_node_id":"0.0-66.0","task_version":"0.2"},{"response_times":[1151.8599999835715,512.3649999732152,687.5149999978021,688.0600000731647,1344.1599999787286,639.6500000264496,641.1100000841543,878.9899999974295,1103.8750000298023,624.0600000601262],"keys_pressed":["rightarrow","leftarrow","leftarrow","leftarrow","rightarrow","rightarrow","rightarrow","rightarrow","rightarrow","rightarrow"],"horizon":10,"forced_choices":["rightarrow","leftarrow","leftarrow","leftarrow"],"right_color":"orange","left_color":"lightblue","left_mu":60,"right_mu":80,"left_numbers":[60,59,61,65,55,62,62,50,54,53],"right_numbers":[87,84,80,83,96,82,74,80,84,79],"points_earned":767,"phase":"task","trial_type":"horizons-task","trial_index":71,"time_elapsed":850536,"internal_node_id":"0.0-67.0","task_version":"0.2"},{"response_times":[1104.590000002645,559.8849999951199,527.9449999798089,592.160000000149,1679.8849999904633],"keys_pressed":["leftarrow","rightarrow","leftarrow","rightarrow","rightarrow"],"horizon":5,"forced_choices":["leftarrow","rightarrow","leftarrow","rightarrow"],"right_color":"orange","left_color":"lightblue","left_mu":60,"right_mu":80,"left_numbers":[48,54,54,63,56],"right_numbers":[95,75,80,82,78],"points_earned":337,"phase":"task","trial_type":"horizons-task","trial_index":72,"time_elapsed":856506,"internal_node_id":"0.0-68.0","task_version":"0.2"},{"response_times":[1520.894999965094,495.03500002902,671.9750000629574,735.9949999954551,1071.9899999676272,591.8999999994412,1264.2950000008568,767.8349999478087,656.0150000732392,639.6749999839813],"keys_pressed":["leftarrow","rightarrow","rightarrow","rightarrow","leftarrow","leftarrow","leftarrow","leftarrow","leftarrow","leftarrow"],"horizon":10,"forced_choices":["leftarrow","rightarrow","rightarrow","rightarrow"],"right_color":"lightblue","left_color":"orange","left_mu":60,"right_mu":40,"left_numbers":[67,61,61,66,64,62,69,49,66,60],"right_numbers":[45,53,52,26,42,39,33,41,35,29],"points_earned":568,"phase":"task","trial_type":"horizons-task","trial_index":73,"time_elapsed":866424,"internal_node_id":"0.0-69.0","task_version":"0.2"},{"response_times":[1634.0250000357628,639.0200000023469,719.9050000635907,655.919999931939,959.9600000074133,527.8900000266731,768.0949999485165,496.1849999381229,511.82500005234033,495.85000006482005],"keys_pressed":["rightarrow","leftarrow","rightarrow","rightarrow","rightarrow","leftarrow","rightarrow","rightarrow","rightarrow","rightarrow"],"horizon":10,"forced_choices":["rightarrow","leftarrow","rightarrow","rightarrow"],"right_color":"lightblue","left_color":"orange","left_mu":40,"right_mu":44,"left_numbers":[34,41,37,16,28,32,44,24,39,43],"right_numbers":[48,48,60,47,39,51,49,43,47,35],"points_earned":441,"phase":"task","trial_type":"horizons-task","trial_index":74,"time_elapsed":875337,"internal_node_id":"0.0-70.0","task_version":"0.2"},{"response_times":[1072.7399999741465,656.1150000197813,575.6800000090152,641.1499999230728,1215.1150000281632,543.7850001035258,655.8550000190735,512.2650000266731,992.3549999948591,1023.3399999560788],"keys_pressed":["leftarrow","leftarrow","rightarrow","rightarrow","leftarrow","leftarrow","rightarrow","leftarrow","leftarrow","leftarrow"],"horizon":10,"forced_choices":["leftarrow","leftarrow","rightarrow","rightarrow"],"right_color":"lightblue","left_color":"orange","left_mu":40,"right_mu":28,"left_numbers":[39,40,47,44,39,44,30,41,38,37],"right_numbers":[39,24,26,38,37,34,35,28,27,25],"points_earned":377,"phase":"task","trial_type":"horizons-task","trial_index":75,"time_elapsed":884729,"internal_node_id":"0.0-71.0","task_version":"0.2"},{"response_times":[832.8650000039488,735.9850000357255,671.9900000607595,1184.0699999593198,1329.3099999427795],"keys_pressed":["rightarrow","leftarrow","rightarrow","leftarrow","rightarrow"],"horizon":5,"forced_choices":["rightarrow","leftarrow","rightarrow","leftarrow"],"right_color":"lightblue","left_color":"orange","left_mu":60,"right_mu":90,"left_numbers":[66,58,59,63,61],"right_numbers":[90,105,87,91,97],"points_earned":395,"phase":"task","trial_type":"horizons-task","trial_index":76,"time_elapsed":890986,"internal_node_id":"0.0-72.0","task_version":"0.2"},{"response_times":[975.62000004109,703.9850000292063,608.074999996461,687.8750000614673,992.1250001061708],"keys_pressed":["rightarrow","leftarrow","rightarrow","leftarrow","rightarrow"],"horizon":5,"forced_choices":["rightarrow","leftarrow","rightarrow","leftarrow"],"right_color":"lightblue","left_color":"orange","left_mu":60,"right_mu":64,"left_numbers":[49,41,57,48,63],"right_numbers":[67,67,71,66,54],"points_earned":281,"phase":"task","trial_type":"horizons-task","trial_index":77,"time_elapsed":896457,"internal_node_id":"0.0-73.0","task_version":"0.2"},{"response_times":[1888.440000009723,671.8150000087917,640.9499999135733,815.1500000385568,1567.8450000705197],"keys_pressed":["rightarrow","leftarrow","rightarrow","rightarrow","rightarrow"],"horizon":5,"forced_choices":["rightarrow","leftarrow","rightarrow","rightarrow"],"right_color":"lightblue","left_color":"orange","left_mu":40,"right_mu":44,"left_numbers":[44,40,36,37,30],"right_numbers":[45,47,52,47,27],"points_earned":211,"phase":"task","trial_type":"horizons-task","trial_index":78,"time_elapsed":903544,"internal_node_id":"0.0-74.0","task_version":"0.2"},{"response_times":[1185.0000000558794,655.8349999831989,655.9849999612197,992.0000000856817,1711.9650000240654],"keys_pressed":["leftarrow","rightarrow","leftarrow","leftarrow","leftarrow"],"horizon":5,"forced_choices":["leftarrow","rightarrow","leftarrow","leftarrow"],"right_color":"orange","left_color":"lightblue","left_mu":60,"right_mu":30,"left_numbers":[60,60,55,41,50],"right_numbers":[34,42,34,21,24],"points_earned":248,"phase":"task","trial_type":"horizons-task","trial_index":79,"time_elapsed":910248,"internal_node_id":"0.0-75.0","task_version":"0.2"},{"response_times":[1473.0400000698864,574.8950000852346,704.0000000270084,688.0300000775605,3311.9949999963865],"keys_pressed":["rightarrow","leftarrow","leftarrow","rightarrow","rightarrow"],"horizon":5,"forced_choices":["rightarrow","leftarrow","leftarrow","rightarrow"],"right_color":"lightblue","left_color":"orange","left_mu":40,"right_mu":44,"left_numbers":[34,38,43,20,47],"right_numbers":[42,43,42,45,53],"points_earned":221,"phase":"task","trial_type":"horizons-task","trial_index":80,"time_elapsed":918504,"internal_node_id":"0.0-76.0","task_version":"0.2"},{"response_times":[1424.0149999968708,479.8350000055507,800.0899999169633,657.2600000072271,1934.5700000412762],"keys_pressed":["leftarrow","rightarrow","rightarrow","leftarrow","leftarrow"],"horizon":5,"forced_choices":["leftarrow","rightarrow","rightarrow","leftarrow"],"right_color":"orange","left_color":"lightblue","left_mu":60,"right_mu":52,"left_numbers":[54,60,56,65,61],"right_numbers":[59,54,59,48,50],"points_earned":293,"phase":"task","trial_type":"horizons-task","trial_index":81,"time_elapsed":925304,"internal_node_id":"0.0-77.0","task_version":"0.2"},{"response_times":[1072.5350000429899,511.8999999249354,672.0300000160933,687.8250000299886,1455.9699998935685,495.9800000069663,703.9950001053512,591.9699999503791,561.1949999583885,526.8300001043826],"keys_pressed":["leftarrow","rightarrow","rightarrow","leftarrow","leftarrow","rightarrow","rightarrow","leftarrow","leftarrow","leftarrow"],"horizon":10,"forced_choices":["leftarrow","rightarrow","rightarrow","leftarrow"],"right_color":"orange","left_color":"lightblue","left_mu":60,"right_mu":52,"left_numbers":[71,72,61,46,57,62,52,59,64,56],"right_numbers":[44,54,53,47,55,46,52,55,44,58],"points_earned":558,"phase":"task","trial_type":"horizons-task","trial_index":82,"time_elapsed":934087,"internal_node_id":"0.0-78.0","task_version":"0.2"},{"response_times":[1601.3350000139326,543.9550000010058,656.4599999692291,1023.5700000775978,767.9700000444427],"keys_pressed":["leftarrow","rightarrow","leftarrow","leftarrow","rightarrow"],"horizon":5,"forced_choices":["leftarrow","rightarrow","leftarrow","leftarrow"],"right_color":"orange","left_color":"lightblue","left_mu":60,"right_mu":72,"left_numbers":[47,49,64,54,59],"right_numbers":[77,83,71,80,60],"points_earned":308,"phase":"task","trial_type":"horizons-task","trial_index":83,"time_elapsed":940183,"internal_node_id":"0.0-79.0","task_version":"0.2"},{"response_times":[2904.7100000316277,616.3599999854341,687.9600000102073,623.9699999568984,703.9499999955297],"keys_pressed":["rightarrow","rightarrow","leftarrow","leftarrow","rightarrow"],"horizon":5,"forced_choices":["rightarrow","rightarrow","leftarrow","leftarrow"],"right_color":"orange","left_color":"lightblue","left_mu":40,"right_mu":60,"left_numbers":[41,32,44,33,40],"right_numbers":[55,67,59,64,46],"points_earned":245,"phase":"task","trial_type":"horizons-task","trial_index":84,"time_elapsed":947223,"internal_node_id":"0.0-80.0","task_version":"0.2"},{"response_times":[2000.705000013113,1695.6050000153482,608.0049999291077,928.029999951832,752.9899999499321],"keys_pressed":["leftarrow","leftarrow","rightarrow","leftarrow","rightarrow"],"horizon":5,"forced_choices":["leftarrow","leftarrow","rightarrow","leftarrow"],"right_color":"orange","left_color":"lightblue","left_mu":40,"right_mu":60,"left_numbers":[37,39,66,41,36],"right_numbers":[60,47,59,50,55],"points_earned":231,"phase":"task","trial_type":"horizons-task","trial_index":85,"time_elapsed":954714,"internal_node_id":"0.0-81.0","task_version":"0.2"},{"response_times":[1581.7249999381602,671.9400000292808,783.9949999470264,655.945000005886,784.0100000612438,1183.8700000662357,623.9300000015646,639.9700000183657,640.0700000813231,591.9200000353158],"keys_pressed":["rightarrow","rightarrow","rightarrow","leftarrow","leftarrow","leftarrow","rightarrow","rightarrow","leftarrow","leftarrow"],"horizon":10,"forced_choices":["rightarrow","rightarrow","rightarrow","leftarrow"],"right_color":"orange","left_color":"lightblue","left_mu":60,"right_mu":52,"left_numbers":[53,42,61,64,60,47,53,68,75,54],"right_numbers":[61,51,48,43,48,46,53,40,41,57],"points_earned":553,"phase":"task","trial_type":"horizons-task","trial_index":86,"time_elapsed":964377,"internal_node_id":"0.0-82.0","task_version":"0.2"},{"response_times":[1745.2099999645725,703.0350000131875,719.9800000526011,767.9099999368191,1967.9849999956787,688.0000000819564,1040.0399999925867,708.6999999592081,507.10499996785074,496.3650000281632],"keys_pressed":["rightarrow","rightarrow","leftarrow","leftarrow","rightarrow","rightarrow","rightarrow","rightarrow","rightarrow","rightarrow"],"horizon":10,"forced_choices":["rightarrow","rightarrow","leftarrow","leftarrow"],"right_color":"orange","left_color":"lightblue","left_mu":40,"right_mu":60,"left_numbers":[44,29,29,18,37,25,51,33,40,53],"right_numbers":[62,55,54,61,68,62,61,63,70,53],"points_earned":541,"phase":"task","trial_type":"horizons-task","trial_index":87,"time_elapsed":975235,"internal_node_id":"0.0-83.0","task_version":"0.2"},{"response_times":[1591.8250000104308,1023.064999957569,656.2600000761449,895.6750000361353,831.9149999879301],"keys_pressed":["rightarrow","leftarrow","leftarrow","leftarrow","rightarrow"],"horizon":5,"forced_choices":["rightarrow","leftarrow","leftarrow","leftarrow"],"right_color":"orange","left_color":"lightblue","left_mu":40,"right_mu":48,"left_numbers":[47,47,42,37,29],"right_numbers":[58,45,49,40,44],"points_earned":228,"phase":"task","trial_type":"horizons-task","trial_index":88,"time_elapsed":981737,"internal_node_id":"0.0-84.0","task_version":"0.2"},{"response_times":[1184.4900000141934,528.0949999578297,640.0100000901148,831.9299999857321,991.9600000139326],"keys_pressed":["leftarrow","rightarrow","rightarrow","rightarrow","leftarrow"],"horizon":5,"forced_choices":["leftarrow","rightarrow","rightarrow","rightarrow"],"right_color":"lightblue","left_color":"orange","left_mu":60,"right_mu":40,"left_numbers":[69,75,66,73,67],"right_numbers":[40,42,55,35,37],"points_earned":268,"phase":"task","trial_type":"horizons-task","trial_index":89,"time_elapsed":987416,"internal_node_id":"0.0-85.0","task_version":"0.2"},{"response_times":[946.3550000218675,638.9049999415874,720.0749999610707,575.9150000521913,815.9549999982119],"keys_pressed":["rightarrow","leftarrow","rightarrow","leftarrow","leftarrow"],"horizon":5,"forced_choices":["rightarrow","leftarrow","rightarrow","leftarrow"],"right_color":"orange","left_color":"lightblue","left_mu":40,"right_mu":10,"left_numbers":[55,38,40,56,54],"right_numbers":[15,6,8,4,1],"points_earned":171,"phase":"task","trial_type":"horizons-task","trial_index":90,"time_elapsed":992618,"internal_node_id":"0.0-86.0","task_version":"0.2"},{"response_times":[1086.4950000541285,496.0150000406429,624.01500006672,959.9349999334663,1151.9800000824034,559.899999992922,512.0399999432266,544.8799999430776,526.9949999637902,511.934999958612],"keys_pressed":["leftarrow","rightarrow","leftarrow","leftarrow","rightarrow","leftarrow","leftarrow","leftarrow","leftarrow","leftarrow"],"horizon":10,"forced_choices":["leftarrow","rightarrow","leftarrow","leftarrow"],"right_color":"orange","left_color":"lightblue","left_mu":60,"right_mu":30,"left_numbers":[70,71,61,39,55,63,52,51,76,62],"right_numbers":[22,31,35,28,29,20,46,38,24,43],"points_earned":534,"phase":"task","trial_type":"horizons-task","trial_index":91,"time_elapsed":1001096,"internal_node_id":"0.0-87.0","task_version":"0.2"},{"rt":13361.59999994561,"responses":{"age":"34","gender-categorical":"Female","gender-free-response":"","ethnicity":"Not Hispanic or Latino","race":["White"],"language":"Yes","fluency":"Very well"},"survey":"demographics","trial_type":"survey-demo","trial_index":92,"time_elapsed":1014461,"internal_node_id":"0.0-88.0","task_version":"0.2"},{"rt":22366.060000029393,"responses":{"difficulty":"4","fun":"4","clarity":"5","strategy":"Trying one or two from each before deciding","feedback":""},"survey":"debrief","trial_type":"survey-debrief","trial_index":93,"time_elapsed":1036828,"internal_node_id":"0.0-89.0","task_version":"0.2","interactions":"[]"}]