[{"view_history":"[{\"page_index\":0,\"viewing_time\":5376.745000015944}]","rt":5377.355000004172,"trial_type":"instructions","trial_index":0,"time_elapsed":5388,"internal_node_id":"0.0-0.0","task_version":"0.2"},{"item_order":[6,4,5,0,8,15,10,7,14,11,2,9,12,1,3,13],"responses":{"Q07":"3","Q05":"1","Q06":"5","Q01":"5","Q09":"3","Q16":"4","Q11":"5","Q08":"2","Q15":"5","Q12":"3","Q03":"3","Q10":"4","Q13":"3","Q02":"5","Q04":"3","Q14":"4"},"radio_events":[4854.564999928698,11766.494999988936,14068.854999961331,20433.46499989275,25218.364999978803,30544.739999924786,31774.734999984503,39392.414999892935,45677.72999999579,50841.389999957755,56838.1249998929,63219.489999930374,71895.68999991752,82496.34999991395,83609.44499995094,87599.6499999892,89662.2249999782,90947.41999998223,95332.7949999366,100244.45999995805,107554.33499999344,114897.50500000082],"key_events":[],"mouse_events":[0.5549999186769128,4854.564999928698,11766.494999988936,13458.28999998048,14068.854999961331,18800.82499992568,20433.46499989275,24301.179999951273,25218.364999978803,30544.739999924786,31256.444999948144,31774.734999984503,39392.414999892935,43937.53499991726,45677.72999999579,50366.6399999056,50841.389999957755,56838.1249998929,63219.489999930374,71179.19999989681,71895.68999991752,82496.34999991395,83609.44499995094,87599.6499999892,88489.68499992043,89048.08499990031,89662.2249999782,90947.41999998223,95332.7949999366,100244.45999995805,107020.09999996517,107554.33499999344,112977.92999993544,114897.50500000082,116564.30499989074],"rt":116567.48999992851,"survey":"nfc","trial_type":"survey-template","trial_index":1,"time_elapsed":121970,"internal_node_id":"0.0-1.0","task_version":"0.2"},{"item_order":[2,9,11,1,14,15,5,7,8,3,12,13,0,6,16,4,10],"responses":{"Q03":"2","Q10":"3","Q12":"1","Q02":"1","Q15":"1","Q16":"1","Q06":"3","Q08":"2","Q09":"1","Q04":"1","Q13":"1","Q14":"1","Q01":"3","Q07":"1","Q17":"0","Q05":"1","Q11":"3"},"radio_events":[5832.850000006147,10432.990000001155,16139.054999919608,17300.584999960847,19654.88499996718,21737.579999957234,26589.240000001155,32336.609999998473,36488.30500000622,38267.064999905415,40897.52999995835,42450.16499992926,49033.33499992732,55557.504999917,73849.02500000317,78960.68499993999,83142.06999994349],"key_events":[],"mouse_events":[5832.850000006147,10432.990000001155,16139.054999919608,17300.584999960847,19654.88499996718,21737.579999957234,25843.349999981,26589.240000001155,32336.609999998473,36488.30500000622,38267.064999905415,40897.52999995835,42450.16499992926,46416.30499996245,49033.33499992732,55557.504999917,73849.02500000317,78341.42999991309,78960.68499993999,83142.06999994349,84654.50999990571],"rt":84656.86999994796,"survey":"pswq","trial_type":"survey-template","trial_index":2,"time_elapsed":206637,"internal_node_id":"0.0-2.0","task_version":"0.2"},{"item_order":[2,10,7,8,6,12,0,1,11,5,3,4,9],"responses":{"Q03":"1","Q11":"2","Q08":"2","Q09":"2","Q07":"1","Q13":"4","Q01":"2","Q02":"2","Q12":"1","Q06":"1","Q04":"3","Q05":"3","Q10":"1"},"radio_events":[50014.695000019856,55420.98000005353,59986.26500007231,63341.345000080764,66857.46000008658,68205.13000001665,69378.7500000326,74170.26500008069,78380.2100000903,82214.51499999966,85426.56500008889,88439.29500004742,92915.95000005327,99073.00000009127,100253.66500008386,104843.08500005864,110333.42999999877],"key_events":[],"mouse_events":[50014.695000019856,55420.98000005353,59986.26500007231,63341.345000080764,66857.46000008658,68205.13000001665,69378.7500000326,74170.26500008069,78380.2100000903,81703.6950000329,82214.51499999966,85426.56500008889,87485.33000005409,88439.29500004742,92915.95000005327,99073.00000009127,100253.66500008386,104843.08500005864,110333.42999999877,112112.40500002168],"rt":112114.31500001345,"survey":"ius12","trial_type":"survey-template","trial_index":3,"time_elapsed":318762,"internal_node_id":"0.0-3.0","task_version":"0.2"},{"view_history":"[{\"page_index\":0,\"viewing_time\":8727.97000000719},{\"page_index\":1,\"viewing_time\":7154.444999992847},{\"page_index\":2,\"viewing_time\":18435.630000079982},{\"page_index\":3,\"viewing_time\":23340.209999936633},{\"page_index\":4,\"viewing_time\":7813.175000017509},{\"page_index\":5,\"viewing_time\":4790.825000032783},{\"page_index\":6,\"viewing_time\":12243.849999969825},{\"page_index\":7,\"viewing_time\":12166.540000005625},{\"page_index\":8,\"viewing_time\":16616.719999932684},{\"page_index\":9,\"viewing_time\":10883.495000074618}]","rt":122173.70000004303,"trial_type":"instructions","trial_index":4,"time_elapsed":440944,"internal_node_id":"0.0-4.0-0.0","task_version":"0.2"},{"response_times":[1540.4499999713153,1927.460000035353,2391.954999999143,2344.969999976456,7711.590000079013],"keys_pressed":["rightarrow","leftarrow","rightarrow","rightarrow","leftarrow"],"horizon":5,"forced_choices":["rightarrow","leftarrow","rightarrow","rightarrow"],"right_color":"lightblue","left_color":"orange","left_mu":40,"right_mu":20,"left_numbers":[59,45,34,49,43],"right_numbers":[20,21,22,22,9],"points_earned":152,"phase":"practice","trial_type":"horizons-task","trial_index":5,"time_elapsed":458371,"internal_node_id":"0.0-4.0-1.0","task_version":"0.2"},{"response_times":[2168.1899999966845,1753.4900000318885,1272.6399999810383,1008.2499999552965,3325.7699999958277,2203.410000074655,3193.5500000836328,14376.329999999143,1142.4950000364333,1871.7150000156835],"keys_pressed":["leftarrow","leftarrow","rightarrow","rightarrow","rightarrow","rightarrow","rightarrow","leftarrow","leftarrow","rightarrow"],"horizon":10,"forced_choices":["leftarrow","leftarrow","rightarrow","rightarrow"],"right_color":"orange","left_color":"lightblue","left_mu":60,"right_mu":70,"left_numbers":[61,63,64,65,67,56,44,63,56,57],"right_numbers":[84,60,70,68,69,66,51,71,66,59],"points_earned":626,"phase":"practice","trial_type":"horizons-task","trial_index":6,"time_elapsed":492194,"internal_node_id":"0.0-4.0-2.0","task_version":"0.2"},{"view_history":"[{\"page_index\":0,\"viewing_time\":2533.2600000547245},{\"page_index\":1,\"viewing_time\":3432.444999925792},{\"page_index\":2,\"viewing_time\":8663.615000084974},{\"page_index\":3,\"viewing_time\":4880.064999917522}]","rt":19509.75000008475,"trial_type":"instructions","trial_index":7,"time_elapsed":511705,"internal_node_id":"0.0-4.0-3.0","task_version":"0.2"},{"responses":["true","false","true"],"num_errors":0,"rt":16070.929999928921,"trial_type":"horizons-comprehension","trial_index":8,"time_elapsed":527779,"internal_node_id":"0.0-4.0-4.0","task_version":"0.2"},{"trial_type":"call-function","trial_index":9,"time_elapsed":527785,"internal_node_id":"0.0-5.0","task_version":"0.2"},{"view_history":"[{\"page_index\":0,\"viewing_time\":6735.584999900311},{\"page_index\":1,\"viewing_time\":5958.960000076331}]","rt":12695.07999997586,"trial_type":"instructions","trial_index":10,"time_elapsed":540480,"internal_node_id":"0.0-6.0","task_version":"0.2"},{"response_times":[1713.965000002645,1188.1600000197068,1270.9800000302494,1811.8349999422207,1958.915000082925],"keys_pressed":["leftarrow","leftarrow","rightarrow","rightarrow","leftarrow"],"horizon":5,"forced_choices":["leftarrow","leftarrow","rightarrow","rightarrow"],"right_color":"lightblue","left_color":"orange","left_mu":40,"right_mu":32,"left_numbers":[39,44,42,45,32],"right_numbers":[26,13,28,30,33],"points_earned":173,"phase":"task","trial_type":"horizons-task","trial_index":11,"time_elapsed":549932,"internal_node_id":"0.0-7.0","task_version":"0.2"},{"response_times":[943.2449999731034,1100.609999964945,1070.0949999736622,1491.6949999751523,1549.8599999118596],"keys_pressed":["leftarrow","rightarrow","rightarrow","rightarrow","rightarrow"],"horizon":5,"forced_choices":["leftarrow","rightarrow","rightarrow","rightarrow"],"right_color":"lightblue","left_color":"orange","left_mu":60,"right_mu":68,"left_numbers":[57,72,76,67,50],"right_numbers":[65,75,58,73,78],"points_earned":341,"phase":"task","trial_type":"horizons-task","trial_index":12,"time_elapsed":557590,"internal_node_id":"0.0-8.0","task_version":"0.2"},{"response_times":[793.9400000032037,1011.5799999330193,819.4600000279024,1112.8849999513477,5686.4000000059605],"keys_pressed":["leftarrow","leftarrow","rightarrow","rightarrow","rightarrow"],"horizon":5,"forced_choices":["leftarrow","leftarrow","rightarrow","rightarrow"],"right_color":"orange","left_color":"lightblue","left_mu":40,"right_mu":44,"left_numbers":[37,40,43,26,34],"right_numbers":[47,34,35,48,31],"points_earned":191,"phase":"task","trial_type":"horizons-task","trial_index":13,"time_elapsed":568520,"internal_node_id":"0.0-9.0","task_version":"0.2"},{"response_times":[1216.6199999628589,1253.474999917671,1115.2000000001863,1153.1749999849126,1909.0599999763072,1399.4900000980124,1620.7599999615923,1596.8949999660254,897.7849999209866,760.7600000919774],"keys_pressed":["leftarrow","rightarrow","rightarrow","leftarrow","rightarrow","rightarrow","rightarrow","rightarrow","rightarrow","rightarrow"],"horizon":10,"forced_choices":["leftarrow","rightarrow","rightarrow","leftarrow"],"right_color":"orange","left_color":"lightblue","left_mu":60,"right_mu":90,"left_numbers":[58,63,65,61,61,60,67,83,67,54],"right_numbers":[89,98,93,92,87,88,80,95,84,88],"points_earned":832,"phase":"task","trial_type":"horizons-task","trial_index":14,"time_elapsed":582947,"internal_node_id":"0.0-10.0","task_version":"0.2"},{"response_times":[1712.0499999728054,749.1949999239296,1199.9200000427663,767.4800000386313,1481.1650000046939,998.7699999473989,918.9199999673292,1291.815000004135,967.3750000074506,1002.6249999646097],"keys_pressed":["leftarrow","rightarrow","leftarrow","rightarrow","leftarrow","leftarrow","leftarrow","leftarrow","leftarrow","leftarrow"],"horizon":10,"forced_choices":["leftarrow","rightarrow","leftarrow","rightarrow"],"right_color":"lightblue","left_color":"orange","left_mu":40,"right_mu":10,"left_numbers":[56,48,48,30,44,37,48,37,43,46],"right_numbers":[17,4,14,6,12,7,7,10,8,0],"points_earned":369,"phase":"task","trial_type":"horizons-task","trial_index":15,"time_elapsed":595543,"internal_node_id":"0.0-11.0","task_version":"0.2"},{"response_times":[916.7949999682605,971.3900000788271,870.9749999688938,1163.8500000117347,1617.4050000263378,3978.9050000254065,2809.910000069067,860.8300000196323,613.9199999161065,693.0099999299273],"keys_pressed":["rightarrow","leftarrow","leftarrow","leftarrow","leftarrow","leftarrow","rightarrow","leftarrow","leftarrow","leftarrow"],"horizon":10,"forced_choices":["rightarrow","leftarrow","leftarrow","leftarrow"],"right_color":"orange","left_color":"lightblue","left_mu":60,"right_mu":40,"left_numbers":[52,58,53,57,66,39,42,68,55,58],"right_numbers":[42,33,45,41,34,27,27,46,47,35],"points_earned":523,"phase":"task","trial_type":"horizons-task","trial_index":16,"time_elapsed":611567,"internal_node_id":"0.0-12.0","task_version":"0.2"},{"response_times":[1370.9250000538304,2543.7549999915063,1558.1699999747798,791.1950000561774,698.6299999989569],"keys_pressed":["rightarrow","leftarrow","leftarrow","rightarrow","rightarrow"],"horizon":5,"forced_choices":["rightarrow","leftarrow","leftarrow","rightarrow"],"right_color":"lightblue","left_color":"orange","left_mu":40,"right_mu":60,"left_numbers":[44,35,37,28,44],"right_numbers":[53,48,48,66,40],"points_earned":231,"phase":"task","trial_type":"horizons-task","trial_index":17,"time_elapsed":620032,"internal_node_id":"0.0-13.0","task_version":"0.2"},{"response_times":[874.5600000256673,1029.3900000397116,752.9099999228492,929.72999997437,6982.264999998733,860.1349999662489,2430.174999986775,631.7949999356642,563.810000079684,469.9200000613928],"keys_pressed":["leftarrow","rightarrow","leftarrow","rightarrow","leftarrow","leftarrow","leftarrow","leftarrow","leftarrow","leftarrow"],"horizon":10,"forced_choices":["leftarrow","rightarrow","leftarrow","rightarrow"],"right_color":"orange","left_color":"lightblue","left_mu":40,"right_mu":36,"left_numbers":[51,29,22,29,41,35,33,37,34,50],"right_numbers":[41,50,33,21,46,34,30,31,38,57],"points_earned":374,"phase":"task","trial_type":"horizons-task","trial_index":18,"time_elapsed":637061,"internal_node_id":"0.0-14.0","task_version":"0.2"},{"response_times":[1003.8750000530854,6305.850000004284,2723.615000024438,544.7149999672547,5317.144999979064,1018.5199999250472,1473.494999925606,3560.7200000667945,1988.6699999915436,1833.3349999738857],"keys_pressed":["leftarrow","leftarrow","leftarrow","rightarrow","rightarrow","rightarrow","rightarrow","rightarrow","rightarrow","rightarrow"],"horizon":10,"forced_choices":["leftarrow","leftarrow","leftarrow","rightarrow"],"right_color":"lightblue","left_color":"orange","left_mu":40,"right_mu":60,"left_numbers":[45,32,32,31,43,35,45,28,50,37],"right_numbers":[72,52,65,47,45,51,52,64,58,60],"points_earned":486,"phase":"task","trial_type":"horizons-task","trial_index":19,"time_elapsed":664337,"internal_node_id":"0.0-15.0","task_version":"0.2"},{"response_times":[2035.9449998941272,1075.4699999233708,711.0999999567866,6469.179999898188,2143.0799999507144],"keys_pressed":["rightarrow","leftarrow","leftarrow","leftarrow","leftarrow"],"horizon":5,"forced_choices":["rightarrow","leftarrow","leftarrow","leftarrow"],"right_color":"lightblue","left_color":"orange","left_mu":40,"right_mu":32,"left_numbers":[59,39,49,45,32],"right_numbers":[42,39,27,30,22],"points_earned":207,"phase":"task","trial_type":"horizons-task","trial_index":20,"time_elapsed":678276,"internal_node_id":"0.0-16.0","task_version":"0.2"},{"response_times":[815.3049999382347,900.3050000173971,1057.3749999748543,1142.4399999668822,1624.7849999926984],"keys_pressed":["rightarrow","rightarrow","leftarrow","rightarrow","leftarrow"],"horizon":5,"forced_choices":["rightarrow","rightarrow","leftarrow","rightarrow"],"right_color":"lightblue","left_color":"orange","left_mu":40,"right_mu":28,"left_numbers":[32,45,48,51,40],"right_numbers":[21,15,40,26,15],"points_earned":150,"phase":"task","trial_type":"horizons-task","trial_index":21,"time_elapsed":685321,"internal_node_id":"0.0-17.0","task_version":"0.2"},{"response_times":[837.1749999932945,693.0249999277294,778.35999999661,642.9800000041723,2241.8199999956414,3554.615000030026,1067.4600000493228,3328.2449999824166,1331.2800000421703,497.51500005368143],"keys_pressed":["rightarrow","leftarrow","rightarrow","leftarrow","leftarrow","leftarrow","rightarrow","leftarrow","leftarrow","leftarrow"],"horizon":10,"forced_choices":["rightarrow","leftarrow","rightarrow","leftarrow"],"right_color":"lightblue","left_color":"orange","left_mu":40,"right_mu":28,"left_numbers":[48,43,46,37,37,29,44,39,39,39],"right_numbers":[25,9,24,32,17,29,25,32,30,32],"points_earned":337,"phase":"task","trial_type":"horizons-task","trial_index":22,"time_elapsed":701798,"internal_node_id":"0.0-18.0","task_version":"0.2"},{"response_times":[711.6049999604002,895.4900000244379,861.0399999888614,537.1199999935925,1929.9650000175461],"keys_pressed":["leftarrow","leftarrow","leftarrow","rightarrow","leftarrow"],"horizon":5,"forced_choices":["leftarrow","leftarrow","leftarrow","rightarrow"],"right_color":"orange","left_color":"lightblue","left_mu":60,"right_mu":72,"left_numbers":[70,50,59,57,49],"right_numbers":[86,82,63,55,65],"points_earned":283,"phase":"task","trial_type":"horizons-task","trial_index":23,"time_elapsed":708239,"internal_node_id":"0.0-19.0","task_version":"0.2"},{"response_times":[899.5100000174716,672.4600000306964,1060.9600000316277,1696.6099999845028,1090.1399999856949,671.4399999473244,599.8449999606237,1849.5050000492483,530.8550000190735,509.8799999104813],"keys_pressed":["leftarrow","rightarrow","rightarrow","rightarrow","leftarrow","rightarrow","rightarrow","rightarrow","leftarrow","rightarrow"],"horizon":10,"forced_choices":["leftarrow","rightarrow","rightarrow","rightarrow"],"right_color":"orange","left_color":"lightblue","left_mu":40,"right_mu":70,"left_numbers":[41,42,23,39,19,34,36,41,52,41],"right_numbers":[74,78,57,80,70,68,85,67,66,78],"points_earned":625,"phase":"task","trial_type":"horizons-task","trial_index":24,"time_elapsed":719326,"internal_node_id":"0.0-20.0","task_version":"0.2"},{"response_times":[1026.865000021644,1124.8650000197813,674.5649999938905,1078.429999994114,2501.3199999229982,1796.7100000241771,2294.7149999672547,1069.4900000235066,4044.6950000477955,788.6650000000373],"keys_pressed":["rightarrow","rightarrow","leftarrow","leftarrow","rightarrow","rightarrow","leftarrow","rightarrow","rightarrow","rightarrow"],"horizon":10,"forced_choices":["rightarrow","rightarrow","leftarrow","leftarrow"],"right_color":"orange","left_color":"lightblue","left_mu":60,"right_mu":72,"left_numbers":[55,52,65,55,48,67,48,52,54,51],"right_numbers":[76,72,63,68,58,65,69,78,75,66],"points_earned":658,"phase":"task","trial_type":"horizons-task","trial_index":25,"time_elapsed":737231,"internal_node_id":"0.0-21.0","task_version":"0.2"},{"response_times":[1014.5599999232218,1437.2849999926984,607.2649999987334,662.9799999063835,1993.445000029169,819.7200000286102,6276.004999992438,773.1950000161305,976.7650000285357,799.6699999785051],"keys_pressed":["rightarrow","rightarrow","leftarrow","leftarrow","leftarrow","leftarrow","leftarrow","rightarrow","rightarrow","rightarrow"],"horizon":10,"forced_choices":["rightarrow","rightarrow","leftarrow","leftarrow"],"right_color":"lightblue","left_color":"orange","left_mu":60,"right_mu":64,"left_numbers":[61,70,80,46,60,71,44,55,74,60],"right_numbers":[60,54,71,68,60,65,73,72,63,50],"points_earned":600,"phase":"task","trial_type":"horizons-task","trial_index":26,"time_elapsed":754095,"internal_node_id":"0.0-22.0","task_version":"0.2"},{"response_times":[789.6850000834092,744.234999991022,696.7800001148134,1388.6250000214204,3241.8199999956414],"keys_pressed":["leftarrow","rightarrow","rightarrow","rightarrow","leftarrow"],"horizon":5,"forced_choices":["leftarrow","rightarrow","rightarrow","rightarrow"],"right_color":"orange","left_color":"lightblue","left_mu":40,"right_mu":44,"left_numbers":[43,57,42,52,44],"right_numbers":[33,49,46,29,53],"points_earned":211,"phase":"task","trial_type":"horizons-task","trial_index":27,"time_elapsed":762459,"internal_node_id":"0.0-23.0","task_version":"0.2"},{"response_times":[842.2349999891594,928.2300000777468,1597.9950000764802,1570.175000000745,5558.530000038445,908.1549999536946,2948.0949999997392,860.6650000438094,1628.7099999608472,1223.3300000661984],"keys_pressed":["rightarrow","leftarrow","leftarrow","rightarrow","rightarrow","rightarrow","rightarrow","rightarrow","rightarrow","leftarrow"],"horizon":10,"forced_choices":["rightarrow","leftarrow","leftarrow","rightarrow"],"right_color":"orange","left_color":"lightblue","left_mu":40,"right_mu":70,"left_numbers":[44,36,32,43,38,55,35,33,51,39],"right_numbers":[78,67,61,77,76,70,74,71,58,77],"points_earned":611,"phase":"task","trial_type":"horizons-task","trial_index":28,"time_elapsed":782029,"internal_node_id":"0.0-24.0","task_version":"0.2"},{"response_times":[789.2099999589846,598.6849999753758,904.1000000433996,9028.415000066161,5610.38000008557],"keys_pressed":["rightarrow","leftarrow","leftarrow","rightarrow","leftarrow"],"horizon":5,"forced_choices":["rightarrow","leftarrow","leftarrow","rightarrow"],"right_color":"orange","left_color":"lightblue","left_mu":60,"right_mu":40,"left_numbers":[69,64,75,48,64],"right_numbers":[35,47,39,42,41],"points_earned":280,"phase":"task","trial_type":"horizons-task","trial_index":29,"time_elapsed":800463,"internal_node_id":"0.0-25.0","task_version":"0.2"},{"response_times":[965.4249999439344,789.0399999450892,613.2399999769405,649.0650000050664,2385.1150000700727],"keys_pressed":["leftarrow","leftarrow","rightarrow","leftarrow","rightarrow"],"horizon":5,"forced_choices":["leftarrow","leftarrow","rightarrow","leftarrow"],"right_color":"lightblue","left_color":"orange","left_mu":60,"right_mu":56,"left_numbers":[61,65,54,65,66],"right_numbers":[44,58,67,55,55],"points_earned":313,"phase":"task","trial_type":"horizons-task","trial_index":30,"time_elapsed":807371,"internal_node_id":"0.0-26.0","task_version":"0.2"},{"response_times":[992.9550000233576,789.2950000241399,657.6849999837577,2870.009999955073,3943.5350000858307],"keys_pressed":["rightarrow","rightarrow","leftarrow","leftarrow","leftarrow"],"horizon":5,"forced_choices":["rightarrow","rightarrow","leftarrow","leftarrow"],"right_color":"lightblue","left_color":"orange","left_mu":60,"right_mu":64,"left_numbers":[64,57,49,51,46],"right_numbers":[64,71,57,68,73],"points_earned":281,"phase":"task","trial_type":"horizons-task","trial_index":31,"time_elapsed":818128,"internal_node_id":"0.0-27.0","task_version":"0.2"},{"response_times":[754.7450000420213,570.6550000468269,2043.2149999542162,844.9800000526011,1849.0549999987707],"keys_pressed":["rightarrow","leftarrow","leftarrow","leftarrow","rightarrow"],"horizon":5,"forced_choices":["rightarrow","leftarrow","leftarrow","leftarrow"],"right_color":"orange","left_color":"lightblue","left_mu":60,"right_mu":40,"left_numbers":[64,64,59,52,58],"right_numbers":[51,57,35,41,51],"points_earned":277,"phase":"task","trial_type":"horizons-task","trial_index":32,"time_elapsed":825695,"internal_node_id":"0.0-28.0","task_version":"0.2"},{"response_times":[876.274999929592,687.9999999655411,752.3950000759214,2638.494999962859,1553.4350000089034],"keys_pressed":["leftarrow","rightarrow","rightarrow","rightarrow","leftarrow"],"horizon":5,"forced_choices":["leftarrow","rightarrow","rightarrow","rightarrow"],"right_color":"orange","left_color":"lightblue","left_mu":40,"right_mu":70,"left_numbers":[38,34,46,23,39],"right_numbers":[69,56,70,75,69],"points_earned":278,"phase":"task","trial_type":"horizons-task","trial_index":33,"time_elapsed":833706,"internal_node_id":"0.0-29.0","task_version":"0.2"},{"response_times":[799.4900000048801,1060.5450000148267,1016.2149999523535,713.9099999330938,2303.129999898374,1074.4949999498203,5263.844999950379,1494.4649999961257,2852.030000067316,914.7850000299513],"keys_pressed":["leftarrow","leftarrow","rightarrow","leftarrow","rightarrow","rightarrow","rightarrow","leftarrow","leftarrow","leftarrow"],"horizon":10,"forced_choices":["leftarrow","leftarrow","rightarrow","leftarrow"],"right_color":"orange","left_color":"lightblue","left_mu":40,"right_mu":20,"left_numbers":[36,29,28,44,41,43,57,37,47,33],"right_numbers":[28,20,28,14,19,5,28,16,24,20],"points_earned":306,"phase":"task","trial_type":"horizons-task","trial_index":34,"time_elapsed":852706,"internal_node_id":"0.0-30.0","task_version":"0.2"},{"response_times":[1027.6150000281632,738.8049999717623,937.5199999194592,749.0999998990446,2720.9500001044944,2687.830000068061,2411.94500005804,3359.6400000387803,1331.5650000004098,10003.290000022389],"keys_pressed":["leftarrow","leftarrow","rightarrow","leftarrow","rightarrow","rightarrow","leftarrow","rightarrow","leftarrow","leftarrow"],"horizon":10,"forced_choices":["leftarrow","leftarrow","rightarrow","leftarrow"],"right_color":"lightblue","left_color":"orange","left_mu":60,"right_mu":64,"left_numbers":[70,54,54,54,61,60,58,62,58,69],"right_numbers":[59,62,55,55,47,64,52,64,58,52],"points_earned":593,"phase":"task","trial_type":"horizons-task","trial_index":35,"time_elapsed":880182,"internal_node_id":"0.0-31.0","task_version":"0.2"},{"response_times":[669.8049999540672,506.7900000140071,508.1149999750778,1591.4249999914318,1558.6599999805912,3461.0699999611825,15381.565000046976,1711.379999993369,1862.844999996014,737.6849999418482],"keys_pressed":["leftarrow","rightarrow","leftarrow","leftarrow","rightarrow","rightarrow","rightarrow","leftarrow","rightarrow","leftarrow"],"horizon":10,"forced_choices":["leftarrow","rightarrow","leftarrow","leftarrow"],"right_color":"orange","left_color":"lightblue","left_mu":60,"right_mu":52,"left_numbers":[49,52,56,59,57,64,71,66,59,53],"right_numbers":[53,57,55,56,52,60,40,39,70,55],"points_earned":562,"phase":"task","trial_type":"horizons-task","trial_index":36,"time_elapsed":909678,"internal_node_id":"0.0-32.0","task_version":"0.2"},{"response_times":[844.9450000189245,533.629999961704,726.909999968484,781.9349999772385,2324.670000001788,2614.7049999563023,660.2949999505654,1953.9649999933317,1020.9650000324473,10228.560000075959],"keys_pressed":["rightarrow","leftarrow","rightarrow","rightarrow","leftarrow","leftarrow","rightarrow","leftarrow","rightarrow","leftarrow"],"horizon":10,"forced_choices":["rightarrow","leftarrow","rightarrow","rightarrow"],"right_color":"orange","left_color":"lightblue","left_mu":60,"right_mu":48,"left_numbers":[48,61,72,49,54,48,65,51,54,67],"right_numbers":[50,45,43,42,50,55,45,44,55,33],"points_earned":516,"phase":"task","trial_type":"horizons-task","trial_index":37,"time_elapsed":932875,"internal_node_id":"0.0-33.0","task_version":"0.2"},{"response_times":[778.5950000397861,651.2150000780821,592.534999945201,895.4499999526888,2665.2549999998882,1596.1850000312552,3646.614999976009,996.7649999307469,785.9999999636784,6037.18999994453],"keys_pressed":["rightarrow","leftarrow","rightarrow","leftarrow","rightarrow","leftarrow","leftarrow","rightarrow","leftarrow","leftarrow"],"horizon":10,"forced_choices":["rightarrow","leftarrow","rightarrow","leftarrow"],"right_color":"orange","left_color":"lightblue","left_mu":60,"right_mu":52,"left_numbers":[51,72,52,63,67,58,57,51,56,52],"right_numbers":[45,44,54,68,54,54,56,37,52,40],"points_earned":548,"phase":"task","trial_type":"horizons-task","trial_index":38,"time_elapsed":953025,"internal_node_id":"0.0-34.0","task_version":"0.2"},{"response_times":[896.9250000081956,545.1650000177324,810.8299999730662,1105.504999984987,4939.8849999997765],"keys_pressed":["rightarrow","leftarrow","rightarrow","leftarrow","rightarrow"],"horizon":5,"forced_choices":["rightarrow","leftarrow","rightarrow","leftarrow"],"right_color":"lightblue","left_color":"orange","left_mu":60,"right_mu":30,"left_numbers":[47,67,66,62,54],"right_numbers":[30,29,53,21,31],"points_earned":243,"phase":"task","trial_type":"horizons-task","trial_index":39,"time_elapsed":962830,"internal_node_id":"0.0-35.0","task_version":"0.2"},{"response_times":[926.9250000361353,691.0049999132752,1375.6800000555813,488.149999990128,1567.559999995865,1008.0100001068786,1777.8399999951944,1280.254999990575,915.7050000503659,1877.9099999228492],"keys_pressed":["rightarrow","rightarrow","leftarrow","rightarrow","leftarrow","leftarrow","rightarrow","leftarrow","rightarrow","leftarrow"],"horizon":10,"forced_choices":["rightarrow","rightarrow","leftarrow","rightarrow"],"right_color":"orange","left_color":"lightblue","left_mu":60,"right_mu":90,"left_numbers":[46,47,51,57,65,61,61,55,61,50],"right_numbers":[106,86,87,104,78,94,88,87,103,90],"points_earned":769,"phase":"task","trial_type":"horizons-task","trial_index":40,"time_elapsed":976245,"internal_node_id":"0.0-36.0","task_version":"0.2"},{"response_times":[5608.854999998584,750.6400001002476,865.9800000023097,665.9349999390543,715.3549999929965],"keys_pressed":["rightarrow","rightarrow","rightarrow","leftarrow","leftarrow"],"horizon":5,"forced_choices":["rightarrow","rightarrow","rightarrow","leftarrow"],"right_color":"lightblue","left_color":"orange","left_mu":60,"right_mu":30,"left_numbers":[60,49,53,54,70],"right_numbers":[30,32,33,22,21],"points_earned":219,"phase":"task","trial_type":"horizons-task","trial_index":41,"time_elapsed":986358,"internal_node_id":"0.0-37.0","task_version":"0.2"},{"response_times":[15184.830000041984,743.0399999720976,1145.7599999848753,1104.894999996759,2777.6750000193715],"keys_pressed":["rightarrow","rightarrow","leftarrow","leftarrow","leftarrow"],"horizon":5,"forced_choices":["rightarrow","rightarrow","leftarrow","leftarrow"],"right_color":"orange","left_color":"lightblue","left_mu":60,"right_mu":72,"left_numbers":[54,67,61,53,44],"right_numbers":[72,68,65,73,66],"points_earned":298,"phase":"task","trial_type":"horizons-task","trial_index":42,"time_elapsed":1008818,"internal_node_id":"0.0-38.0","task_version":"0.2"},{"response_times":[19355.51999998279,949.8649999732152,820.1049999333918,745.6450000172481,1448.8999999593943,3292.4349999520928,881.5949999261647,1047.2199999494478,2123.875000048429,1791.0350000020117],"keys_pressed":["leftarrow","rightarrow","leftarrow","rightarrow","leftarrow","rightarrow","leftarrow","rightarrow","leftarrow","leftarrow"],"horizon":10,"forced_choices":["leftarrow","rightarrow","leftarrow","rightarrow"],"right_color":"lightblue","left_color":"orange","left_mu":60,"right_mu":56,"left_numbers":[65,75,58,45,58,54,45,58,60,65],"right_numbers":[55,39,67,47,61,56,43,48,50,54],"points_earned":541,"phase":"task","trial_type":"horizons-task","trial_index":43,"time_elapsed":1042778,"internal_node_id":"0.0-39.0","task_version":"0.2"},{"response_times":[602.4599999655038,442.4250000156462,706.0650000348687,603.8249999983236,3334.054999984801,1423.6699999310076,1512.5049999915063,992.2749999677762,4026.629999978468,5650.759999989532],"keys_pressed":["rightarrow","leftarrow","leftarrow","rightarrow","leftarrow","rightarrow","leftarrow","rightarrow","leftarrow","leftarrow"],"horizon":10,"forced_choices":["rightarrow","leftarrow","leftarrow","rightarrow"],"right_color":"orange","left_color":"lightblue","left_mu":60,"right_mu":48,"left_numbers":[59,70,62,61,53,54,51,59,55,64],"right_numbers":[60,48,49,38,40,41,54,51,54,37],"points_earned":545,"phase":"task","trial_type":"horizons-task","trial_index":44,"time_elapsed":1063576,"internal_node_id":"0.0-40.0","task_version":"0.2"},{"response_times":[835.6149999890476,456.25000004656613,426.7250000266358,763.4800000814721,3308.3300000289455],"keys_pressed":["leftarrow","rightarrow","leftarrow","rightarrow","leftarrow"],"horizon":5,"forced_choices":["leftarrow","rightarrow","leftarrow","rightarrow"],"right_color":"orange","left_color":"lightblue","left_mu":40,"right_mu":36,"left_numbers":[39,45,42,37,33],"right_numbers":[26,38,36,38,30],"points_earned":190,"phase":"task","trial_type":"horizons-task","trial_index":45,"time_elapsed":1070887,"internal_node_id":"0.0-41.0","task_version":"0.2"},{"response_times":[764.3749999115244,724.1800000192598,1233.7050000205636,541.9799999799579,7335.285000037402,1582.3249999666587,4490.510000032373,960.7100000139326,5303.105000057258,1085.3050000732765],"keys_pressed":["rightarrow","rightarrow","leftarrow","rightarrow","leftarrow","leftarrow","rightarrow","rightarrow","leftarrow","rightarrow"],"horizon":10,"forced_choices":["rightarrow","rightarrow","leftarrow","rightarrow"],"right_color":"lightblue","left_color":"orange","left_mu":40,"right_mu":52,"left_numbers":[37,50,36,29,41,38,45,39,40,37],"right_numbers":[44,45,49,36,52,54,59,52,62,38],"points_earned":429,"phase":"task","trial_type":"horizons-task","trial_index":46,"time_elapsed":1096414,"internal_node_id":"0.0-42.0","task_version":"0.2"},{"response_times":[655.6150000542402,457.15500006917864,689.6499999566004,613.4750000201166,2243.8299999339506],"keys_pressed":["rightarrow","leftarrow","leftarrow","rightarrow","leftarrow"],"horizon":5,"forced_choices":["rightarrow","leftarrow","leftarrow","rightarrow"],"right_color":"orange","left_color":"lightblue","left_mu":60,"right_mu":48,"left_numbers":[65,53,63,57,65],"right_numbers":[54,38,48,47,48],"points_earned":282,"phase":"task","trial_type":"horizons-task","trial_index":47,"time_elapsed":1102577,"internal_node_id":"0.0-43.0","task_version":"0.2"},{"response_times":[638.0300000309944,637.1700000017881,733.9149999897927,634.5599999185652,1168.610000051558,1162.0899999979883,1950.9949999628589,790.8850000239909,1819.3549999268726,805.5999999633059],"keys_pressed":["leftarrow","leftarrow","leftarrow","rightarrow","rightarrow","rightarrow","leftarrow","rightarrow","rightarrow","rightarrow"],"horizon":10,"forced_choices":["leftarrow","leftarrow","leftarrow","rightarrow"],"right_color":"orange","left_color":"lightblue","left_mu":60,"right_mu":72,"left_numbers":[69,44,61,58,66,56,53,60,75,57],"right_numbers":[85,74,60,76,67,83,74,76,71,58],"points_earned":658,"phase":"task","trial_type":"horizons-task","trial_index":48,"time_elapsed":1114421,"internal_node_id":"0.0-44.0","task_version":"0.2"},{"response_times":[1290.0399999925867,646.6149999760091,775.5649999016896,1434.804999968037,1888.8850000221282],"keys_pressed":["leftarrow","rightarrow","rightarrow","leftarrow","rightarrow"],"horizon":5,"forced_choices":["leftarrow","rightarrow","rightarrow","leftarrow"],"right_color":"lightblue","left_color":"orange","left_mu":60,"right_mu":68,"left_numbers":[70,64,71,60,67],"right_numbers":[64,77,74,61,63],"points_earned":344,"phase":"task","trial_type":"horizons-task","trial_index":49,"time_elapsed":1121961,"internal_node_id":"0.0-45.0","task_version":"0.2"},{"response_times":[868.4699999867007,820.5299999099225,949.5149999856949,1043.1300000054762,2893.2600000407547,1787.0249999687076,784.3750000465661,826.9199999049306,1506.0999999986961,820.5549999838695],"keys_pressed":["leftarrow","leftarrow","rightarrow","rightarrow","leftarrow","rightarrow","rightarrow","rightarrow","rightarrow","rightarrow"],"horizon":10,"forced_choices":["leftarrow","leftarrow","rightarrow","rightarrow"],"right_color":"lightblue","left_color":"orange","left_mu":60,"right_mu":80,"left_numbers":[65,54,49,52,56,59,53,58,64,64],"right_numbers":[79,84,73,88,83,94,82,73,85,77],"points_earned":747,"phase":"task","trial_type":"horizons-task","trial_index":50,"time_elapsed":1135766,"internal_node_id":"0.0-46.0","task_version":"0.2"},{"view_history":"[{\"page_index\":0,\"viewing_time\":5134.959999937564},{\"page_index\":1,\"viewing_time\":4169.944999972358}]","rt":9305.424999911338,"trial_type":"instructions","trial_index":51,"time_elapsed":1145072,"internal_node_id":"0.0-47.0","task_version":"0.2"},{"response_times":[1195.769999991171,641.9450000394136,691.9749999651685,1229.8900000751019,2366.4600000483915,2480.265000020154,835.5549999978393,1255.7350000133738,568.8349999254569,463.4899999946356],"keys_pressed":["rightarrow","leftarrow","rightarrow","leftarrow","leftarrow","rightarrow","leftarrow","rightarrow","leftarrow","leftarrow"],"horizon":10,"forced_choices":["rightarrow","leftarrow","rightarrow","leftarrow"],"right_color":"lightblue","left_color":"orange","left_mu":60,"right_mu":30,"left_numbers":[60,69,62,60,54,68,56,62,55,62],"right_numbers":[23,28,18,40,18,26,20,34,28,33],"points_earned":457,"phase":"task","trial_type":"horizons-task","trial_index":52,"time_elapsed":1158310,"internal_node_id":"0.0-48.0","task_version":"0.2"},{"response_times":[967.0600000536069,621.8749999534339,506.1899999855086,1418.4449999593198,1445.049999980256,817.0600000303239,593.3549999026582,526.7800000729039,1395.23000002373,71.51000003796071],"keys_pressed":["rightarrow","leftarrow","rightarrow","rightarrow","leftarrow","leftarrow","rightarrow","rightarrow","rightarrow","rightarrow"],"horizon":10,"forced_choices":["rightarrow","leftarrow","rightarrow","rightarrow"],"right_color":"lightblue","left_color":"orange","left_mu":60,"right_mu":80,"left_numbers":[57,54,74,72,45,59,59,57,67,57],"right_numbers":[81,79,75,87,82,68,80,71,85,88],"points_earned":725,"phase":"task","trial_type":"horizons-task","trial_index":53,"time_elapsed":1168176,"internal_node_id":"0.0-49.0","task_version":"0.2"},{"response_times":[1018.5549999587238,536.2650000024587,859.7399999853224,1607.2799999965355,2866.3050000322983],"keys_pressed":["leftarrow","rightarrow","leftarrow","leftarrow","rightarrow"],"horizon":5,"forced_choices":["leftarrow","rightarrow","leftarrow","leftarrow"],"right_color":"orange","left_color":"lightblue","left_mu":40,"right_mu":48,"left_numbers":[39,17,34,29,26],"right_numbers":[52,52,45,47,52],"points_earned":206,"phase":"task","trial_type":"horizons-task","trial_index":54,"time_elapsed":1176568,"internal_node_id":"0.0-50.0","task_version":"0.2"},{"response_times":[672.249999945052,1396.4599999599159,536.8149999994785,545.3899999847636,1698.340000002645,936.6199999349192,1090.570000000298,1259.059999953024,485.7550000306219,608.6300000315532],"keys_pressed":["rightarrow","rightarrow","rightarrow","leftarrow","leftarrow","leftarrow","rightarrow","leftarrow","leftarrow","leftarrow"],"horizon":10,"forced_choices":["rightarrow","rightarrow","rightarrow","leftarrow"],"right_color":"lightblue","left_color":"orange","left_mu":60,"right_mu":30,"left_numbers":[58,59,51,54,51,70,52,63,56,43],"right_numbers":[11,27,27,41,29,22,25,34,17,37],"points_earned":427,"phase":"task","trial_type":"horizons-task","trial_index":55,"time_elapsed":1187301,"internal_node_id":"0.0-51.0","task_version":"0.2"},{"response_times":[1088.1049999734387,627.3349999682978,676.3949999585748,771.8299999833107,1401.1300000129268,899.9900000635535,6657.219999935478,606.7550000734627,685.4550000280142,204.09000001382083],"keys_pressed":["leftarrow","rightarrow","rightarrow","rightarrow","leftarrow","leftarrow","rightarrow","leftarrow","rightarrow","rightarrow"],"horizon":10,"forced_choices":["leftarrow","rightarrow","rightarrow","rightarrow"],"right_color":"orange","left_color":"lightblue","left_mu":40,"right_mu":44,"left_numbers":[37,35,53,40,56,44,23,27,30,44],"right_numbers":[47,41,58,45,45,54,43,44,45,38],"points_earned":434,"phase":"task","trial_type":"horizons-task","trial_index":56,"time_elapsed":1202424,"internal_node_id":"0.0-52.0","task_version":"0.2"},{"response_times":[729.3099999660626,520.6499999621883,472.2000000765547,795.0249999994412,1509.8049999214709],"keys_pressed":["rightarrow","leftarrow","rightarrow","rightarrow","leftarrow"],"horizon":5,"forced_choices":["rightarrow","leftarrow","rightarrow","rightarrow"],"right_color":"orange","left_color":"lightblue","left_mu":60,"right_mu":48,"left_numbers":[46,66,51,74,60],"right_numbers":[44,54,56,40,37],"points_earned":266,"phase":"task","trial_type":"horizons-task","trial_index":57,"time_elapsed":1207956,"internal_node_id":"0.0-53.0","task_version":"0.2"},{"response_times":[1198.2149999821559,757.5049999868497,545.3249999554828,798.3050000621006,2662.5500000081956],"keys_pressed":["leftarrow","leftarrow","rightarrow","leftarrow","leftarrow"],"horizon":5,"forced_choices":["leftarrow","leftarrow","rightarrow","leftarrow"],"right_color":"orange","left_color":"lightblue","left_mu":40,"right_mu":20,"left_numbers":[23,41,40,36,51],"right_numbers":[24,23,16,13,8],"points_earned":167,"phase":"task","trial_type":"horizons-task","trial_index":58,"time_elapsed":1215424,"internal_node_id":"0.0-54.0","task_version":"0.2"},{"response_times":[1010.3349999990314,589.7399999666959,1059.140000026673,982.0850000251085,1665.5050000408664],"keys_pressed":["leftarrow","rightarrow","rightarrow","leftarrow","rightarrow"],"horizon":5,"forced_choices":["leftarrow","rightarrow","rightarrow","leftarrow"],"right_color":"orange","left_color":"lightblue","left_mu":60,"right_mu":90,"left_numbers":[62,65,69,57,61],"right_numbers":[83,75,89,95,72],"points_earned":355,"phase":"task","trial_type":"horizons-task","trial_index":59,"time_elapsed":1222238,"internal_node_id":"0.0-55.0","task_version":"0.2"},{"response_times":[678.8500000257045,692.9349999409169,755.669999984093,550.0450000399724,4095.234999898821,704.4499999610707,3367.2399999340996,3025.179999996908,526.2199999997392,464.42500001285225],"keys_pressed":["rightarrow","rightarrow","leftarrow","rightarrow","leftarrow","leftarrow","rightarrow","leftarrow","leftarrow","leftarrow"],"horizon":10,"forced_choices":["rightarrow","rightarrow","leftarrow","rightarrow"],"right_color":"lightblue","left_color":"orange","left_mu":40,"right_mu":28,"left_numbers":[39,32,37,40,55,41,29,45,43,48],"right_numbers":[22,44,23,23,31,24,20,29,28,14],"points_earned":378,"phase":"task","trial_type":"horizons-task","trial_index":60,"time_elapsed":1238602,"internal_node_id":"0.0-56.0","task_version":"0.2"},{"response_times":[772.3649999825284,896.0499999811873,785.8550000237301,717.0700000133365,4220.864999922924],"keys_pressed":["rightarrow","rightarrow","leftarrow","rightarrow","leftarrow"],"horizon":5,"forced_choices":["rightarrow","rightarrow","leftarrow","rightarrow"],"right_color":"orange","left_color":"lightblue","left_mu":60,"right_mu":90,"left_numbers":[55,63,64,51,60],"right_numbers":[88,103,87,98,78],"points_earned":413,"phase":"task","trial_type":"horizons-task","trial_index":61,"time_elapsed":1247498,"internal_node_id":"0.0-57.0","task_version":"0.2"},{"response_times":[979.4099999126047,658.339999965392,556.4950000261888,671.4549999451265,4219.814999960363,759.0599999530241,779.8300000140443,771.5400001034141,1303.3049999503419,980.974999954924],"keys_pressed":["leftarrow","leftarrow","rightarrow","rightarrow","rightarrow","leftarrow","rightarrow","leftarrow","rightarrow","leftarrow"],"horizon":10,"forced_choices":["leftarrow","leftarrow","rightarrow","rightarrow"],"right_color":"orange","left_color":"lightblue","left_mu":40,"right_mu":44,"left_numbers":[40,52,41,46,39,38,55,42,31,24],"right_numbers":[47,56,55,42,36,34,42,39,27,39],"points_earned":398,"phase":"task","trial_type":"horizons-task","trial_index":62,"time_elapsed":1260681,"internal_node_id":"0.0-58.0","task_version":"0.2"},{"response_times":[806.940000038594,568.5999999986961,773.6250000307336,740.8699999796227,3284.400000004098,1954.9499999266118,1014.8649999173358,1996.9499999424443,1029.2549999430776,501.9099999917671],"keys_pressed":["rightarrow","leftarrow","leftarrow","rightarrow","rightarrow","rightarrow","leftarrow","leftarrow","rightarrow","rightarrow"],"horizon":10,"forced_choices":["rightarrow","leftarrow","leftarrow","rightarrow"],"right_color":"lightblue","left_color":"orange","left_mu":40,"right_mu":60,"left_numbers":[32,48,42,40,37,25,33,44,45,41],"right_numbers":[49,55,54,54,61,77,65,43,55,70],"points_earned":533,"phase":"task","trial_type":"horizons-task","trial_index":63,"time_elapsed":1274859,"internal_node_id":"0.0-59.0","task_version":"0.2"},{"response_times":[1088.1500000832602,497.5550000090152,573.5650000860915,710.8500000322238,1351.9150000065565],"keys_pressed":["leftarrow","rightarrow","leftarrow","leftarrow","rightarrow"],"horizon":5,"forced_choices":["leftarrow","rightarrow","leftarrow","leftarrow"],"right_color":"orange","left_color":"lightblue","left_mu":60,"right_mu":52,"left_numbers":[61,60,66,63,60],"right_numbers":[49,51,45,62,57],"points_earned":298,"phase":"task","trial_type":"horizons-task","trial_index":64,"time_elapsed":1280587,"internal_node_id":"0.0-60.0","task_version":"0.2"},{"response_times":[717.2400000272319,552.1500000031665,712.3099999735132,646.0800000932068,2128.2299999147654],"keys_pressed":["leftarrow","rightarrow","leftarrow","rightarrow","leftarrow"],"horizon":5,"forced_choices":["leftarrow","rightarrow","leftarrow","rightarrow"],"right_color":"orange","left_color":"lightblue","left_mu":40,"right_mu":20,"left_numbers":[40,21,49,26,33],"right_numbers":[35,14,7,20,8],"points_earned":156,"phase":"task","trial_type":"horizons-task","trial_index":65,"time_elapsed":1286846,"internal_node_id":"0.0-61.0","task_version":"0.2"},{"response_times":[725.1200000755489,457.93499995488673,683.0499999923632,948.9999999059364,1723.2000000076368,797.3150000907481,2083.379999967292,593.3550000190735,742.1650000615045,445.6549999304116],"keys_pressed":["leftarrow","rightarrow","rightarrow","leftarrow","leftarrow","rightarrow","rightarrow","leftarrow","rightarrow","rightarrow"],"horizon":10,"forced_choices":["leftarrow","rightarrow","rightarrow","leftarrow"],"right_color":"lightblue","left_color":"orange","left_mu":40,"right_mu":52,"left_numbers":[36,38,47,34,34,53,48,31,26,41],"right_numbers":[40,45,56,58,40,56,56,50,55,63],"points_earned":466,"phase":"task","trial_type":"horizons-task","trial_index":66,"time_elapsed":1297551,"internal_node_id":"0.0-62.0","task_version":"0.2"},{"response_times":[833.3750000456348,469.0249999985099,622.910000034608,1295.4300000565127,1039.5400000270456,613.4850000962615,1096.5250000590459,951.2200000463054,1106.3500000163913,1724.9099999899045],"keys_pressed":["leftarrow","rightarrow","rightarrow","rightarrow","leftarrow","leftarrow","rightarrow","leftarrow","leftarrow","rightarrow"],"horizon":10,"forced_choices":["leftarrow","rightarrow","rightarrow","rightarrow"],"right_color":"lightblue","left_color":"orange","left_mu":60,"right_mu":68,"left_numbers":[53,73,41,61,55,61,55,65,47,60],"right_numbers":[79,66,54,64,63,63,48,58,63,60],"points_earned":573,"phase":"task","trial_type":"horizons-task","trial_index":67,"time_elapsed":1308807,"internal_node_id":"0.0-63.0","task_version":"0.2"},{"response_times":[734.7600000211969,829.7449999954551,2537.4099999899045,642.2200000379235,1766.7099999962375,597.234999993816,828.235000022687,1036.1549999797717,1156.514999922365,4121.01000000257],"keys_pressed":["rightarrow","rightarrow","leftarrow","leftarrow","rightarrow","leftarrow","rightarrow","rightarrow","leftarrow","rightarrow"],"horizon":10,"forced_choices":["rightarrow","rightarrow","leftarrow","leftarrow"],"right_color":"orange","left_color":"lightblue","left_mu":40,"right_mu":48,"left_numbers":[23,34,26,31,28,54,44,41,21,33],"right_numbers":[22,42,46,52,46,50,52,34,46,46],"points_earned":374,"phase":"task","trial_type":"horizons-task","trial_index":68,"time_elapsed":1324561,"internal_node_id":"0.0-64.0","task_version":"0.2"},{"response_times":[658.7150000268593,403.0199999688193,458.3400000119582,801.1300000362098,4078.8549999706447],"keys_pressed":["rightarrow","leftarrow","rightarrow","rightarrow","leftarrow"],"horizon":5,"forced_choices":["rightarrow","leftarrow","rightarrow","rightarrow"],"right_color":"lightblue","left_color":"orange","left_mu":60,"right_mu":80,"left_numbers":[67,60,48,59,62],"right_numbers":[88,70,69,79,74],"points_earned":358,"phase":"task","trial_type":"horizons-task","trial_index":69,"time_elapsed":1332470,"internal_node_id":"0.0-65.0","task_version":"0.2"},{"response_times":[629.7299999278039,636.2400000216439,698.1399999931455,695.3050000593066,1342.5699999788776],"keys_pressed":["rightarrow","rightarrow","leftarrow","rightarrow","leftarrow"],"horizon":5,"forced_choices":["rightarrow","rightarrow","leftarrow","rightarrow"],"right_color":"lightblue","left_color":"orange","left_mu":40,"right_mu":52,"left_numbers":[43,37,44,51,37],"right_numbers":[50,51,44,65,66],"points_earned":247,"phase":"task","trial_type":"horizons-task","trial_index":70,"time_elapsed":1337978,"internal_node_id":"0.0-66.0","task_version":"0.2"},{"response_times":[592.8849999327213,1113.1049999967217,1133.7899999925867,847.8050000267103,1941.6399999754503],"keys_pressed":["rightarrow","rightarrow","leftarrow","leftarrow","rightarrow"],"horizon":5,"forced_choices":["rightarrow","rightarrow","leftarrow","leftarrow"],"right_color":"orange","left_color":"lightblue","left_mu":40,"right_mu":48,"left_numbers":[46,53,39,31,32],"right_numbers":[40,49,46,39,50],"points_earned":209,"phase":"task","trial_type":"horizons-task","trial_index":71,"time_elapsed":1345111,"internal_node_id":"0.0-67.0","task_version":"0.2"},{"response_times":[681.940000038594,525.6850000005215,1751.274999929592,909.2399999499321,2283.2899999339134],"keys_pressed":["leftarrow","rightarrow","leftarrow","rightarrow","rightarrow"],"horizon":5,"forced_choices":["leftarrow","rightarrow","leftarrow","rightarrow"],"right_color":"lightblue","left_color":"orange","left_mu":40,"right_mu":10,"left_numbers":[37,43,45,35,40],"right_numbers":[0,0,1,7,6],"points_earned":95,"phase":"task","trial_type":"horizons-task","trial_index":72,"time_elapsed":1352770,"internal_node_id":"0.0-68.0","task_version":"0.2"},{"response_times":[683.7799999630079,464.01499991770834,817.0949999475852,768.694999977015,9339.305000030436,2606.6400000127032,9857.364999945275,2144.2800000077114,654.8000000184402,313.39000002481043],"keys_pressed":["rightarrow","leftarrow","leftarrow","rightarrow","rightarrow","leftarrow","leftarrow","rightarrow","leftarrow","leftarrow"],"horizon":10,"forced_choices":["rightarrow","leftarrow","leftarrow","rightarrow"],"right_color":"orange","left_color":"lightblue","left_mu":60,"right_mu":40,"left_numbers":[47,49,56,69,74,59,68,57,51,65],"right_numbers":[36,27,49,46,33,28,46,41,44,45],"points_earned":504,"phase":"task","trial_type":"horizons-task","trial_index":73,"time_elapsed":1381923,"internal_node_id":"0.0-69.0","task_version":"0.2"},{"response_times":[774.1399999940768,538.8550000498071,1178.334999945946,492.6149999955669,5830.210000043735,734.5350000541657,1186.4300000015646,730.6150000076741,5107.064999989234,478.9599999785423],"keys_pressed":["leftarrow","rightarrow","rightarrow","leftarrow","rightarrow","rightarrow","leftarrow","leftarrow","rightarrow","rightarrow"],"horizon":10,"forced_choices":["leftarrow","rightarrow","rightarrow","leftarrow"],"right_color":"lightblue","left_color":"orange","left_mu":60,"right_mu":68,"left_numbers":[57,51,76,63,52,57,64,59,65,58],"right_numbers":[74,61,80,61,73,82,77,75,84,62],"points_earned":685,"phase":"task","trial_type":"horizons-task","trial_index":74,"time_elapsed":1400487,"internal_node_id":"0.0-70.0","task_version":"0.2"},{"response_times":[656.6200000233948,410.29999998863786,829.494999954477,1424.7300000861287,963.564999983646],"keys_pressed":["rightarrow","leftarrow","leftarrow","leftarrow","rightarrow"],"horizon":5,"forced_choices":["rightarrow","leftarrow","leftarrow","leftarrow"],"right_color":"orange","left_color":"lightblue","left_mu":40,"right_mu":36,"left_numbers":[42,36,35,38,34],"right_numbers":[37,49,27,38,39],"points_earned":185,"phase":"task","trial_type":"horizons-task","trial_index":75,"time_elapsed":1406298,"internal_node_id":"0.0-71.0","task_version":"0.2"},{"response_times":[644.0799999982119,735.9050000086427,1030.185000039637,1000.5900000687689,3300.4600000567734],"keys_pressed":["rightarrow","rightarrow","rightarrow","leftarrow","leftarrow"],"horizon":5,"forced_choices":["rightarrow","rightarrow","rightarrow","leftarrow"],"right_color":"lightblue","left_color":"orange","left_mu":40,"right_mu":10,"left_numbers":[29,38,30,26,53],"right_numbers":[11,3,12,0,21],"points_earned":105,"phase":"task","trial_type":"horizons-task","trial_index":76,"time_elapsed":1414513,"internal_node_id":"0.0-72.0","task_version":"0.2"},{"response_times":[756.8350000074133,499.71999996341765,666.5299999294803,1716.264999937266,9686.495000030845],"keys_pressed":["leftarrow","rightarrow","rightarrow","leftarrow","rightarrow"],"horizon":5,"forced_choices":["leftarrow","rightarrow","rightarrow","leftarrow"],"right_color":"lightblue","left_color":"orange","left_mu":40,"right_mu":52,"left_numbers":[46,43,49,31,50],"right_numbers":[46,42,39,35,45],"points_earned":203,"phase":"task","trial_type":"horizons-task","trial_index":77,"time_elapsed":1429342,"internal_node_id":"0.0-73.0","task_version":"0.2"},{"response_times":[770.6949999555945,324.9000000068918,1188.9550000196323,2168.165000039153,3244.0499999793246,2324.0650000516325,1611.5049999207258,6572.790000005625,2532.8150000423193,574.9599999981001],"keys_pressed":["rightarrow","leftarrow","leftarrow","leftarrow","rightarrow","rightarrow","leftarrow","rightarrow","leftarrow","leftarrow"],"horizon":10,"forced_choices":["rightarrow","leftarrow","leftarrow","leftarrow"],"right_color":"orange","left_color":"lightblue","left_mu":40,"right_mu":36,"left_numbers":[43,42,42,51,27,50,36,28,48,48],"right_numbers":[40,27,35,46,27,53,41,40,37,19],"points_earned":427,"phase":"task","trial_type":"horizons-task","trial_index":78,"time_elapsed":1452159,"internal_node_id":"0.0-74.0","task_version":"0.2"},{"response_times":[678.9300000527874,513.9700000872836,641.8899999698624,874.2349999956787,1562.210000003688,616.3899999810383,1656.319999950938,1018.2700000004843,506.88500003889203,236.29499995149672],"keys_pressed":["leftarrow","rightarrow","leftarrow","leftarrow","rightarrow","rightarrow","leftarrow","leftarrow","rightarrow","rightarrow"],"horizon":10,"forced_choices":["leftarrow","rightarrow","leftarrow","leftarrow"],"right_color":"orange","left_color":"lightblue","left_mu":40,"right_mu":48,"left_numbers":[42,57,36,49,28,41,37,28,40,46],"right_numbers":[42,42,56,64,38,51,45,45,36,40],"points_earned":399,"phase":"task","trial_type":"horizons-task","trial_index":79,"time_elapsed":1461967,"internal_node_id":"0.0-75.0","task_version":"0.2"},{"response_times":[641.1349999252707,585.5349999619648,469.8749999515712,473.01499999593943,1275.2099999925122,1294.480000040494,1950.635000015609,688.6950000189245,464.70000001136214,492.3300000373274],"keys_pressed":["leftarrow","leftarrow","rightarrow","leftarrow","rightarrow","rightarrow","leftarrow","rightarrow","rightarrow","rightarrow"],"horizon":10,"forced_choices":["leftarrow","leftarrow","rightarrow","leftarrow"],"right_color":"lightblue","left_color":"orange","left_mu":60,"right_mu":56,"left_numbers":[64,51,64,56,85,54,48,58,48,37],"right_numbers":[52,48,68,48,55,62,57,58,68,44],"points_earned":574,"phase":"task","trial_type":"horizons-task","trial_index":80,"time_elapsed":1471809,"internal_node_id":"0.0-76.0","task_version":"0.2"},{"response_times":[785.4100000113249,723.7249999307096,734.2199999839067,531.5199999604374,1435.1549999555573],"keys_pressed":["leftarrow","leftarrow","leftarrow","rightarrow","rightarrow"],"horizon":5,"forced_choices":["leftarrow","leftarrow","leftarrow","rightarrow"],"right_color":"lightblue","left_color":"orange","left_mu":40,"right_mu":60,"left_numbers":[49,32,45,29,38],"right_numbers":[47,65,68,64,40],"points_earned":230,"phase":"task","trial_type":"horizons-task","trial_index":81,"time_elapsed":1477521,"internal_node_id":"0.0-77.0","task_version":"0.2"},{"response_times":[750.5300000775605,446.77499996032566,440.7999999821186,556.8949999287724,2045.6750000594184],"keys_pressed":["leftarrow","rightarrow","leftarrow","rightarrow","rightarrow"],"horizon":5,"forced_choices":["leftarrow","rightarrow","leftarrow","rightarrow"],"right_color":"lightblue","left_color":"orange","left_mu":60,"right_mu":56,"left_numbers":[54,69,54,64,56],"right_numbers":[63,57,50,67,65],"points_earned":297,"phase":"task","trial_type":"horizons-task","trial_index":82,"time_elapsed":1483269,"internal_node_id":"0.0-78.0","task_version":"0.2"},{"response_times":[590.6599999871105,445.11500000953674,438.39999998454005,1031.8500000284985,2029.244999983348],"keys_pressed":["rightarrow","leftarrow","rightarrow","leftarrow","leftarrow"],"horizon":5,"forced_choices":["rightarrow","leftarrow","rightarrow","leftarrow"],"right_color":"orange","left_color":"lightblue","left_mu":60,"right_mu":52,"left_numbers":[78,72,50,59,53],"right_numbers":[49,68,45,45,58],"points_earned":278,"phase":"task","trial_type":"horizons-task","trial_index":83,"time_elapsed":1489308,"internal_node_id":"0.0-79.0","task_version":"0.2"},{"response_times":[839.3599999835715,553.334999945946,1531.1649999348447,705.430000089109,1568.6200000345707,1377.3300000466406,3222.690000082366,748.4150000382215,2641.105000046082,1291.220000013709],"keys_pressed":["rightarrow","leftarrow","leftarrow","leftarrow","rightarrow","rightarrow","leftarrow","rightarrow","rightarrow","leftarrow"],"horizon":10,"forced_choices":["rightarrow","leftarrow","leftarrow","leftarrow"],"right_color":"lightblue","left_color":"orange","left_mu":40,"right_mu":32,"left_numbers":[40,43,39,34,30,33,29,51,25,36],"right_numbers":[31,33,33,41,31,29,38,40,35,46],"points_earned":347,"phase":"task","trial_type":"horizons-task","trial_index":84,"time_elapsed":1505293,"internal_node_id":"0.0-80.0","task_version":"0.2"},{"response_times":[658.6250000400469,568.680000025779,458.14499992411584,636.0299999359995,2111.0350000672042],"keys_pressed":["rightarrow","leftarrow","rightarrow","leftarrow","leftarrow"],"horizon":5,"forced_choices":["rightarrow","leftarrow","rightarrow","leftarrow"],"right_color":"lightblue","left_color":"orange","left_mu":40,"right_mu":28,"left_numbers":[29,34,34,52,30],"right_numbers":[39,17,35,24,29],"points_earned":190,"phase":"task","trial_type":"horizons-task","trial_index":85,"time_elapsed":1511232,"internal_node_id":"0.0-81.0","task_version":"0.2"},{"response_times":[599.8499999986961,893.9399999799207,763.704999932088,549.1100000217557,977.3750000167638,1946.1899999296293,1330.6850000517443,1007.7199999941513,962.6649999991059,1905.7899999897927],"keys_pressed":["rightarrow","rightarrow","rightarrow","leftarrow","leftarrow","leftarrow","leftarrow","leftarrow","leftarrow","rightarrow"],"horizon":10,"forced_choices":["rightarrow","rightarrow","rightarrow","leftarrow"],"right_color":"lightblue","left_color":"orange","left_mu":40,"right_mu":10,"left_numbers":[39,38,46,43,46,55,46,45,37,43],"right_numbers":[15,5,22,6,0,15,8,18,13,6],"points_earned":320,"phase":"task","trial_type":"horizons-task","trial_index":86,"time_elapsed":1523672,"internal_node_id":"0.0-82.0","task_version":"0.2"},{"response_times":[607.8250000718981,634.0799999888986,714.9800000479445,618.6900000320747,2536.9550000177696],"keys_pressed":["leftarrow","leftarrow","rightarrow","rightarrow","rightarrow"],"horizon":5,"forced_choices":["leftarrow","leftarrow","rightarrow","rightarrow"],"right_color":"lightblue","left_color":"orange","left_mu":60,"right_mu":80,"left_numbers":[63,69,64,69,43],"right_numbers":[87,78,65,69,79],"points_earned":345,"phase":"task","trial_type":"horizons-task","trial_index":87,"time_elapsed":1530290,"internal_node_id":"0.0-83.0","task_version":"0.2"},{"response_times":[726.9000000087544,571.555000031367,498.82500001695007,613.5400000493973,2733.3700000308454,2717.7900000242516,707.0000000530854,1427.4799999548122,574.5149999856949,247.8550000814721],"keys_pressed":["leftarrow","leftarrow","rightarrow","rightarrow","leftarrow","rightarrow","leftarrow","rightarrow","leftarrow","leftarrow"],"horizon":10,"forced_choices":["leftarrow","leftarrow","rightarrow","rightarrow"],"right_color":"lightblue","left_color":"orange","left_mu":40,"right_mu":32,"left_numbers":[31,36,45,40,33,51,37,30,50,27],"right_numbers":[28,41,27,29,45,27,20,32,31,43],"points_earned":329,"phase":"task","trial_type":"horizons-task","trial_index":88,"time_elapsed":1542615,"internal_node_id":"0.0-84.0","task_version":"0.2"},{"response_times":[713.2599999895319,484.3249999685213,411.39500006102026,872.7950000902638,1351.1650000000373,1049.6099999872968,3267.2749999910593,768.0350000737235,567.6400000229478,240.7649999950081],"keys_pressed":["leftarrow","rightarrow","leftarrow","rightarrow","leftarrow","leftarrow","rightarrow","rightarrow","leftarrow","leftarrow"],"horizon":10,"forced_choices":["leftarrow","rightarrow","leftarrow","rightarrow"],"right_color":"orange","left_color":"lightblue","left_mu":40,"right_mu":20,"left_numbers":[39,38,26,40,49,33,48,46,46,57],"right_numbers":[15,24,21,14,22,16,9,20,14,32],"points_earned":317,"phase":"task","trial_type":"horizons-task","trial_index":89,"time_elapsed":1553848,"internal_node_id":"0.0-85.0","task_version":"0.2"},{"response_times":[662.9250000696629,579.0599999018013,574.9650000361726,615.3450000565499,1350.6150000030175],"keys_pressed":["leftarrow","leftarrow","rightarrow","leftarrow","leftarrow"],"horizon":5,"forced_choices":["leftarrow","leftarrow","rightarrow","leftarrow"],"right_color":"lightblue","left_color":"orange","left_mu":60,"right_mu":64,"left_numbers":[48,60,56,56,61],"right_numbers":[70,65,57,61,58],"points_earned":282,"phase":"task","trial_type":"horizons-task","trial_index":90,"time_elapsed":1559136,"internal_node_id":"0.0-86.0","task_version":"0.2"},{"response_times":[624.2449999554083,432.9700000816956,952.4850000161678,1394.6550000691786,1081.7350000143051],"keys_pressed":["rightarrow","leftarrow","leftarrow","rightarrow","rightarrow"],"horizon":5,"forced_choices":["rightarrow","leftarrow","leftarrow","rightarrow"],"right_color":"orange","left_color":"lightblue","left_mu":40,"right_mu":70,"left_numbers":[31,35,55,25,40],"right_numbers":[73,74,73,77,70],"points_earned":310,"phase":"task","trial_type":"horizons-task","trial_index":91,"time_elapsed":1565127,"internal_node_id":"0.0-87.0","task_version":"0.2"},{"rt":34149.49500001967,"responses":{"age":"24","gender-categorical":"Male","gender-free-response":"","ethnicity":"Not Hispanic or Latino","race":["Black or African American"],"language":"Yes","fluency":"Very well"},"survey":"demographics","trial_type":"survey-demo","trial_index":92,"time_elapsed":1599282,"internal_node_id":"0.0-88.0","task_version":"0.2"},{"rt":49648.01000000443,"responses":{"difficulty":"3","fun":"4","clarity":"5","strategy":"nothing in particular","feedback":""},"survey":"debrief","trial_type":"survey-debrief","trial_index":93,"time_elapsed":1648959,"internal_node_id":"0.0-89.0","task_version":"0.2","interactions":"[]"}]