[{"view_history":"[{\"page_index\":0,\"viewing_time\":85445}]","rt":85452,"trial_type":"instructions","trial_index":0,"time_elapsed":85473,"internal_node_id":"0.0-0.0","task_version":"0.2"},{"item_order":[14,12,13,9,7,8,5,1,6,10,0,2,4,11,3,15],"responses":{"Q15":"4","Q13":"5","Q14":"3","Q10":"3","Q08":"2","Q09":"1","Q06":"2","Q02":"1","Q07":"5","Q11":"2","Q01":"2","Q03":"2","Q05":"4","Q12":"4","Q04":"2","Q16":"5"},"radio_events":[30265,43636,56772,61234,68419,93200,113172,133279,133460,133638,138485,149287,160674,169879,180789,193348,201536,213908,222787,231011],"key_events":[133279,133460,133638],"mouse_events":[1,28818,30265,33413,43636,45728,46835,48088,56772,60257,61234,65444,66940,68419,93200,113172,138485,149287,160674,169879,180789,193348,201536,213908,222787,231011,235423],"rt":235425,"survey":"nfc","trial_type":"survey-template","trial_index":1,"time_elapsed":321084,"internal_node_id":"0.0-1.0","task_version":"0.2"},{"item_order":[12,0,4,10,1,2,7,5,6,9,3,8,11],"responses":{"Q13":"4","Q01":"3","Q05":"3","Q11":"2","Q02":"2","Q03":"1","Q08":"2","Q06":"2","Q07":"2","Q10":"1","Q04":"3","Q09":"1","Q12":"2"},"radio_events":[9569,15729,21065,30343,38084,48159,54161,67538,76529,82429,94927,106227,110626],"key_events":[],"mouse_events":[9569,15729,21065,30343,38084,48159,54161,67538,76529,82429,94927,106227,110626,112442],"rt":112443,"survey":"ius12","trial_type":"survey-template","trial_index":2,"time_elapsed":433586,"internal_node_id":"0.0-2.0","task_version":"0.2"},{"item_order":[7,8,6,10,13,14,0,9,1,3,4,16,5,11,12,2,15],"responses":{"Q08":"2","Q09":"2","Q07":"2","Q11":"3","Q14":"2","Q15":"1","Q01":"2","Q10":"4","Q02":"1","Q04":"1","Q05":"2","Q17":"0","Q06":"2","Q12":"0","Q13":"2","Q03":"3","Q16":"2"},"radio_events":[17333,21990,25909,39095,43623,48955,65282,71585,74451,92769,100367,106297,118190,125920,132309,138139,148990],"key_events":[],"mouse_events":[17333,21990,25909,39095,43623,48955,63307,65282,71585,74451,92769,100367,106297,118190,125920,132309,138139,139947,148990,154005],"rt":154006,"survey":"pswq","trial_type":"survey-template","trial_index":3,"time_elapsed":587644,"internal_node_id":"0.0-3.0","task_version":"0.2"},{"view_history":"[{\"page_index\":0,\"viewing_time\":9783},{\"page_index\":1,\"viewing_time\":15339},{\"page_index\":2,\"viewing_time\":22224},{\"page_index\":3,\"viewing_time\":9099},{\"page_index\":4,\"viewing_time\":8713},{\"page_index\":5,\"viewing_time\":5984},{\"page_index\":6,\"viewing_time\":13358},{\"page_index\":7,\"viewing_time\":11106},{\"page_index\":8,\"viewing_time\":6450},{\"page_index\":9,\"viewing_time\":11585}]","rt":113643,"trial_type":"instructions","trial_index":4,"time_elapsed":701464,"internal_node_id":"0.0-4.0-0.0","task_version":"0.2"},{"response_times":[3174,3538,1260,3725,8217],"keys_pressed":["rightarrow","leftarrow","rightarrow","rightarrow","rightarrow"],"horizon":5,"forced_choices":["rightarrow","leftarrow","rightarrow","rightarrow"],"right_color":"lightblue","left_color":"orange","left_mu":40,"right_mu":20,"left_numbers":[31,35,52,41,34],"right_numbers":[12,17,17,30,25],"points_earned":119,"phase":"practice","trial_type":"horizons-task","trial_index":5,"time_elapsed":722971,"internal_node_id":"0.0-4.0-1.0","task_version":"0.2"},{"response_times":[2931,1320,1444,1044,1550,1879,1750,1185,1085,710],"keys_pressed":["leftarrow","leftarrow","rightarrow","rightarrow","leftarrow","leftarrow","leftarrow","leftarrow","leftarrow","leftarrow"],"horizon":10,"forced_choices":["leftarrow","leftarrow","rightarrow","rightarrow"],"right_color":"orange","left_color":"lightblue","left_mu":60,"right_mu":70,"left_numbers":[65,69,63,65,47,70,57,64,66,47],"right_numbers":[76,56,67,81,79,72,71,66,72,72],"points_earned":633,"phase":"practice","trial_type":"horizons-task","trial_index":6,"time_elapsed":739395,"internal_node_id":"0.0-4.0-2.0","task_version":"0.2"},{"view_history":"[{\"page_index\":0,\"viewing_time\":8235},{\"page_index\":1,\"viewing_time\":4285},{\"page_index\":2,\"viewing_time\":3175},{\"page_index\":3,\"viewing_time\":4410}]","rt":20107,"trial_type":"instructions","trial_index":7,"time_elapsed":759508,"internal_node_id":"0.0-4.0-3.0","task_version":"0.2"},{"responses":["true","false","true"],"num_errors":0,"rt":66414,"trial_type":"horizons-comprehension","trial_index":8,"time_elapsed":825950,"internal_node_id":"0.0-4.0-4.0","task_version":"0.2"},{"trial_type":"call-function","trial_index":9,"time_elapsed":825974,"internal_node_id":"0.0-5.0","task_version":"0.2"},{"view_history":"[{\"page_index\":0,\"viewing_time\":3752},{\"page_index\":1,\"viewing_time\":47614}]","rt":51366,"trial_type":"instructions","trial_index":10,"time_elapsed":877403,"internal_node_id":"0.0-6.0","task_version":"0.2"},{"response_times":[2368,1468,1270,3319,2266],"keys_pressed":["leftarrow","rightarrow","rightarrow","rightarrow","leftarrow"],"horizon":5,"forced_choices":["leftarrow","rightarrow","rightarrow","rightarrow"],"right_color":"orange","left_color":"lightblue","left_mu":60,"right_mu":64,"left_numbers":[57,57,57,43,59],"right_numbers":[79,50,73,60,67],"points_earned":299,"phase":"task","trial_type":"horizons-task","trial_index":11,"time_elapsed":889683,"internal_node_id":"0.0-7.0","task_version":"0.2"},{"response_times":[1698,1449,2967,1270,1776],"keys_pressed":["rightarrow","rightarrow","leftarrow","rightarrow","rightarrow"],"horizon":5,"forced_choices":["rightarrow","rightarrow","leftarrow","rightarrow"],"right_color":"lightblue","left_color":"orange","left_mu":40,"right_mu":60,"left_numbers":[30,55,37,36,43],"right_numbers":[66,75,48,68,77],"points_earned":323,"phase":"task","trial_type":"horizons-task","trial_index":12,"time_elapsed":900370,"internal_node_id":"0.0-8.0","task_version":"0.2"},{"response_times":[3849,1304,1220,1509,1654,1033,974,1091,919,1306],"keys_pressed":["rightarrow","leftarrow","rightarrow","leftarrow","leftarrow","leftarrow","leftarrow","leftarrow","leftarrow","leftarrow"],"horizon":10,"forced_choices":["rightarrow","leftarrow","rightarrow","leftarrow"],"right_color":"orange","left_color":"lightblue","left_mu":40,"right_mu":10,"left_numbers":[37,40,39,41,52,39,34,35,44,32],"right_numbers":[16,9,12,22,2,7,9,11,4,17],"points_earned":345,"phase":"task","trial_type":"horizons-task","trial_index":13,"time_elapsed":916742,"internal_node_id":"0.0-9.0","task_version":"0.2"},{"response_times":[1722,1414,1293,1691,1889],"keys_pressed":["rightarrow","leftarrow","rightarrow","rightarrow","leftarrow"],"horizon":5,"forced_choices":["rightarrow","leftarrow","rightarrow","rightarrow"],"right_color":"orange","left_color":"lightblue","left_mu":40,"right_mu":28,"left_numbers":[33,25,51,49,37],"right_numbers":[23,7,39,25,22],"points_earned":149,"phase":"task","trial_type":"horizons-task","trial_index":14,"time_elapsed":926272,"internal_node_id":"0.0-10.0","task_version":"0.2"},{"response_times":[2581,1304,1146,917,3160],"keys_pressed":["leftarrow","rightarrow","leftarrow","rightarrow","rightarrow"],"horizon":5,"forced_choices":["leftarrow","rightarrow","leftarrow","rightarrow"],"right_color":"lightblue","left_color":"orange","left_mu":60,"right_mu":90,"left_numbers":[52,69,55,57,51],"right_numbers":[90,72,93,86,82],"points_earned":347,"phase":"task","trial_type":"horizons-task","trial_index":15,"time_elapsed":936952,"internal_node_id":"0.0-11.0","task_version":"0.2"},{"response_times":[2432,1406,1671,1428,1317],"keys_pressed":["rightarrow","rightarrow","rightarrow","leftarrow","rightarrow"],"horizon":5,"forced_choices":["rightarrow","rightarrow","rightarrow","leftarrow"],"right_color":"lightblue","left_color":"orange","left_mu":40,"right_mu":36,"left_numbers":[34,48,37,46,53],"right_numbers":[41,29,45,34,39],"points_earned":200,"phase":"task","trial_type":"horizons-task","trial_index":16,"time_elapsed":946730,"internal_node_id":"0.0-12.0","task_version":"0.2"},{"response_times":[1776,2431,1197,975,1615,755,759,747,1319,830],"keys_pressed":["rightarrow","leftarrow","leftarrow","leftarrow","rightarrow","rightarrow","rightarrow","rightarrow","rightarrow","rightarrow"],"horizon":10,"forced_choices":["rightarrow","leftarrow","leftarrow","leftarrow"],"right_color":"lightblue","left_color":"orange","left_mu":60,"right_mu":52,"left_numbers":[60,61,59,63,56,63,65,63,57,59],"right_numbers":[53,38,59,39,54,42,49,65,65,48],"points_earned":559,"phase":"task","trial_type":"horizons-task","trial_index":17,"time_elapsed":960678,"internal_node_id":"0.0-13.0","task_version":"0.2"},{"response_times":[17287,1297,1025,1171,1827,736,731,955,643,670],"keys_pressed":["rightarrow","rightarrow","rightarrow","leftarrow","leftarrow","leftarrow","leftarrow","leftarrow","leftarrow","leftarrow"],"horizon":10,"forced_choices":["rightarrow","rightarrow","rightarrow","leftarrow"],"right_color":"orange","left_color":"lightblue","left_mu":60,"right_mu":68,"left_numbers":[64,59,58,60,65,63,53,76,61,54],"right_numbers":[66,55,63,67,75,60,69,83,68,74],"points_earned":616,"phase":"task","trial_type":"horizons-task","trial_index":18,"time_elapsed":988541,"internal_node_id":"0.0-14.0","task_version":"0.2"},{"response_times":[6183,7247,1104,616,911,739,790,2268,1418,1257],"keys_pressed":["leftarrow","leftarrow","rightarrow","rightarrow","leftarrow","rightarrow","rightarrow","rightarrow","rightarrow","rightarrow"],"horizon":10,"forced_choices":["leftarrow","leftarrow","rightarrow","rightarrow"],"right_color":"lightblue","left_color":"orange","left_mu":40,"right_mu":48,"left_numbers":[42,42,44,33,41,37,33,24,42,43],"right_numbers":[50,49,35,50,50,73,56,53,44,50],"points_earned":486,"phase":"task","trial_type":"horizons-task","trial_index":19,"time_elapsed":1012600,"internal_node_id":"0.0-15.0","task_version":"0.2"},{"response_times":[1553,1936,730,717,1148],"keys_pressed":["rightarrow","leftarrow","rightarrow","leftarrow","leftarrow"],"horizon":5,"forced_choices":["rightarrow","leftarrow","rightarrow","leftarrow"],"right_color":"orange","left_color":"lightblue","left_mu":40,"right_mu":10,"left_numbers":[34,49,28,49,48],"right_numbers":[11,10,6,6,11],"points_earned":163,"phase":"task","trial_type":"horizons-task","trial_index":20,"time_elapsed":1020193,"internal_node_id":"0.0-16.0","task_version":"0.2"},{"response_times":[2937,602,648,804,800],"keys_pressed":["leftarrow","rightarrow","leftarrow","leftarrow","rightarrow"],"horizon":5,"forced_choices":["leftarrow","rightarrow","leftarrow","leftarrow"],"right_color":"lightblue","left_color":"orange","left_mu":40,"right_mu":48,"left_numbers":[45,39,37,35,33],"right_numbers":[50,51,43,51,42],"points_earned":210,"phase":"task","trial_type":"horizons-task","trial_index":21,"time_elapsed":1027501,"internal_node_id":"0.0-17.0","task_version":"0.2"},{"response_times":[1603,767,780,958,1288],"keys_pressed":["rightarrow","rightarrow","leftarrow","leftarrow","leftarrow"],"horizon":5,"forced_choices":["rightarrow","rightarrow","leftarrow","leftarrow"],"right_color":"orange","left_color":"lightblue","left_mu":60,"right_mu":64,"left_numbers":[65,55,51,61,68],"right_numbers":[53,64,67,48,63],"points_earned":297,"phase":"task","trial_type":"horizons-task","trial_index":22,"time_elapsed":1034420,"internal_node_id":"0.0-18.0","task_version":"0.2"},{"response_times":[1269,696,1194,918,750],"keys_pressed":["leftarrow","leftarrow","rightarrow","rightarrow","leftarrow"],"horizon":5,"forced_choices":["leftarrow","leftarrow","rightarrow","rightarrow"],"right_color":"orange","left_color":"lightblue","left_mu":60,"right_mu":30,"left_numbers":[65,57,54,54,57],"right_numbers":[31,27,28,38,30],"points_earned":245,"phase":"task","trial_type":"horizons-task","trial_index":23,"time_elapsed":1040763,"internal_node_id":"0.0-19.0","task_version":"0.2"},{"response_times":[2480,972,1997,768,822],"keys_pressed":["leftarrow","rightarrow","rightarrow","leftarrow","rightarrow"],"horizon":5,"forced_choices":["leftarrow","rightarrow","rightarrow","leftarrow"],"right_color":"lightblue","left_color":"orange","left_mu":40,"right_mu":36,"left_numbers":[37,40,30,36,41],"right_numbers":[30,34,40,40,33],"points_earned":180,"phase":"task","trial_type":"horizons-task","trial_index":24,"time_elapsed":1049330,"internal_node_id":"0.0-20.0","task_version":"0.2"},{"response_times":[23106,1018,591,777,984,581,539,657,576,543],"keys_pressed":["leftarrow","rightarrow","rightarrow","leftarrow","rightarrow","rightarrow","rightarrow","rightarrow","rightarrow","rightarrow"],"horizon":10,"forced_choices":["leftarrow","rightarrow","rightarrow","leftarrow"],"right_color":"lightblue","left_color":"orange","left_mu":40,"right_mu":36,"left_numbers":[28,27,50,37,29,35,39,47,42,41],"right_numbers":[37,46,41,31,43,25,36,26,38,41],"points_earned":361,"phase":"task","trial_type":"horizons-task","trial_index":25,"time_elapsed":1080234,"internal_node_id":"0.0-21.0","task_version":"0.2"},{"response_times":[1425,533,1027,1079,706],"keys_pressed":["rightarrow","rightarrow","leftarrow","leftarrow","rightarrow"],"horizon":5,"forced_choices":["rightarrow","rightarrow","leftarrow","leftarrow"],"right_color":"lightblue","left_color":"orange","left_mu":40,"right_mu":20,"left_numbers":[34,61,40,31,33],"right_numbers":[20,19,8,19,20],"points_earned":130,"phase":"task","trial_type":"horizons-task","trial_index":26,"time_elapsed":1086513,"internal_node_id":"0.0-22.0","task_version":"0.2"},{"response_times":[5267,1089,694,616,606,737,614,509,536,599],"keys_pressed":["rightarrow","leftarrow","leftarrow","rightarrow","leftarrow","leftarrow","leftarrow","leftarrow","leftarrow","leftarrow"],"horizon":10,"forced_choices":["rightarrow","leftarrow","leftarrow","rightarrow"],"right_color":"orange","left_color":"lightblue","left_mu":60,"right_mu":72,"left_numbers":[64,51,47,70,83,54,54,60,55,67],"right_numbers":[69,62,60,68,72,72,69,58,76,75],"points_earned":608,"phase":"task","trial_type":"horizons-task","trial_index":27,"time_elapsed":1099303,"internal_node_id":"0.0-23.0","task_version":"0.2"},{"response_times":[1345,934,1740,753,662],"keys_pressed":["rightarrow","leftarrow","leftarrow","leftarrow","leftarrow"],"horizon":5,"forced_choices":["rightarrow","leftarrow","leftarrow","leftarrow"],"right_color":"orange","left_color":"lightblue","left_mu":60,"right_mu":40,"left_numbers":[46,53,60,67,51],"right_numbers":[53,47,49,29,43],"points_earned":284,"phase":"task","trial_type":"horizons-task","trial_index":28,"time_elapsed":1106247,"internal_node_id":"0.0-24.0","task_version":"0.2"},{"response_times":[2788,649,1031,790,894,1053,813,972,648,701],"keys_pressed":["rightarrow","rightarrow","leftarrow","rightarrow","leftarrow","leftarrow","leftarrow","leftarrow","leftarrow","leftarrow"],"horizon":10,"forced_choices":["rightarrow","rightarrow","leftarrow","rightarrow"],"right_color":"orange","left_color":"lightblue","left_mu":60,"right_mu":80,"left_numbers":[71,73,66,47,78,67,64,59,68,58],"right_numbers":[70,85,88,92,74,73,73,84,83,86],"points_earned":707,"phase":"task","trial_type":"horizons-task","trial_index":29,"time_elapsed":1118105,"internal_node_id":"0.0-25.0","task_version":"0.2"},{"response_times":[1048,617,921,1273,1545,486,733,834,926,926],"keys_pressed":["rightarrow","rightarrow","leftarrow","leftarrow","rightarrow","rightarrow","rightarrow","rightarrow","rightarrow","rightarrow"],"horizon":10,"forced_choices":["rightarrow","rightarrow","leftarrow","leftarrow"],"right_color":"lightblue","left_color":"orange","left_mu":40,"right_mu":20,"left_numbers":[42,34,44,36,22,58,44,47,34,40],"right_numbers":[17,21,17,29,17,14,7,12,20,22],"points_earned":210,"phase":"task","trial_type":"horizons-task","trial_index":30,"time_elapsed":1128934,"internal_node_id":"0.0-26.0","task_version":"0.2"},{"response_times":[1603,1230,658,522,665,531,514,812,1302,897],"keys_pressed":["leftarrow","rightarrow","leftarrow","rightarrow","leftarrow","leftarrow","leftarrow","leftarrow","rightarrow","rightarrow"],"horizon":10,"forced_choices":["leftarrow","rightarrow","leftarrow","rightarrow"],"right_color":"orange","left_color":"lightblue","left_mu":40,"right_mu":52,"left_numbers":[28,49,37,34,34,28,38,49,43,33],"right_numbers":[41,56,48,65,42,48,56,52,51,55],"points_earned":441,"phase":"task","trial_type":"horizons-task","trial_index":31,"time_elapsed":1139179,"internal_node_id":"0.0-27.0","task_version":"0.2"},{"response_times":[2691,840,1802,806,648],"keys_pressed":["leftarrow","leftarrow","rightarrow","leftarrow","leftarrow"],"horizon":5,"forced_choices":["leftarrow","leftarrow","rightarrow","leftarrow"],"right_color":"lightblue","left_color":"orange","left_mu":60,"right_mu":56,"left_numbers":[61,68,53,63,36],"right_numbers":[48,62,26,66,52],"points_earned":254,"phase":"task","trial_type":"horizons-task","trial_index":32,"time_elapsed":1147486,"internal_node_id":"0.0-28.0","task_version":"0.2"},{"response_times":[24926,1067,607,567,928,801,1150,1002,1093,565],"keys_pressed":["rightarrow","leftarrow","leftarrow","leftarrow","rightarrow","rightarrow","rightarrow","leftarrow","leftarrow","leftarrow"],"horizon":10,"forced_choices":["rightarrow","leftarrow","leftarrow","leftarrow"],"right_color":"orange","left_color":"lightblue","left_mu":60,"right_mu":40,"left_numbers":[60,65,56,59,63,73,43,61,61,58],"right_numbers":[42,56,36,29,42,30,45,46,41,42],"points_earned":519,"phase":"task","trial_type":"horizons-task","trial_index":33,"time_elapsed":1181787,"internal_node_id":"0.0-29.0","task_version":"0.2"},{"response_times":[2742,636,756,708,575,547,474,508,801,697],"keys_pressed":["leftarrow","rightarrow","rightarrow","leftarrow","rightarrow","rightarrow","rightarrow","rightarrow","rightarrow","rightarrow"],"horizon":10,"forced_choices":["leftarrow","rightarrow","rightarrow","leftarrow"],"right_color":"lightblue","left_color":"orange","left_mu":60,"right_mu":52,"left_numbers":[68,62,51,43,66,52,72,58,56,71],"right_numbers":[53,62,43,56,46,42,56,30,59,41],"points_earned":490,"phase":"task","trial_type":"horizons-task","trial_index":34,"time_elapsed":1191758,"internal_node_id":"0.0-30.0","task_version":"0.2"},{"response_times":[1336,578,653,718,642,568,656,653,564,599],"keys_pressed":["leftarrow","leftarrow","rightarrow","leftarrow","rightarrow","rightarrow","rightarrow","rightarrow","rightarrow","rightarrow"],"horizon":10,"forced_choices":["leftarrow","leftarrow","rightarrow","leftarrow"],"right_color":"lightblue","left_color":"orange","left_mu":40,"right_mu":70,"left_numbers":[43,37,39,38,39,38,34,37,47,34],"right_numbers":[67,75,72,71,53,64,67,68,68,45],"points_earned":555,"phase":"task","trial_type":"horizons-task","trial_index":35,"time_elapsed":1200246,"internal_node_id":"0.0-31.0","task_version":"0.2"},{"response_times":[938,720,621,587,568],"keys_pressed":["leftarrow","leftarrow","rightarrow","leftarrow","rightarrow"],"horizon":5,"forced_choices":["leftarrow","leftarrow","rightarrow","leftarrow"],"right_color":"lightblue","left_color":"orange","left_mu":40,"right_mu":70,"left_numbers":[37,32,41,43,40],"right_numbers":[69,63,57,71,55],"points_earned":224,"phase":"task","trial_type":"horizons-task","trial_index":36,"time_elapsed":1205199,"internal_node_id":"0.0-32.0","task_version":"0.2"},{"response_times":[1073,600,760,663,1871,663,754,467,927,507],"keys_pressed":["leftarrow","leftarrow","rightarrow","rightarrow","leftarrow","rightarrow","rightarrow","rightarrow","rightarrow","rightarrow"],"horizon":10,"forced_choices":["leftarrow","leftarrow","rightarrow","rightarrow"],"right_color":"orange","left_color":"lightblue","left_mu":60,"right_mu":30,"left_numbers":[54,52,58,61,67,57,63,61,52,60],"right_numbers":[30,42,40,33,32,15,15,32,31,42],"points_earned":381,"phase":"task","trial_type":"horizons-task","trial_index":37,"time_elapsed":1215027,"internal_node_id":"0.0-33.0","task_version":"0.2"},{"response_times":[889,908,701,631,2076],"keys_pressed":["rightarrow","leftarrow","leftarrow","leftarrow","rightarrow"],"horizon":5,"forced_choices":["rightarrow","leftarrow","leftarrow","leftarrow"],"right_color":"lightblue","left_color":"orange","left_mu":60,"right_mu":52,"left_numbers":[58,69,65,54,55],"right_numbers":[37,60,66,55,52],"points_earned":277,"phase":"task","trial_type":"horizons-task","trial_index":38,"time_elapsed":1221744,"internal_node_id":"0.0-34.0","task_version":"0.2"},{"response_times":[847,599,558,725,717],"keys_pressed":["leftarrow","leftarrow","leftarrow","rightarrow","leftarrow"],"horizon":5,"forced_choices":["leftarrow","leftarrow","leftarrow","rightarrow"],"right_color":"orange","left_color":"lightblue","left_mu":60,"right_mu":72,"left_numbers":[61,62,65,46,65],"right_numbers":[69,59,66,66,62],"points_earned":319,"phase":"task","trial_type":"horizons-task","trial_index":39,"time_elapsed":1226717,"internal_node_id":"0.0-35.0","task_version":"0.2"},{"response_times":[1099,660,597,1020,1123,532,640,620,493,632],"keys_pressed":["leftarrow","leftarrow","leftarrow","rightarrow","leftarrow","leftarrow","leftarrow","leftarrow","leftarrow","leftarrow"],"horizon":10,"forced_choices":["leftarrow","leftarrow","leftarrow","rightarrow"],"right_color":"orange","left_color":"lightblue","left_mu":60,"right_mu":72,"left_numbers":[60,58,55,73,70,61,54,63,71,51],"right_numbers":[78,51,58,67,75,62,68,100,76,73],"points_earned":610,"phase":"task","trial_type":"horizons-task","trial_index":40,"time_elapsed":1235654,"internal_node_id":"0.0-36.0","task_version":"0.2"},{"response_times":[877,662,756,525,518,645,451,456,602,541],"keys_pressed":["leftarrow","leftarrow","rightarrow","rightarrow","rightarrow","rightarrow","rightarrow","rightarrow","rightarrow","rightarrow"],"horizon":10,"forced_choices":["leftarrow","leftarrow","rightarrow","rightarrow"],"right_color":"lightblue","left_color":"orange","left_mu":60,"right_mu":56,"left_numbers":[65,56,52,59,65,55,52,61,54,51],"right_numbers":[57,67,63,63,59,59,43,56,59,54],"points_earned":577,"phase":"task","trial_type":"horizons-task","trial_index":41,"time_elapsed":1243208,"internal_node_id":"0.0-37.0","task_version":"0.2"},{"response_times":[905,544,539,729,551,518,449,528,711,634],"keys_pressed":["leftarrow","leftarrow","leftarrow","rightarrow","rightarrow","rightarrow","rightarrow","rightarrow","rightarrow","rightarrow"],"horizon":10,"forced_choices":["leftarrow","leftarrow","leftarrow","rightarrow"],"right_color":"lightblue","left_color":"orange","left_mu":40,"right_mu":44,"left_numbers":[45,40,30,24,46,39,39,54,39,38],"right_numbers":[22,54,42,46,52,42,29,41,42,54],"points_earned":421,"phase":"task","trial_type":"horizons-task","trial_index":42,"time_elapsed":1250837,"internal_node_id":"0.0-38.0","task_version":"0.2"},{"response_times":[634,869,555,693,769,568,607,554,550,456],"keys_pressed":["rightarrow","leftarrow","leftarrow","rightarrow","rightarrow","rightarrow","rightarrow","rightarrow","rightarrow","rightarrow"],"horizon":10,"forced_choices":["rightarrow","leftarrow","leftarrow","rightarrow"],"right_color":"lightblue","left_color":"orange","left_mu":60,"right_mu":48,"left_numbers":[58,44,77,66,71,83,68,73,60,53],"right_numbers":[55,59,39,36,46,54,59,32,69,44],"points_earned":516,"phase":"task","trial_type":"horizons-task","trial_index":43,"time_elapsed":1258611,"internal_node_id":"0.0-39.0","task_version":"0.2"},{"response_times":[5283,651,660,888,875,804,1125,746,516,821],"keys_pressed":["leftarrow","rightarrow","leftarrow","rightarrow","leftarrow","leftarrow","leftarrow","leftarrow","leftarrow","leftarrow"],"horizon":10,"forced_choices":["leftarrow","rightarrow","leftarrow","rightarrow"],"right_color":"orange","left_color":"lightblue","left_mu":40,"right_mu":32,"left_numbers":[30,39,28,30,35,32,45,33,43,55],"right_numbers":[26,23,35,10,21,31,50,36,28,32],"points_earned":334,"phase":"task","trial_type":"horizons-task","trial_index":44,"time_elapsed":1272490,"internal_node_id":"0.0-40.0","task_version":"0.2"},{"response_times":[752,698,615,554,893],"keys_pressed":["rightarrow","leftarrow","rightarrow","leftarrow","rightarrow"],"horizon":5,"forced_choices":["rightarrow","leftarrow","rightarrow","leftarrow"],"right_color":"orange","left_color":"lightblue","left_mu":60,"right_mu":80,"left_numbers":[67,53,45,53,67],"right_numbers":[76,65,79,74,88],"points_earned":349,"phase":"task","trial_type":"horizons-task","trial_index":45,"time_elapsed":1277521,"internal_node_id":"0.0-41.0","task_version":"0.2"},{"response_times":[2524,643,523,875,668],"keys_pressed":["leftarrow","rightarrow","rightarrow","leftarrow","rightarrow"],"horizon":5,"forced_choices":["leftarrow","rightarrow","rightarrow","leftarrow"],"right_color":"lightblue","left_color":"orange","left_mu":40,"right_mu":44,"left_numbers":[43,41,28,43,42],"right_numbers":[44,46,39,55,42],"points_earned":213,"phase":"task","trial_type":"horizons-task","trial_index":46,"time_elapsed":1284274,"internal_node_id":"0.0-42.0","task_version":"0.2"},{"response_times":[839,756,611,724,722],"keys_pressed":["leftarrow","rightarrow","leftarrow","leftarrow","leftarrow"],"horizon":5,"forced_choices":["leftarrow","rightarrow","leftarrow","leftarrow"],"right_color":"orange","left_color":"lightblue","left_mu":40,"right_mu":32,"left_numbers":[26,46,38,27,32],"right_numbers":[39,37,32,53,36],"points_earned":160,"phase":"task","trial_type":"horizons-task","trial_index":47,"time_elapsed":1289447,"internal_node_id":"0.0-43.0","task_version":"0.2"},{"response_times":[4049,639,718,586,746,590,620,685,8741,444],"keys_pressed":["rightarrow","leftarrow","rightarrow","leftarrow","rightarrow","rightarrow","rightarrow","rightarrow","rightarrow","rightarrow"],"horizon":10,"forced_choices":["rightarrow","leftarrow","rightarrow","leftarrow"],"right_color":"lightblue","left_color":"orange","left_mu":40,"right_mu":70,"left_numbers":[35,33,37,33,41,44,39,40,26,29],"right_numbers":[68,58,60,84,70,58,66,72,61,76],"points_earned":597,"phase":"task","trial_type":"horizons-task","trial_index":48,"time_elapsed":1308782,"internal_node_id":"0.0-44.0","task_version":"0.2"},{"response_times":[1180,574,450,646,840],"keys_pressed":["leftarrow","rightarrow","rightarrow","rightarrow","leftarrow"],"horizon":5,"forced_choices":["leftarrow","rightarrow","rightarrow","rightarrow"],"right_color":"orange","left_color":"lightblue","left_mu":40,"right_mu":10,"left_numbers":[37,30,31,24,34],"right_numbers":[17,0,16,6,10],"points_earned":93,"phase":"task","trial_type":"horizons-task","trial_index":49,"time_elapsed":1313996,"internal_node_id":"0.0-45.0","task_version":"0.2"},{"response_times":[7426,1352,579,690,701],"keys_pressed":["leftarrow","leftarrow","leftarrow","rightarrow","rightarrow"],"horizon":5,"forced_choices":["leftarrow","leftarrow","leftarrow","rightarrow"],"right_color":"lightblue","left_color":"orange","left_mu":40,"right_mu":44,"left_numbers":[34,27,39,36,37],"right_numbers":[51,42,56,41,49],"points_earned":190,"phase":"task","trial_type":"horizons-task","trial_index":50,"time_elapsed":1326254,"internal_node_id":"0.0-46.0","task_version":"0.2"},{"view_history":"[{\"page_index\":0,\"viewing_time\":25566},{\"page_index\":1,\"viewing_time\":2424}]","rt":27991,"trial_type":"instructions","trial_index":51,"time_elapsed":1354249,"internal_node_id":"0.0-47.0","task_version":"0.2"},{"response_times":[1648,619,1214,536,522],"keys_pressed":["leftarrow","leftarrow","rightarrow","rightarrow","leftarrow"],"horizon":5,"forced_choices":["leftarrow","leftarrow","rightarrow","rightarrow"],"right_color":"lightblue","left_color":"orange","left_mu":40,"right_mu":48,"left_numbers":[34,39,40,48,32],"right_numbers":[46,53,44,60,48],"points_earned":209,"phase":"task","trial_type":"horizons-task","trial_index":52,"time_elapsed":1360335,"internal_node_id":"0.0-48.0","task_version":"0.2"},{"response_times":[632,618,819,528,629],"keys_pressed":["rightarrow","leftarrow","leftarrow","rightarrow","leftarrow"],"horizon":5,"forced_choices":["rightarrow","leftarrow","leftarrow","rightarrow"],"right_color":"orange","left_color":"lightblue","left_mu":60,"right_mu":72,"left_numbers":[54,67,50,70,68],"right_numbers":[75,74,61,75,82],"points_earned":335,"phase":"task","trial_type":"horizons-task","trial_index":53,"time_elapsed":1365083,"internal_node_id":"0.0-49.0","task_version":"0.2"},{"response_times":[794,590,672,655,623,985,895,840,673,851],"keys_pressed":["leftarrow","rightarrow","leftarrow","leftarrow","rightarrow","rightarrow","rightarrow","rightarrow","rightarrow","leftarrow"],"horizon":10,"forced_choices":["leftarrow","rightarrow","leftarrow","leftarrow"],"right_color":"lightblue","left_color":"orange","left_mu":40,"right_mu":48,"left_numbers":[44,49,43,38,38,30,42,43,53,43],"right_numbers":[50,45,39,50,42,50,49,47,43,53],"points_earned":444,"phase":"task","trial_type":"horizons-task","trial_index":54,"time_elapsed":1374176,"internal_node_id":"0.0-50.0","task_version":"0.2"},{"response_times":[786,833,814,696,728],"keys_pressed":["leftarrow","rightarrow","rightarrow","leftarrow","rightarrow"],"horizon":5,"forced_choices":["leftarrow","rightarrow","rightarrow","leftarrow"],"right_color":"lightblue","left_color":"orange","left_mu":60,"right_mu":52,"left_numbers":[54,53,57,59,49],"right_numbers":[40,49,60,52,64],"points_earned":286,"phase":"task","trial_type":"horizons-task","trial_index":55,"time_elapsed":1379539,"internal_node_id":"0.0-51.0","task_version":"0.2"},{"response_times":[792,572,670,694,605,775,611,760,587,663],"keys_pressed":["leftarrow","rightarrow","leftarrow","leftarrow","rightarrow","leftarrow","leftarrow","leftarrow","leftarrow","leftarrow"],"horizon":10,"forced_choices":["leftarrow","rightarrow","leftarrow","leftarrow"],"right_color":"orange","left_color":"lightblue","left_mu":40,"right_mu":32,"left_numbers":[16,57,36,49,38,39,39,45,57,48],"right_numbers":[31,36,40,26,23,23,33,26,28,48],"points_earned":388,"phase":"task","trial_type":"horizons-task","trial_index":56,"time_elapsed":1387793,"internal_node_id":"0.0-52.0","task_version":"0.2"},{"response_times":[10564,773,667,550,993],"keys_pressed":["leftarrow","rightarrow","leftarrow","rightarrow","leftarrow"],"horizon":5,"forced_choices":["leftarrow","rightarrow","leftarrow","rightarrow"],"right_color":"orange","left_color":"lightblue","left_mu":40,"right_mu":32,"left_numbers":[45,37,24,41,37],"right_numbers":[38,28,32,20,35],"points_earned":154,"phase":"task","trial_type":"horizons-task","trial_index":57,"time_elapsed":1402857,"internal_node_id":"0.0-53.0","task_version":"0.2"},{"response_times":[965,615,593,517,859],"keys_pressed":["rightarrow","leftarrow","rightarrow","leftarrow","leftarrow"],"horizon":5,"forced_choices":["rightarrow","leftarrow","rightarrow","leftarrow"],"right_color":"lightblue","left_color":"orange","left_mu":40,"right_mu":70,"left_numbers":[38,44,39,36,39],"right_numbers":[70,73,64,74,80],"points_earned":253,"phase":"task","trial_type":"horizons-task","trial_index":58,"time_elapsed":1407924,"internal_node_id":"0.0-54.0","task_version":"0.2"},{"response_times":[4965,477,739,543,675,528,660,499,470,531],"keys_pressed":["rightarrow","rightarrow","leftarrow","leftarrow","leftarrow","leftarrow","leftarrow","leftarrow","leftarrow","leftarrow"],"horizon":10,"forced_choices":["rightarrow","rightarrow","leftarrow","leftarrow"],"right_color":"lightblue","left_color":"orange","left_mu":40,"right_mu":60,"left_numbers":[43,52,38,41,46,35,38,48,30,31],"right_numbers":[63,54,58,58,56,49,59,55,65,69],"points_earned":424,"phase":"task","trial_type":"horizons-task","trial_index":59,"time_elapsed":1419546,"internal_node_id":"0.0-55.0","task_version":"0.2"},{"response_times":[5183,1039,506,566,638,759,661,573,1055,478],"keys_pressed":["leftarrow","rightarrow","rightarrow","rightarrow","leftarrow","leftarrow","leftarrow","leftarrow","leftarrow","leftarrow"],"horizon":10,"forced_choices":["leftarrow","rightarrow","rightarrow","rightarrow"],"right_color":"orange","left_color":"lightblue","left_mu":40,"right_mu":10,"left_numbers":[32,43,59,40,34,35,25,31,39,37],"right_numbers":[5,17,3,7,4,27,7,15,9,16],"points_earned":260,"phase":"task","trial_type":"horizons-task","trial_index":60,"time_elapsed":1432520,"internal_node_id":"0.0-56.0","task_version":"0.2"},{"response_times":[818,499,602,737,744],"keys_pressed":["rightarrow","rightarrow","rightarrow","leftarrow","leftarrow"],"horizon":5,"forced_choices":["rightarrow","rightarrow","rightarrow","leftarrow"],"right_color":"orange","left_color":"lightblue","left_mu":60,"right_mu":68,"left_numbers":[64,63,69,59,52],"right_numbers":[61,75,57,62,70],"points_earned":304,"phase":"task","trial_type":"horizons-task","trial_index":61,"time_elapsed":1437439,"internal_node_id":"0.0-57.0","task_version":"0.2"},{"response_times":[3980,517,620,477,837],"keys_pressed":["rightarrow","rightarrow","leftarrow","rightarrow","rightarrow"],"horizon":5,"forced_choices":["rightarrow","rightarrow","leftarrow","rightarrow"],"right_color":"orange","left_color":"lightblue","left_mu":60,"right_mu":80,"left_numbers":[58,61,53,54,56],"right_numbers":[92,78,87,90,81],"points_earned":394,"phase":"task","trial_type":"horizons-task","trial_index":62,"time_elapsed":1445377,"internal_node_id":"0.0-58.0","task_version":"0.2"},{"response_times":[643,673,650,597,708],"keys_pressed":["rightarrow","leftarrow","leftarrow","rightarrow","leftarrow"],"horizon":5,"forced_choices":["rightarrow","leftarrow","leftarrow","rightarrow"],"right_color":"orange","left_color":"lightblue","left_mu":40,"right_mu":28,"left_numbers":[27,26,53,63,34],"right_numbers":[29,39,21,19,35],"points_earned":161,"phase":"task","trial_type":"horizons-task","trial_index":63,"time_elapsed":1450168,"internal_node_id":"0.0-59.0","task_version":"0.2"},{"response_times":[1642,556,542,668,791,540,722,747,1440,1055],"keys_pressed":["leftarrow","rightarrow","rightarrow","rightarrow","leftarrow","leftarrow","leftarrow","leftarrow","leftarrow","leftarrow"],"horizon":10,"forced_choices":["leftarrow","rightarrow","rightarrow","rightarrow"],"right_color":"orange","left_color":"lightblue","left_mu":60,"right_mu":64,"left_numbers":[51,54,53,49,74,71,60,51,63,53],"right_numbers":[65,77,69,54,59,58,58,58,58,65],"points_earned":623,"phase":"task","trial_type":"horizons-task","trial_index":64,"time_elapsed":1460417,"internal_node_id":"0.0-60.0","task_version":"0.2"},{"response_times":[9450,522,768,718,689,578,552,619,520,490],"keys_pressed":["leftarrow","leftarrow","rightarrow","leftarrow","leftarrow","leftarrow","leftarrow","leftarrow","leftarrow","leftarrow"],"horizon":10,"forced_choices":["leftarrow","leftarrow","rightarrow","leftarrow"],"right_color":"lightblue","left_color":"orange","left_mu":60,"right_mu":56,"left_numbers":[46,60,41,60,55,62,53,56,51,70],"right_numbers":[61,47,74,61,51,64,70,63,49,57],"points_earned":587,"phase":"task","trial_type":"horizons-task","trial_index":65,"time_elapsed":1476836,"internal_node_id":"0.0-61.0","task_version":"0.2"},{"response_times":[2712,647,592,675,572],"keys_pressed":["leftarrow","rightarrow","leftarrow","rightarrow","leftarrow"],"horizon":5,"forced_choices":["leftarrow","rightarrow","leftarrow","rightarrow"],"right_color":"orange","left_color":"lightblue","left_mu":40,"right_mu":52,"left_numbers":[32,39,36,48,46],"right_numbers":[56,58,46,51,43],"points_earned":223,"phase":"task","trial_type":"horizons-task","trial_index":66,"time_elapsed":1483566,"internal_node_id":"0.0-62.0","task_version":"0.2"},{"response_times":[8420,948,837,644,1044,576,527,580,700,472],"keys_pressed":["rightarrow","leftarrow","rightarrow","leftarrow","leftarrow","leftarrow","leftarrow","leftarrow","leftarrow","leftarrow"],"horizon":10,"forced_choices":["rightarrow","leftarrow","rightarrow","leftarrow"],"right_color":"orange","left_color":"lightblue","left_mu":60,"right_mu":80,"left_numbers":[55,65,51,48,67,57,58,62,57,60],"right_numbers":[80,60,81,84,89,81,75,77,73,84],"points_earned":635,"phase":"task","trial_type":"horizons-task","trial_index":67,"time_elapsed":1499858,"internal_node_id":"0.0-63.0","task_version":"0.2"},{"response_times":[784,607,582,592,909],"keys_pressed":["rightarrow","leftarrow","rightarrow","rightarrow","rightarrow"],"horizon":5,"forced_choices":["rightarrow","leftarrow","rightarrow","rightarrow"],"right_color":"lightblue","left_color":"orange","left_mu":60,"right_mu":90,"left_numbers":[59,47,42,62,46],"right_numbers":[94,79,100,81,97],"points_earned":419,"phase":"task","trial_type":"horizons-task","trial_index":68,"time_elapsed":1504846,"internal_node_id":"0.0-64.0","task_version":"0.2"},{"response_times":[832,506,558,620,922,579,472,1322,542,1145],"keys_pressed":["leftarrow","leftarrow","rightarrow","leftarrow","rightarrow","rightarrow","rightarrow","leftarrow","leftarrow","rightarrow"],"horizon":10,"forced_choices":["leftarrow","leftarrow","rightarrow","leftarrow"],"right_color":"lightblue","left_color":"orange","left_mu":60,"right_mu":48,"left_numbers":[57,58,61,62,56,47,49,52,58,73],"right_numbers":[43,72,57,41,57,58,40,63,54,46],"points_earned":545,"phase":"task","trial_type":"horizons-task","trial_index":69,"time_elapsed":1513859,"internal_node_id":"0.0-65.0","task_version":"0.2"},{"response_times":[818,676,932,534,901,598,653,527,720,587],"keys_pressed":["leftarrow","rightarrow","leftarrow","rightarrow","leftarrow","rightarrow","rightarrow","leftarrow","rightarrow","leftarrow"],"horizon":10,"forced_choices":["leftarrow","rightarrow","leftarrow","rightarrow"],"right_color":"lightblue","left_color":"orange","left_mu":60,"right_mu":90,"left_numbers":[54,68,60,62,64,59,50,54,60,57],"right_numbers":[78,96,77,102,86,94,96,85,90,94],"points_earned":767,"phase":"task","trial_type":"horizons-task","trial_index":70,"time_elapsed":1522330,"internal_node_id":"0.0-66.0","task_version":"0.2"},{"response_times":[1675,791,825,632,930,711,1075,782,826,535],"keys_pressed":["rightarrow","rightarrow","leftarrow","rightarrow","rightarrow","rightarrow","rightarrow","rightarrow","rightarrow","rightarrow"],"horizon":10,"forced_choices":["rightarrow","rightarrow","leftarrow","rightarrow"],"right_color":"lightblue","left_color":"orange","left_mu":40,"right_mu":60,"left_numbers":[47,40,33,42,36,31,38,47,39,58],"right_numbers":[56,58,55,63,71,40,63,60,50,69],"points_earned":563,"phase":"task","trial_type":"horizons-task","trial_index":71,"time_elapsed":1532673,"internal_node_id":"0.0-67.0","task_version":"0.2"},{"response_times":[1117,681,1521,651,901,555,626,1099,695,713],"keys_pressed":["rightarrow","rightarrow","leftarrow","rightarrow","leftarrow","leftarrow","leftarrow","rightarrow","leftarrow","leftarrow"],"horizon":10,"forced_choices":["rightarrow","rightarrow","leftarrow","rightarrow"],"right_color":"orange","left_color":"lightblue","left_mu":40,"right_mu":52,"left_numbers":[46,29,25,48,45,26,47,41,41,37],"right_numbers":[59,45,45,53,63,53,45,62,55,48],"points_earned":440,"phase":"task","trial_type":"horizons-task","trial_index":72,"time_elapsed":1542810,"internal_node_id":"0.0-68.0","task_version":"0.2"},{"response_times":[632,905,562,571,1179,655,647,498,779,869],"keys_pressed":["rightarrow","leftarrow","leftarrow","leftarrow","rightarrow","rightarrow","rightarrow","rightarrow","rightarrow","rightarrow"],"horizon":10,"forced_choices":["rightarrow","leftarrow","leftarrow","leftarrow"],"right_color":"lightblue","left_color":"orange","left_mu":40,"right_mu":20,"left_numbers":[34,34,36,33,28,39,38,41,50,45],"right_numbers":[15,29,22,5,19,8,28,28,25,25],"points_earned":251,"phase":"task","trial_type":"horizons-task","trial_index":73,"time_elapsed":1551628,"internal_node_id":"0.0-69.0","task_version":"0.2"},{"response_times":[873,559,642,462,888,610,490,670,489,510],"keys_pressed":["leftarrow","rightarrow","leftarrow","rightarrow","leftarrow","leftarrow","leftarrow","leftarrow","leftarrow","leftarrow"],"horizon":10,"forced_choices":["leftarrow","rightarrow","leftarrow","rightarrow"],"right_color":"orange","left_color":"lightblue","left_mu":60,"right_mu":40,"left_numbers":[63,73,78,55,58,68,56,58,67,84],"right_numbers":[56,31,27,39,32,46,48,49,39,32],"points_earned":602,"phase":"task","trial_type":"horizons-task","trial_index":74,"time_elapsed":1559343,"internal_node_id":"0.0-70.0","task_version":"0.2"},{"response_times":[639,657,622,614,592,936,894,702,842,586],"keys_pressed":["rightarrow","leftarrow","leftarrow","rightarrow","leftarrow","leftarrow","rightarrow","leftarrow","leftarrow","leftarrow"],"horizon":10,"forced_choices":["rightarrow","leftarrow","leftarrow","rightarrow"],"right_color":"orange","left_color":"lightblue","left_mu":60,"right_mu":68,"left_numbers":[69,54,45,69,59,55,61,51,65,49],"right_numbers":[55,67,57,65,61,50,68,68,67,71],"points_earned":566,"phase":"task","trial_type":"horizons-task","trial_index":75,"time_elapsed":1567947,"internal_node_id":"0.0-71.0","task_version":"0.2"},{"response_times":[3986,810,739,754,698],"keys_pressed":["leftarrow","rightarrow","leftarrow","rightarrow","leftarrow"],"horizon":5,"forced_choices":["leftarrow","rightarrow","leftarrow","rightarrow"],"right_color":"orange","left_color":"lightblue","left_mu":60,"right_mu":40,"left_numbers":[48,65,59,71,47],"right_numbers":[38,47,36,53,40],"points_earned":254,"phase":"task","trial_type":"horizons-task","trial_index":76,"time_elapsed":1576441,"internal_node_id":"0.0-72.0","task_version":"0.2"},{"response_times":[19472,1602,657,649,1261],"keys_pressed":["rightarrow","leftarrow","leftarrow","leftarrow","rightarrow"],"horizon":5,"forced_choices":["rightarrow","leftarrow","leftarrow","leftarrow"],"right_color":"lightblue","left_color":"orange","left_mu":40,"right_mu":20,"left_numbers":[42,40,27,35,26],"right_numbers":[35,8,28,24,25],"points_earned":162,"phase":"task","trial_type":"horizons-task","trial_index":77,"time_elapsed":1601596,"internal_node_id":"0.0-73.0","task_version":"0.2"},{"response_times":[765,865,1134,961,892],"keys_pressed":["rightarrow","rightarrow","leftarrow","leftarrow","rightarrow"],"horizon":5,"forced_choices":["rightarrow","rightarrow","leftarrow","leftarrow"],"right_color":"lightblue","left_color":"orange","left_mu":40,"right_mu":60,"left_numbers":[47,27,58,45,31],"right_numbers":[54,40,48,69,66],"points_earned":263,"phase":"task","trial_type":"horizons-task","trial_index":78,"time_elapsed":1607727,"internal_node_id":"0.0-74.0","task_version":"0.2"},{"response_times":[1071,613,723,868,765],"keys_pressed":["leftarrow","leftarrow","rightarrow","leftarrow","rightarrow"],"horizon":5,"forced_choices":["leftarrow","leftarrow","rightarrow","leftarrow"],"right_color":"lightblue","left_color":"orange","left_mu":60,"right_mu":48,"left_numbers":[56,52,61,54,76],"right_numbers":[61,34,52,28,56],"points_earned":270,"phase":"task","trial_type":"horizons-task","trial_index":79,"time_elapsed":1613287,"internal_node_id":"0.0-75.0","task_version":"0.2"},{"response_times":[1344,614,732,859,978,796,1341,656,804,868],"keys_pressed":["leftarrow","rightarrow","rightarrow","leftarrow","rightarrow","rightarrow","rightarrow","rightarrow","rightarrow","rightarrow"],"horizon":10,"forced_choices":["leftarrow","rightarrow","rightarrow","leftarrow"],"right_color":"lightblue","left_color":"orange","left_mu":40,"right_mu":44,"left_numbers":[37,35,30,42,42,50,40,33,33,37],"right_numbers":[25,35,50,34,43,39,50,49,46,37],"points_earned":428,"phase":"task","trial_type":"horizons-task","trial_index":80,"time_elapsed":1623804,"internal_node_id":"0.0-76.0","task_version":"0.2"},{"response_times":[1207,700,625,753,915],"keys_pressed":["leftarrow","leftarrow","rightarrow","rightarrow","rightarrow"],"horizon":5,"forced_choices":["leftarrow","leftarrow","rightarrow","rightarrow"],"right_color":"lightblue","left_color":"orange","left_mu":60,"right_mu":56,"left_numbers":[69,74,69,58,63],"right_numbers":[59,61,66,57,60],"points_earned":326,"phase":"task","trial_type":"horizons-task","trial_index":81,"time_elapsed":1629526,"internal_node_id":"0.0-77.0","task_version":"0.2"},{"response_times":[756,644,677,1309,1149,804,763,1354,2185,888],"keys_pressed":["rightarrow","rightarrow","rightarrow","leftarrow","rightarrow","rightarrow","rightarrow","rightarrow","rightarrow","rightarrow"],"horizon":10,"forced_choices":["rightarrow","rightarrow","rightarrow","leftarrow"],"right_color":"lightblue","left_color":"orange","left_mu":40,"right_mu":36,"left_numbers":[27,35,43,37,36,25,27,55,37,42],"right_numbers":[35,43,33,45,44,34,43,17,27,26],"points_earned":339,"phase":"task","trial_type":"horizons-task","trial_index":82,"time_elapsed":1641571,"internal_node_id":"0.0-78.0","task_version":"0.2"},{"response_times":[1221,850,553,2106,943,885,797,850,629,708],"keys_pressed":["leftarrow","rightarrow","rightarrow","rightarrow","leftarrow","leftarrow","leftarrow","leftarrow","leftarrow","leftarrow"],"horizon":10,"forced_choices":["leftarrow","rightarrow","rightarrow","rightarrow"],"right_color":"orange","left_color":"lightblue","left_mu":60,"right_mu":30,"left_numbers":[69,68,56,48,54,58,56,76,50,56],"right_numbers":[37,34,29,29,22,33,33,28,23,30],"points_earned":511,"phase":"task","trial_type":"horizons-task","trial_index":83,"time_elapsed":1652632,"internal_node_id":"0.0-79.0","task_version":"0.2"},{"response_times":[1255,825,551,631,1013,1118,680,2922,1086,714],"keys_pressed":["rightarrow","leftarrow","rightarrow","rightarrow","rightarrow","rightarrow","rightarrow","rightarrow","rightarrow","rightarrow"],"horizon":10,"forced_choices":["rightarrow","leftarrow","rightarrow","rightarrow"],"right_color":"lightblue","left_color":"orange","left_mu":60,"right_mu":90,"left_numbers":[65,54,57,58,53,56,52,51,65,66],"right_numbers":[91,77,83,82,107,94,83,101,103,83],"points_earned":881,"phase":"task","trial_type":"horizons-task","trial_index":84,"time_elapsed":1664945,"internal_node_id":"0.0-80.0","task_version":"0.2"},{"response_times":[917,2267,1024,1243,1423],"keys_pressed":["rightarrow","rightarrow","leftarrow","rightarrow","rightarrow"],"horizon":5,"forced_choices":["rightarrow","rightarrow","leftarrow","rightarrow"],"right_color":"orange","left_color":"lightblue","left_mu":40,"right_mu":52,"left_numbers":[31,43,41,44,45],"right_numbers":[39,54,62,56,50],"points_earned":240,"phase":"task","trial_type":"horizons-task","trial_index":85,"time_elapsed":1673328,"internal_node_id":"0.0-81.0","task_version":"0.2"},{"response_times":[847,1217,1640,650,847],"keys_pressed":["rightarrow","leftarrow","leftarrow","rightarrow","rightarrow"],"horizon":5,"forced_choices":["rightarrow","leftarrow","leftarrow","rightarrow"],"right_color":"lightblue","left_color":"orange","left_mu":60,"right_mu":48,"left_numbers":[56,58,58,62,65],"right_numbers":[49,41,47,50,45],"points_earned":260,"phase":"task","trial_type":"horizons-task","trial_index":86,"time_elapsed":1680048,"internal_node_id":"0.0-82.0","task_version":"0.2"},{"response_times":[784,1162,756,890,1511],"keys_pressed":["rightarrow","leftarrow","leftarrow","rightarrow","leftarrow"],"horizon":5,"forced_choices":["rightarrow","leftarrow","leftarrow","rightarrow"],"right_color":"orange","left_color":"lightblue","left_mu":60,"right_mu":68,"left_numbers":[69,58,62,63,76],"right_numbers":[66,75,66,82,59],"points_earned":344,"phase":"task","trial_type":"horizons-task","trial_index":87,"time_elapsed":1686745,"internal_node_id":"0.0-83.0","task_version":"0.2"},{"response_times":[1048,624,664,803,776,914,853,1861,1755,1341],"keys_pressed":["rightarrow","leftarrow","rightarrow","rightarrow","leftarrow","leftarrow","leftarrow","leftarrow","leftarrow","rightarrow"],"horizon":10,"forced_choices":["rightarrow","leftarrow","rightarrow","rightarrow"],"right_color":"orange","left_color":"lightblue","left_mu":40,"right_mu":28,"left_numbers":[48,41,51,53,43,30,49,57,29,53],"right_numbers":[23,23,25,20,32,20,21,24,20,34],"points_earned":351,"phase":"task","trial_type":"horizons-task","trial_index":88,"time_elapsed":1698906,"internal_node_id":"0.0-84.0","task_version":"0.2"},{"response_times":[1150,1462,788,772,1457,774,1462,2337,853,1496],"keys_pressed":["rightarrow","rightarrow","leftarrow","leftarrow","leftarrow","leftarrow","leftarrow","leftarrow","leftarrow","leftarrow"],"horizon":10,"forced_choices":["rightarrow","rightarrow","leftarrow","leftarrow"],"right_color":"orange","left_color":"lightblue","left_mu":60,"right_mu":64,"left_numbers":[55,65,55,49,44,64,60,71,62,55],"right_numbers":[76,59,55,78,65,61,56,75,58,77],"points_earned":595,"phase":"task","trial_type":"horizons-task","trial_index":89,"time_elapsed":1712976,"internal_node_id":"0.0-85.0","task_version":"0.2"},{"response_times":[1252,1047,1111,741,2723,1107,944,2523,1777,1244],"keys_pressed":["rightarrow","leftarrow","leftarrow","rightarrow","leftarrow","leftarrow","leftarrow","leftarrow","leftarrow","leftarrow"],"horizon":10,"forced_choices":["rightarrow","leftarrow","leftarrow","rightarrow"],"right_color":"orange","left_color":"lightblue","left_mu":40,"right_mu":28,"left_numbers":[38,40,31,30,24,27,58,42,54,37],"right_numbers":[19,35,25,31,20,33,33,20,24,20],"points_earned":363,"phase":"task","trial_type":"horizons-task","trial_index":90,"time_elapsed":1728972,"internal_node_id":"0.0-86.0","task_version":"0.2"},{"response_times":[1352,813,1853,816,1185],"keys_pressed":["leftarrow","rightarrow","rightarrow","rightarrow","leftarrow"],"horizon":5,"forced_choices":["leftarrow","rightarrow","rightarrow","rightarrow"],"right_color":"orange","left_color":"lightblue","left_mu":60,"right_mu":30,"left_numbers":[47,51,54,55,69],"right_numbers":[22,34,24,31,19],"points_earned":205,"phase":"task","trial_type":"horizons-task","trial_index":91,"time_elapsed":1736505,"internal_node_id":"0.0-87.0","task_version":"0.2"},{"rt":185745,"responses":{"age":"25","gender-categorical":"Female","gender-free-response":"","ethnicity":"Hispanic or Latino","race":["White"],"language":"Yes","fluency":"Very well"},"survey":"demographics","trial_type":"survey-demo","trial_index":92,"time_elapsed":1922440,"internal_node_id":"0.0-88.0","task_version":"0.2"},{"rt":59492,"responses":{"difficulty":"2","fun":"4","clarity":"5","strategy":"","feedback":"regards"},"survey":"debrief","trial_type":"survey-debrief","trial_index":93,"time_elapsed":1981963,"internal_node_id":"0.0-89.0","task_version":"0.2","interactions":"[{\"event\":\"focus\",\"trial\":0,\"time\":0}]"}]