[{"view_history":"[{\"page_index\":0,\"viewing_time\":2779.949999996461}]","rt":2782.2349999914877,"trial_type":"instructions","trial_index":0,"time_elapsed":2799,"internal_node_id":"0.0-0.0","task_version":"0.2"},{"item_order":[12,11,5,15,4,7,10,13,3,0,14,2,8,6,9,1],"responses":{"Q13":"5","Q12":"5","Q06":"5","Q16":"5","Q05":"2","Q08":"5","Q11":"4","Q14":"1","Q04":"3","Q01":"4","Q15":"4","Q03":"5","Q09":"5","Q07":"4","Q10":"3","Q02":"2"},"radio_events":[3147.640000010142,6146.705000021029,10030.620000005001,12810.1800000004,17364.42500000703,19408.92499999609,1088670.0750000018,1261624.9600000156,1268522.2300000023,1277651.9300000218,1328544.2150000017,1331595.484999998,1332747.2050000215,1432290.6749999966,1433672.2850000078,1439027.620000008,1444827.9900000198,1467860.8499999973],"key_events":[],"mouse_events":[0.06000002031214535,3147.640000010142,6146.705000021029,8492.915000009816,10030.620000005001,12810.1800000004,15908.920000016224,17364.42500000703,19408.92499999609,1088670.0750000018,1234557.2800000082,1261624.9600000156,1264061.4599999972,1265762.7550000034,1266629.665000015,1267659.1450000124,1268522.2300000023,1276936.8400000094,1277651.9300000218,1325640.9750000166,1326761.6149999958,1327612.775000016,1328544.2150000017,1331595.484999998,1332747.2050000215,1425845.8400000236,1427077.8600000194,1428060.7550000132,1429855.360000016,1430583.2700000028,1432290.6749999966,1433672.2850000078,1439027.620000008,1442331.2650000153,1444827.9900000198,1467860.8499999973,1469340.0950000214],"rt":1469349.4099999953,"survey":"nfc","trial_type":"survey-template","trial_index":1,"time_elapsed":1472156,"internal_node_id":"0.0-1.0","task_version":"0.2"},{"item_order":[11,8,7,9,4,1,5,10,0,2,12,3,6],"responses":{"Q12":"2","Q09":"1","Q08":"3","Q10":"2","Q05":"3","Q02":"4","Q06":"3","Q11":"4","Q01":"4","Q03":"3","Q13":"4","Q04":"3","Q07":"3"},"radio_events":[4017.0250000082888,7037.364999996498,10169.200000003912,14127.59499999811,17250.674999988405,19622.11500000558,22177.569999999832,28357.870000007097,31638.97500000894,36684.210000006715,40219.544999999925,42774.55000000191,47314.35000000056],"key_events":[],"mouse_events":[3234.3849999888334,4017.0250000082888,7037.364999996498,8748.534999991534,9454.999999987194,10169.200000003912,14127.59499999811,17250.674999988405,19622.11500000558,22177.569999999832,28357.870000007097,31638.97500000894,36684.210000006715,40219.544999999925,42774.55000000191,47314.35000000056,48125.65000000177],"rt":48131.86999998288,"survey":"ius12","trial_type":"survey-template","trial_index":2,"time_elapsed":1520305,"internal_node_id":"0.0-2.0","task_version":"0.2"},{"item_order":[13,0,4,6,14,16,5,11,15,8,3,1,9,2,12,7,10],"responses":{"Q14":"4","Q01":"0","Q05":"4","Q07":"4","Q15":"4","Q17":"0","Q06":"4","Q12":"4","Q16":"4","Q09":"4","Q04":"4","Q02":"4","Q10":"4","Q03":"4","Q13":"3","Q08":"4","Q11":"4"},"radio_events":[3438.240000017686,4644.330000010086,104608.69000002276,115593.22999999858,116797.40000001038,119070.94500001404,122870.90999999782,123997.51000001561,125428.60000001383,129778.76000001561,131913.3500000171,135106.89500000444,136194.73000001744,139656.27000000677,141810.96000000252,145215.90500001912,147167.78499999782,149646.9550000038],"key_events":[],"mouse_events":[3438.240000017686,4644.330000010086,104608.69000002276,106447.62000002083,107442.79000000097,108379.19999999576,115593.22999999858,116797.40000001038,119070.94500001404,122870.90999999782,123997.51000001561,125428.60000001383,129778.76000001561,131015.97000000766,131913.3500000171,133107.04500001157,135106.89500000444,136194.73000001744,139656.27000000677,141810.96000000252,145215.90500001912,147167.78499999782,149646.9550000038,150824.5150000148],"rt":150831.27000002423,"survey":"pswq","trial_type":"survey-template","trial_index":3,"time_elapsed":1671156,"internal_node_id":"0.0-3.0","task_version":"0.2"},{"view_history":"[{\"page_index\":0,\"viewing_time\":2796.5299999923445},{\"page_index\":1,\"viewing_time\":3245.2850000117905},{\"page_index\":2,\"viewing_time\":78468.26999998302},{\"page_index\":3,\"viewing_time\":3772.4699999962468},{\"page_index\":4,\"viewing_time\":4642.195000022184},{\"page_index\":5,\"viewing_time\":2764.2999999807216},{\"page_index\":6,\"viewing_time\":3143.674999999348},{\"page_index\":7,\"viewing_time\":4294.825000019046},{\"page_index\":8,\"viewing_time\":3851.2749999936204},{\"page_index\":9,\"viewing_time\":6712.189999991097}]","rt":113691.70500000473,"trial_type":"instructions","trial_index":4,"time_elapsed":1784858,"internal_node_id":"0.0-4.0-0.0","task_version":"0.2"},{"response_times":[1019.7150000021793,708.0350000178441,771.3400000066031,672.9650000052061,1118.6549999983981],"keys_pressed":["rightarrow","leftarrow","rightarrow","rightarrow","leftarrow"],"horizon":5,"forced_choices":["rightarrow","leftarrow","rightarrow","rightarrow"],"right_color":"lightblue","left_color":"orange","left_mu":40,"right_mu":20,"left_numbers":[34,41,30,55,44],"right_numbers":[25,14,17,13,9],"points_earned":140,"phase":"practice","trial_type":"horizons-task","trial_index":5,"time_elapsed":1790674,"internal_node_id":"0.0-4.0-1.0","task_version":"0.2"},{"response_times":[822.8200000012293,737.1949999942444,509.4399999943562,621.5849999862257,1031.090000004042,68.9600000041537,662.8900000068825,60.170000011567026,577.6699999987613,19.659999990835786],"keys_pressed":["leftarrow","leftarrow","rightarrow","rightarrow","leftarrow","rightarrow","leftarrow","rightarrow","leftarrow","rightarrow"],"horizon":10,"forced_choices":["leftarrow","leftarrow","rightarrow","rightarrow"],"right_color":"orange","left_color":"lightblue","left_mu":60,"right_mu":70,"left_numbers":[61,52,57,60,52,47,60,48,51,47],"right_numbers":[61,74,75,85,71,71,71,66,66,66],"points_earned":639,"phase":"practice","trial_type":"horizons-task","trial_index":6,"time_elapsed":1797291,"internal_node_id":"0.0-4.0-2.0","task_version":"0.2"},{"view_history":"[{\"page_index\":0,\"viewing_time\":2151.1950000131037},{\"page_index\":1,\"viewing_time\":2022.995000006631},{\"page_index\":2,\"viewing_time\":5586.874999979045},{\"page_index\":3,\"viewing_time\":2110.7500000216532}]","rt":11872.369999997318,"trial_type":"instructions","trial_index":7,"time_elapsed":1809164,"internal_node_id":"0.0-4.0-3.0","task_version":"0.2"},{"responses":["true","false","true"],"num_errors":0,"rt":15237.670000002254,"trial_type":"horizons-comprehension","trial_index":8,"time_elapsed":1824408,"internal_node_id":"0.0-4.0-4.0","task_version":"0.2"},{"trial_type":"call-function","trial_index":9,"time_elapsed":1824415,"internal_node_id":"0.0-5.0","task_version":"0.2"},{"view_history":"[{\"page_index\":0,\"viewing_time\":1802.5650000199676},{\"page_index\":1,\"viewing_time\":2732.8549999801908}]","rt":4536.090000008699,"trial_type":"instructions","trial_index":10,"time_elapsed":1828952,"internal_node_id":"0.0-6.0","task_version":"0.2"},{"response_times":[765.6650000135414,428.04999998770654,527.0149999996647,423.6350000137463,758.8249999971595,20.004999998491257,552.0499999984168,18.620000017108396,502.329999988433,20.6950000138022],"keys_pressed":["rightarrow","leftarrow","leftarrow","rightarrow","leftarrow","rightarrow","leftarrow","rightarrow","leftarrow","rightarrow"],"horizon":10,"forced_choices":["rightarrow","leftarrow","leftarrow","rightarrow"],"right_color":"lightblue","left_color":"orange","left_mu":60,"right_mu":80,"left_numbers":[60,58,63,71,60,59,62,46,62,67],"right_numbers":[87,90,81,85,90,68,68,83,102,84],"points_earned":712,"phase":"task","trial_type":"horizons-task","trial_index":11,"time_elapsed":1834501,"internal_node_id":"0.0-7.0","task_version":"0.2"},{"response_times":[595.2699999907054,414.5100000023376,431.65500002214685,462.2749999980442,634.6800000173971,43.95000002114102,504.0349999908358,19.864999980200082,457.9549999907613,64.0150000108406],"keys_pressed":["rightarrow","rightarrow","rightarrow","leftarrow","leftarrow","rightarrow","leftarrow","rightarrow","leftarrow","rightarrow"],"horizon":10,"forced_choices":["rightarrow","rightarrow","rightarrow","leftarrow"],"right_color":"orange","left_color":"lightblue","left_mu":60,"right_mu":68,"left_numbers":[42,59,58,55,55,49,61,60,64,50],"right_numbers":[64,70,72,78,75,73,65,91,63,67],"points_earned":672,"phase":"task","trial_type":"horizons-task","trial_index":12,"time_elapsed":1839636,"internal_node_id":"0.0-8.0","task_version":"0.2"},{"response_times":[787.9050000046846,466.61499998299405,578.3749999827705,684.4500000006519,784.14000000339,473.62500001327135,348.31499998108484,4439.329999993788,1452.4899999960326,691.6000000201166],"keys_pressed":["leftarrow","rightarrow","rightarrow","rightarrow","leftarrow","rightarrow","leftarrow","rightarrow","rightarrow","rightarrow"],"horizon":10,"forced_choices":["leftarrow","rightarrow","rightarrow","rightarrow"],"right_color":"orange","left_color":"lightblue","left_mu":60,"right_mu":72,"left_numbers":[51,64,52,47,40,56,54,59,61,57],"right_numbers":[80,73,73,82,82,83,85,75,66,65],"points_earned":662,"phase":"task","trial_type":"horizons-task","trial_index":13,"time_elapsed":1851850,"internal_node_id":"0.0-9.0","task_version":"0.2"},{"response_times":[6724.08999997424,670.959999988554,562.8600000054576,637.7499999944121,2176.1750000005122],"keys_pressed":["rightarrow","rightarrow","leftarrow","leftarrow","leftarrow"],"horizon":5,"forced_choices":["rightarrow","rightarrow","leftarrow","leftarrow"],"right_color":"orange","left_color":"lightblue","left_mu":40,"right_mu":28,"left_numbers":[48,51,30,25,38],"right_numbers":[26,32,20,27,15],"points_earned":151,"phase":"task","trial_type":"horizons-task","trial_index":14,"time_elapsed":1864131,"internal_node_id":"0.0-10.0","task_version":"0.2"},{"response_times":[750.2849999873433,745.5149999877904,506.3349999836646,822.1449999837205,1750.2800000074785,809.899999992922,950.2700000011828,1140.5350000131875,838.354999985313,1015.769999998156],"keys_pressed":["leftarrow","rightarrow","rightarrow","rightarrow","rightarrow","leftarrow","leftarrow","rightarrow","leftarrow","leftarrow"],"horizon":10,"forced_choices":["leftarrow","rightarrow","rightarrow","rightarrow"],"right_color":"lightblue","left_color":"orange","left_mu":40,"right_mu":32,"left_numbers":[41,30,37,41,33,52,27,55,52,49],"right_numbers":[40,33,42,60,15,38,19,31,23,35],"points_earned":402,"phase":"task","trial_type":"horizons-task","trial_index":15,"time_elapsed":1874970,"internal_node_id":"0.0-11.0","task_version":"0.2"},{"response_times":[936.5450000041164,746.1449999827892,1150.660000013886,1691.1249999830034,808.9099999924656,578.7600000039674,517.0099999813829,472.89000000455417,490.60999997891486,460.9700000146404],"keys_pressed":["leftarrow","rightarrow","leftarrow","rightarrow","rightarrow","rightarrow","rightarrow","rightarrow","rightarrow","rightarrow"],"horizon":10,"forced_choices":["leftarrow","rightarrow","leftarrow","rightarrow"],"right_color":"orange","left_color":"lightblue","left_mu":60,"right_mu":72,"left_numbers":[60,55,52,57,66,61,48,69,73,53],"right_numbers":[57,81,71,68,83,72,81,61,72,67],"points_earned":697,"phase":"task","trial_type":"horizons-task","trial_index":16,"time_elapsed":1884329,"internal_node_id":"0.0-12.0","task_version":"0.2"},{"response_times":[763.0749999952968,542.7100000088103,625.6149999971967,688.285000011092,952.4849999870639],"keys_pressed":["leftarrow","rightarrow","leftarrow","rightarrow","rightarrow"],"horizon":5,"forced_choices":["leftarrow","rightarrow","leftarrow","rightarrow"],"right_color":"lightblue","left_color":"orange","left_mu":40,"right_mu":60,"left_numbers":[29,34,36,24,55],"right_numbers":[70,63,47,53,60],"points_earned":241,"phase":"task","trial_type":"horizons-task","trial_index":17,"time_elapsed":1889405,"internal_node_id":"0.0-13.0","task_version":"0.2"},{"response_times":[1186.409999994794,675.0049999973271,532.7249999972992,388.1950000068173,837.0250000152737,420.879999990575,520.170000003418,447.04500000807457,383.61999997869134,448.2199999911245],"keys_pressed":["leftarrow","leftarrow","rightarrow","rightarrow","leftarrow","leftarrow","leftarrow","leftarrow","leftarrow","leftarrow"],"horizon":10,"forced_choices":["leftarrow","leftarrow","rightarrow","rightarrow"],"right_color":"orange","left_color":"lightblue","left_mu":60,"right_mu":48,"left_numbers":[56,56,50,63,46,64,53,60,53,67],"right_numbers":[42,37,42,34,39,46,45,48,48,41],"points_earned":531,"phase":"task","trial_type":"horizons-task","trial_index":18,"time_elapsed":1896754,"internal_node_id":"0.0-14.0","task_version":"0.2"},{"response_times":[738.7949999829289,981.0499999730382,573.8650000130292,506.52999998419546,1309.674999996787],"keys_pressed":["leftarrow","leftarrow","rightarrow","leftarrow","leftarrow"],"horizon":5,"forced_choices":["leftarrow","leftarrow","rightarrow","leftarrow"],"right_color":"orange","left_color":"lightblue","left_mu":40,"right_mu":28,"left_numbers":[43,30,47,43,41],"right_numbers":[23,31,25,26,22],"points_earned":182,"phase":"task","trial_type":"horizons-task","trial_index":19,"time_elapsed":1902368,"internal_node_id":"0.0-15.0","task_version":"0.2"},{"response_times":[2796.6700000106357,477.3249999852851,469.38999998383224,456.21000000392087,1778.599999990547,434.43500000284985,471.98000000207685,761.289999994915,160.51499999593943,493.1849999993574],"keys_pressed":["rightarrow","rightarrow","leftarrow","leftarrow","leftarrow","leftarrow","leftarrow","leftarrow","leftarrow","leftarrow"],"horizon":10,"forced_choices":["rightarrow","rightarrow","leftarrow","leftarrow"],"right_color":"orange","left_color":"lightblue","left_mu":40,"right_mu":28,"left_numbers":[39,42,39,38,37,39,49,45,54,41],"right_numbers":[28,26,35,27,36,42,25,23,39,31],"points_earned":396,"phase":"task","trial_type":"horizons-task","trial_index":20,"time_elapsed":1912174,"internal_node_id":"0.0-16.0","task_version":"0.2"},{"response_times":[650.6850000005215,409.32999999495223,927.6600000157487,981.1400000180583,656.4300000027288],"keys_pressed":["rightarrow","leftarrow","leftarrow","rightarrow","rightarrow"],"horizon":5,"forced_choices":["rightarrow","leftarrow","leftarrow","rightarrow"],"right_color":"orange","left_color":"lightblue","left_mu":40,"right_mu":36,"left_numbers":[37,31,40,53,45],"right_numbers":[42,39,26,56,45],"points_earned":214,"phase":"task","trial_type":"horizons-task","trial_index":21,"time_elapsed":1917304,"internal_node_id":"0.0-17.0","task_version":"0.2"},{"response_times":[582.5350000231992,473.98000000976026,940.085000009276,432.93499998981133,631.2500000058208],"keys_pressed":["rightarrow","leftarrow","rightarrow","leftarrow","leftarrow"],"horizon":5,"forced_choices":["rightarrow","leftarrow","rightarrow","leftarrow"],"right_color":"orange","left_color":"lightblue","left_mu":40,"right_mu":20,"left_numbers":[44,40,29,43,46],"right_numbers":[22,17,15,27,6],"points_earned":166,"phase":"task","trial_type":"horizons-task","trial_index":22,"time_elapsed":1921875,"internal_node_id":"0.0-18.0","task_version":"0.2"},{"response_times":[591.6300000099,1264.0900000114925,906.2799999956042,833.4050000121351,821.2899999925867,513.2400000002235,716.8050000036601,383.4950000164099,318.4299999848008,245.82999999984168],"keys_pressed":["rightarrow","rightarrow","leftarrow","rightarrow","leftarrow","leftarrow","leftarrow","leftarrow","leftarrow","leftarrow"],"horizon":10,"forced_choices":["rightarrow","rightarrow","leftarrow","rightarrow"],"right_color":"orange","left_color":"lightblue","left_mu":60,"right_mu":48,"left_numbers":[74,65,57,48,66,64,62,46,59,60],"right_numbers":[48,40,35,39,48,38,53,52,39,42],"points_earned":541,"phase":"task","trial_type":"horizons-task","trial_index":23,"time_elapsed":1929974,"internal_node_id":"0.0-19.0","task_version":"0.2"},{"response_times":[40406.39999997802,397.03999998164363,337.6400000124704,1952.7349999989383,1255.7350000133738],"keys_pressed":["rightarrow","rightarrow","rightarrow","leftarrow","leftarrow"],"horizon":5,"forced_choices":["rightarrow","rightarrow","rightarrow","leftarrow"],"right_color":"orange","left_color":"lightblue","left_mu":60,"right_mu":68,"left_numbers":[56,66,51,75,57],"right_numbers":[71,63,71,66,80],"points_earned":337,"phase":"task","trial_type":"horizons-task","trial_index":24,"time_elapsed":1975830,"internal_node_id":"0.0-20.0","task_version":"0.2"},{"response_times":[569.1349999979138,454.44999999017455,588.6799999861978,387.7799999900162,961.9050000037532,751.8200000049546,964.045000000624,346.3900000206195,363.68000000948086,486.64999997708946],"keys_pressed":["rightarrow","leftarrow","leftarrow","rightarrow","leftarrow","rightarrow","leftarrow","leftarrow","leftarrow","leftarrow"],"horizon":10,"forced_choices":["rightarrow","leftarrow","leftarrow","rightarrow"],"right_color":"orange","left_color":"lightblue","left_mu":40,"right_mu":36,"left_numbers":[24,46,51,37,31,37,45,55,54,28],"right_numbers":[27,25,29,41,27,34,35,30,41,32],"points_earned":412,"phase":"task","trial_type":"horizons-task","trial_index":25,"time_elapsed":1983211,"internal_node_id":"0.0-21.0","task_version":"0.2"},{"response_times":[707.414999982575,522.8349999815691,577.4000000092201,432.4000000196975,1186.8200000026263],"keys_pressed":["leftarrow","leftarrow","leftarrow","rightarrow","leftarrow"],"horizon":5,"forced_choices":["leftarrow","leftarrow","leftarrow","rightarrow"],"right_color":"lightblue","left_color":"orange","left_mu":60,"right_mu":30,"left_numbers":[58,38,64,56,71],"right_numbers":[39,22,32,27,41],"points_earned":258,"phase":"task","trial_type":"horizons-task","trial_index":26,"time_elapsed":1988144,"internal_node_id":"0.0-22.0","task_version":"0.2"},{"response_times":[1855.0650000106543,711.5350000094622,593.8350000069477,534.3550000106916,616.3700000033714],"keys_pressed":["rightarrow","rightarrow","leftarrow","rightarrow","rightarrow"],"horizon":5,"forced_choices":["rightarrow","rightarrow","leftarrow","rightarrow"],"right_color":"lightblue","left_color":"orange","left_mu":40,"right_mu":60,"left_numbers":[28,42,34,41,44],"right_numbers":[59,69,39,60,48],"points_earned":270,"phase":"task","trial_type":"horizons-task","trial_index":27,"time_elapsed":1993959,"internal_node_id":"0.0-23.0","task_version":"0.2"},{"response_times":[667.9200000071432,413.6750000179745,421.7850000131875,390.05500002531335,622.2999999881722,398.2749999850057,228.49999999743886,287.29500001645647,689.9799999955576,626.0699999984354],"keys_pressed":["leftarrow","rightarrow","leftarrow","rightarrow","rightarrow","rightarrow","rightarrow","rightarrow","rightarrow","rightarrow"],"horizon":10,"forced_choices":["leftarrow","rightarrow","leftarrow","rightarrow"],"right_color":"lightblue","left_color":"orange","left_mu":40,"right_mu":70,"left_numbers":[32,50,40,38,25,35,38,48,48,31],"right_numbers":[53,61,57,78,63,75,83,80,78,69],"points_earned":659,"phase":"task","trial_type":"horizons-task","trial_index":28,"time_elapsed":2000211,"internal_node_id":"0.0-24.0","task_version":"0.2"},{"response_times":[660.8249999990221,408.57500000856817,912.2150000184774,743.4049999865238,493.2099999859929,736.1050000181422,259.02500000665896,404.5400000177324,308.52500000037253,467.34999999171123],"keys_pressed":["leftarrow","rightarrow","leftarrow","rightarrow","leftarrow","rightarrow","rightarrow","rightarrow","rightarrow","rightarrow"],"horizon":10,"forced_choices":["leftarrow","rightarrow","leftarrow","rightarrow"],"right_color":"orange","left_color":"lightblue","left_mu":40,"right_mu":48,"left_numbers":[26,37,53,41,35,46,35,46,26,34],"right_numbers":[39,56,55,45,48,30,65,49,57,41],"points_earned":457,"phase":"task","trial_type":"horizons-task","trial_index":29,"time_elapsed":2007112,"internal_node_id":"0.0-25.0","task_version":"0.2"},{"response_times":[2124.3600000161678,1054.969999997411,420.38500000489876,333.98500000475906,479.7099999850616],"keys_pressed":["rightarrow","rightarrow","leftarrow","leftarrow","leftarrow"],"horizon":5,"forced_choices":["rightarrow","rightarrow","leftarrow","leftarrow"],"right_color":"lightblue","left_color":"orange","left_mu":60,"right_mu":30,"left_numbers":[61,55,51,67,57],"right_numbers":[35,34,14,25,29],"points_earned":244,"phase":"task","trial_type":"horizons-task","trial_index":30,"time_elapsed":2013034,"internal_node_id":"0.0-26.0","task_version":"0.2"},{"response_times":[610.0849999929778,762.4550000182353,587.9549999954179,753.2650000066496,567.2250000061467],"keys_pressed":["rightarrow","leftarrow","rightarrow","rightarrow","rightarrow"],"horizon":5,"forced_choices":["rightarrow","leftarrow","rightarrow","rightarrow"],"right_color":"lightblue","left_color":"orange","left_mu":60,"right_mu":52,"left_numbers":[46,53,64,67,62],"right_numbers":[46,40,57,42,39],"points_earned":237,"phase":"task","trial_type":"horizons-task","trial_index":31,"time_elapsed":2017821,"internal_node_id":"0.0-27.0","task_version":"0.2"},{"response_times":[697.4599999957718,457.1049999794923,578.7750000017695,582.4850000208244,569.1550000046846,708.6899999994785,356.260000000475,1007.6899999985471,764.2399999895133,479.51499998453073],"keys_pressed":["leftarrow","rightarrow","rightarrow","leftarrow","leftarrow","leftarrow","rightarrow","rightarrow","rightarrow","rightarrow"],"horizon":10,"forced_choices":["leftarrow","rightarrow","rightarrow","leftarrow"],"right_color":"orange","left_color":"lightblue","left_mu":60,"right_mu":68,"left_numbers":[60,59,72,68,72,56,62,53,58,63],"right_numbers":[78,66,62,61,73,76,65,68,68,62],"points_earned":647,"phase":"task","trial_type":"horizons-task","trial_index":32,"time_elapsed":2025526,"internal_node_id":"0.0-28.0","task_version":"0.2"},{"response_times":[593.6749999818858,686.615000013262,636.9000000122469,507.1299999835901,629.8449999885634],"keys_pressed":["rightarrow","leftarrow","leftarrow","leftarrow","leftarrow"],"horizon":5,"forced_choices":["rightarrow","leftarrow","leftarrow","leftarrow"],"right_color":"lightblue","left_color":"orange","left_mu":60,"right_mu":56,"left_numbers":[53,60,61,80,60],"right_numbers":[52,53,53,73,67],"points_earned":313,"phase":"task","trial_type":"horizons-task","trial_index":33,"time_elapsed":2030084,"internal_node_id":"0.0-29.0","task_version":"0.2"},{"response_times":[551.9600000116043,468.31500000553206,559.7849999903701,448.28000001143664,1423.7999999895692],"keys_pressed":["rightarrow","leftarrow","leftarrow","rightarrow","leftarrow"],"horizon":5,"forced_choices":["rightarrow","leftarrow","leftarrow","rightarrow"],"right_color":"lightblue","left_color":"orange","left_mu":60,"right_mu":56,"left_numbers":[55,51,52,67,62],"right_numbers":[59,52,51,48,34],"points_earned":272,"phase":"task","trial_type":"horizons-task","trial_index":34,"time_elapsed":2035041,"internal_node_id":"0.0-30.0","task_version":"0.2"},{"response_times":[3139.469999994617,418.7650000094436,592.4349999986589,375.6700000085402,1605.6099999987055,528.9700000139419,483.01999998511747,819.5600000035483,689.9250000133179,731.8550000200048],"keys_pressed":["rightarrow","leftarrow","leftarrow","rightarrow","leftarrow","leftarrow","leftarrow","rightarrow","leftarrow","rightarrow"],"horizon":10,"forced_choices":["rightarrow","leftarrow","leftarrow","rightarrow"],"right_color":"lightblue","left_color":"orange","left_mu":60,"right_mu":52,"left_numbers":[60,53,57,60,59,62,55,59,37,60],"right_numbers":[57,48,60,50,53,56,45,63,65,51],"points_earned":544,"phase":"task","trial_type":"horizons-task","trial_index":35,"time_elapsed":2045934,"internal_node_id":"0.0-31.0","task_version":"0.2"},{"response_times":[861.0749999934342,658.69000001112,621.3199999765493,5490.924999990966,507.58499998482876,418.40500000398606,402.8200000175275,658.8950000004843,376.64000000222586,748.2000000018161],"keys_pressed":["leftarrow","rightarrow","rightarrow","rightarrow","rightarrow","rightarrow","rightarrow","rightarrow","leftarrow","leftarrow"],"horizon":10,"forced_choices":["leftarrow","rightarrow","rightarrow","rightarrow"],"right_color":"lightblue","left_color":"orange","left_mu":60,"right_mu":64,"left_numbers":[60,66,64,68,76,56,70,70,62,62],"right_numbers":[64,61,79,67,66,55,67,68,76,66],"points_earned":647,"phase":"task","trial_type":"horizons-task","trial_index":36,"time_elapsed":2058183,"internal_node_id":"0.0-32.0","task_version":"0.2"},{"response_times":[6374.414999998407,479.8599999921862,377.89999999222346,498.295000026701,507.4550000135787,409.62500000023283,663.2349999854341,467.3600000096485,471.9350000086706,488.3550000085961],"keys_pressed":["leftarrow","leftarrow","rightarrow","rightarrow","rightarrow","leftarrow","rightarrow","rightarrow","rightarrow","leftarrow"],"horizon":10,"forced_choices":["leftarrow","leftarrow","rightarrow","rightarrow"],"right_color":"lightblue","left_color":"orange","left_mu":60,"right_mu":64,"left_numbers":[63,74,55,66,59,64,58,71,58,67],"right_numbers":[65,63,63,85,74,54,59,49,56,63],"points_earned":654,"phase":"task","trial_type":"horizons-task","trial_index":37,"time_elapsed":2070426,"internal_node_id":"0.0-33.0","task_version":"0.2"},{"response_times":[723.4699999971781,346.4349999849219,1771.1549999949057,598.7299999978859,653.1050000048708],"keys_pressed":["leftarrow","rightarrow","rightarrow","rightarrow","rightarrow"],"horizon":5,"forced_choices":["leftarrow","rightarrow","rightarrow","rightarrow"],"right_color":"orange","left_color":"lightblue","left_mu":60,"right_mu":72,"left_numbers":[62,65,52,67,67],"right_numbers":[72,62,70,66,67],"points_earned":327,"phase":"task","trial_type":"horizons-task","trial_index":38,"time_elapsed":2076026,"internal_node_id":"0.0-34.0","task_version":"0.2"},{"response_times":[1267.9599999974016,464.61500000441447,367.6350000023376,404.5449999975972,428.16000001039356,378.5349999961909,323.869999992894,257.5799999758601,165.5050000117626,424.36500001349486],"keys_pressed":["leftarrow","leftarrow","leftarrow","rightarrow","rightarrow","rightarrow","rightarrow","rightarrow","rightarrow","rightarrow"],"horizon":10,"forced_choices":["leftarrow","leftarrow","leftarrow","rightarrow"],"right_color":"orange","left_color":"lightblue","left_mu":60,"right_mu":90,"left_numbers":[52,68,62,53,60,60,64,51,65,66],"right_numbers":[88,83,89,77,99,95,91,98,102,85],"points_earned":829,"phase":"task","trial_type":"horizons-task","trial_index":39,"time_elapsed":2082014,"internal_node_id":"0.0-35.0","task_version":"0.2"},{"response_times":[680.7100000150967,438.41500001144595,454.17000001179986,337.3499999870546,318.7199999811128],"keys_pressed":["leftarrow","rightarrow","leftarrow","rightarrow","leftarrow"],"horizon":5,"forced_choices":["leftarrow","rightarrow","leftarrow","rightarrow"],"right_color":"orange","left_color":"lightblue","left_mu":60,"right_mu":72,"left_numbers":[58,63,53,70,59],"right_numbers":[79,80,74,83,71],"points_earned":333,"phase":"task","trial_type":"horizons-task","trial_index":40,"time_elapsed":2085751,"internal_node_id":"0.0-36.0","task_version":"0.2"},{"response_times":[861.0550000157673,795.2450000157114,488.13500002142973,662.6600000017788,632.3749999864958,308.2049999793526,651.1000000173226,604.5400000002701,307.874999998603,144.4550000014715],"keys_pressed":["leftarrow","leftarrow","rightarrow","leftarrow","rightarrow","rightarrow","leftarrow","rightarrow","rightarrow","rightarrow"],"horizon":10,"forced_choices":["leftarrow","leftarrow","rightarrow","leftarrow"],"right_color":"orange","left_color":"lightblue","left_mu":40,"right_mu":28,"left_numbers":[37,25,41,33,31,47,31,46,50,38],"right_numbers":[14,29,29,45,31,40,23,8,36,24],"points_earned":294,"phase":"task","trial_type":"horizons-task","trial_index":41,"time_elapsed":2092711,"internal_node_id":"0.0-37.0","task_version":"0.2"},{"response_times":[528.1400000094436,1041.9399999955203,512.5000000116415,578.6199999856763,1063.6100000124425],"keys_pressed":["rightarrow","rightarrow","rightarrow","leftarrow","rightarrow"],"horizon":5,"forced_choices":["rightarrow","rightarrow","rightarrow","leftarrow"],"right_color":"lightblue","left_color":"orange","left_mu":40,"right_mu":44,"left_numbers":[25,27,37,35,32],"right_numbers":[40,46,45,36,31],"points_earned":197,"phase":"task","trial_type":"horizons-task","trial_index":42,"time_elapsed":2097941,"internal_node_id":"0.0-38.0","task_version":"0.2"},{"response_times":[590.8350000102073,482.83500000229105,597.6749999974854,507.53000000305474,841.6649999851361,303.0699999942444,233.8049999959767,494.4900000123307,340.9049999900162,904.4449999928474],"keys_pressed":["rightarrow","rightarrow","rightarrow","leftarrow","rightarrow","rightarrow","rightarrow","rightarrow","rightarrow","leftarrow"],"horizon":10,"forced_choices":["rightarrow","rightarrow","rightarrow","leftarrow"],"right_color":"lightblue","left_color":"orange","left_mu":40,"right_mu":44,"left_numbers":[49,29,18,37,36,49,53,38,31,48],"right_numbers":[50,50,39,50,28,50,33,40,49,50],"points_earned":424,"phase":"task","trial_type":"horizons-task","trial_index":43,"time_elapsed":2104742,"internal_node_id":"0.0-39.0","task_version":"0.2"},{"response_times":[71.73500000499189,594.4150000000373,649.6000000042841,487.3700000173412,759.7999999998137],"keys_pressed":["rightarrow","rightarrow","leftarrow","rightarrow","rightarrow"],"horizon":5,"forced_choices":["rightarrow","rightarrow","leftarrow","rightarrow"],"right_color":"orange","left_color":"lightblue","left_mu":40,"right_mu":52,"left_numbers":[36,59,45,30,39],"right_numbers":[57,38,47,57,55],"points_earned":252,"phase":"task","trial_type":"horizons-task","trial_index":44,"time_elapsed":2108814,"internal_node_id":"0.0-40.0","task_version":"0.2"},{"response_times":[585.2300000260584,577.8649999992922,477.41999998129904,766.1499999817461,1211.4149999981746],"keys_pressed":["leftarrow","leftarrow","rightarrow","leftarrow","leftarrow"],"horizon":5,"forced_choices":["leftarrow","leftarrow","rightarrow","leftarrow"],"right_color":"lightblue","left_color":"orange","left_mu":60,"right_mu":40,"left_numbers":[54,63,56,50,61],"right_numbers":[41,34,45,41,44],"points_earned":273,"phase":"task","trial_type":"horizons-task","trial_index":45,"time_elapsed":2113940,"internal_node_id":"0.0-41.0","task_version":"0.2"},{"response_times":[594.0899999989197,409.34499999228865,414.10500000370666,522.8099999949336,442.47000000905246],"keys_pressed":["leftarrow","leftarrow","leftarrow","rightarrow","rightarrow"],"horizon":5,"forced_choices":["leftarrow","leftarrow","leftarrow","rightarrow"],"right_color":"orange","left_color":"lightblue","left_mu":60,"right_mu":90,"left_numbers":[65,62,52,66,62],"right_numbers":[81,92,93,82,83],"points_earned":344,"phase":"task","trial_type":"horizons-task","trial_index":46,"time_elapsed":2117831,"internal_node_id":"0.0-42.0","task_version":"0.2"},{"response_times":[533.1650000009686,448.7049999879673,951.7849999829195,507.79000000376254,477.16000000946224],"keys_pressed":["rightarrow","rightarrow","leftarrow","leftarrow","rightarrow"],"horizon":5,"forced_choices":["rightarrow","rightarrow","leftarrow","leftarrow"],"right_color":"orange","left_color":"lightblue","left_mu":60,"right_mu":90,"left_numbers":[67,70,60,52,55],"right_numbers":[95,92,91,95,94],"points_earned":393,"phase":"task","trial_type":"horizons-task","trial_index":47,"time_elapsed":2122258,"internal_node_id":"0.0-43.0","task_version":"0.2"},{"response_times":[391.57500001601875,541.1000000019558,454.1999999778345,522.5849999990314,772.9750000000931,732.029999984894,551.8849999932572,209.1249999939464,204.88000000454485,453.87500000651926],"keys_pressed":["rightarrow","leftarrow","rightarrow","leftarrow","rightarrow","leftarrow","rightarrow","rightarrow","rightarrow","rightarrow"],"horizon":10,"forced_choices":["rightarrow","leftarrow","rightarrow","leftarrow"],"right_color":"orange","left_color":"lightblue","left_mu":40,"right_mu":52,"left_numbers":[53,52,33,32,49,42,28,22,32,41],"right_numbers":[61,55,50,46,52,61,50,55,48,47],"points_earned":489,"phase":"task","trial_type":"horizons-task","trial_index":48,"time_elapsed":2128602,"internal_node_id":"0.0-44.0","task_version":"0.2"},{"response_times":[514.3699999898672,466.7400000039488,713.114999991376,595.1749999951571,568.3600000049919,997.2150000100955,505.7749999980442,365.7799999928102,242.75999999418855,195.67000001575798],"keys_pressed":["rightarrow","rightarrow","leftarrow","leftarrow","rightarrow","rightarrow","rightarrow","rightarrow","rightarrow","rightarrow"],"horizon":10,"forced_choices":["rightarrow","rightarrow","leftarrow","leftarrow"],"right_color":"orange","left_color":"lightblue","left_mu":60,"right_mu":90,"left_numbers":[53,63,52,61,55,53,58,61,50,63],"right_numbers":[78,85,80,97,86,88,87,100,80,90],"points_earned":807,"phase":"task","trial_type":"horizons-task","trial_index":49,"time_elapsed":2135270,"internal_node_id":"0.0-45.0","task_version":"0.2"},{"response_times":[669.3449999731965,424.3849999913946,800.8900000136346,846.1799999931827,478.26499998383224],"keys_pressed":["leftarrow","rightarrow","rightarrow","rightarrow","rightarrow"],"horizon":5,"forced_choices":["leftarrow","rightarrow","rightarrow","rightarrow"],"right_color":"lightblue","left_color":"orange","left_mu":60,"right_mu":64,"left_numbers":[55,68,65,68,53],"right_numbers":[68,69,67,69,76],"points_earned":336,"phase":"task","trial_type":"horizons-task","trial_index":50,"time_elapsed":2140000,"internal_node_id":"0.0-46.0","task_version":"0.2"},{"view_history":"[{\"page_index\":0,\"viewing_time\":3163.074999989476},{\"page_index\":1,\"viewing_time\":2418.9449999830686}]","rt":5582.929999975022,"trial_type":"instructions","trial_index":51,"time_elapsed":2145585,"internal_node_id":"0.0-47.0","task_version":"0.2"},{"response_times":[547.1750000142492,434.84000000171363,746.0349999894388,617.0850000055507,528.0849999981001],"keys_pressed":["leftarrow","rightarrow","rightarrow","leftarrow","rightarrow"],"horizon":5,"forced_choices":["leftarrow","rightarrow","rightarrow","leftarrow"],"right_color":"orange","left_color":"lightblue","left_mu":60,"right_mu":68,"left_numbers":[58,55,56,61,61],"right_numbers":[61,71,65,59,77],"points_earned":332,"phase":"task","trial_type":"horizons-task","trial_index":52,"time_elapsed":2149975,"internal_node_id":"0.0-48.0","task_version":"0.2"},{"response_times":[687.2049999949522,493.9949999973178,821.0399999809451,521.2750000068918,170.51500000525266],"keys_pressed":["rightarrow","leftarrow","rightarrow","leftarrow","leftarrow"],"horizon":5,"forced_choices":["rightarrow","leftarrow","rightarrow","leftarrow"],"right_color":"lightblue","left_color":"orange","left_mu":40,"right_mu":44,"left_numbers":[36,51,37,49,43],"right_numbers":[31,52,43,41,51],"points_earned":217,"phase":"task","trial_type":"horizons-task","trial_index":53,"time_elapsed":2154175,"internal_node_id":"0.0-49.0","task_version":"0.2"},{"response_times":[539.6699999980628,787.8949999865144,960.785000002943,534.4199999817647,298.3250000104308],"keys_pressed":["leftarrow","rightarrow","rightarrow","leftarrow","leftarrow"],"horizon":5,"forced_choices":["leftarrow","rightarrow","rightarrow","leftarrow"],"right_color":"lightblue","left_color":"orange","left_mu":40,"right_mu":32,"left_numbers":[37,41,47,43,28],"right_numbers":[19,19,36,32,25],"points_earned":163,"phase":"task","trial_type":"horizons-task","trial_index":54,"time_elapsed":2158800,"internal_node_id":"0.0-50.0","task_version":"0.2"},{"response_times":[562.6049999846146,429.1950000040233,576.4750000089407,649.0150000024587,388.5250000166707],"keys_pressed":["rightarrow","leftarrow","leftarrow","rightarrow","leftarrow"],"horizon":5,"forced_choices":["rightarrow","leftarrow","leftarrow","rightarrow"],"right_color":"lightblue","left_color":"orange","left_mu":60,"right_mu":52,"left_numbers":[60,64,58,43,67],"right_numbers":[50,38,60,51,66],"points_earned":290,"phase":"task","trial_type":"horizons-task","trial_index":55,"time_elapsed":2162910,"internal_node_id":"0.0-51.0","task_version":"0.2"},{"response_times":[441.95000000763685,622.5350000024773,607.749999995809,675.2849999759346,479.9250000216998],"keys_pressed":["leftarrow","leftarrow","rightarrow","rightarrow","rightarrow"],"horizon":5,"forced_choices":["leftarrow","leftarrow","rightarrow","rightarrow"],"right_color":"orange","left_color":"lightblue","left_mu":60,"right_mu":48,"left_numbers":[72,58,71,53,50],"right_numbers":[42,56,40,50,56],"points_earned":276,"phase":"task","trial_type":"horizons-task","trial_index":56,"time_elapsed":2167243,"internal_node_id":"0.0-52.0","task_version":"0.2"},{"response_times":[1718.8250000178814,392.22000000905246,397.50000002095476,25695.15499999374,953.0500000109896,309.4050000072457,209.11999998474494,193.9550000242889,214.1899999990128,174.62499998509884],"keys_pressed":["leftarrow","rightarrow","leftarrow","leftarrow","rightarrow","rightarrow","rightarrow","rightarrow","rightarrow","rightarrow"],"horizon":10,"forced_choices":["leftarrow","rightarrow","leftarrow","leftarrow"],"right_color":"orange","left_color":"lightblue","left_mu":40,"right_mu":48,"left_numbers":[48,33,46,38,44,36,46,33,27,41],"right_numbers":[50,55,46,52,49,55,42,44,34,53],"points_earned":464,"phase":"task","trial_type":"horizons-task","trial_index":57,"time_elapsed":2199010,"internal_node_id":"0.0-53.0","task_version":"0.2"},{"response_times":[1052.0850000027567,501.1949999895878,518.6150000081398,801.7699999907054,563.9899999951012,268.2149999891408,235.79999999469146,186.79999999608845,369.2799999844283,513.3499999940395],"keys_pressed":["rightarrow","rightarrow","leftarrow","rightarrow","rightarrow","rightarrow","rightarrow","rightarrow","leftarrow","rightarrow"],"horizon":10,"forced_choices":["rightarrow","rightarrow","leftarrow","rightarrow"],"right_color":"orange","left_color":"lightblue","left_mu":40,"right_mu":52,"left_numbers":[48,24,48,27,38,28,40,28,42,44],"right_numbers":[61,68,51,66,45,68,46,39,53,54],"points_earned":537,"phase":"task","trial_type":"horizons-task","trial_index":58,"time_elapsed":2205530,"internal_node_id":"0.0-54.0","task_version":"0.2"},{"response_times":[4198.2150000114925,463.85999998869374,544.2599999951199,432.38499999279156,757.855000003241,762.1100000105798,496.710000006482,315.00000000279397,183.274999988731,159.42999999970198],"keys_pressed":["rightarrow","leftarrow","leftarrow","rightarrow","leftarrow","rightarrow","leftarrow","leftarrow","leftarrow","leftarrow"],"horizon":10,"forced_choices":["rightarrow","leftarrow","leftarrow","rightarrow"],"right_color":"lightblue","left_color":"orange","left_mu":60,"right_mu":56,"left_numbers":[53,50,71,50,61,54,66,57,52,55],"right_numbers":[62,59,65,56,51,55,51,57,41,51],"points_earned":585,"phase":"task","trial_type":"horizons-task","trial_index":59,"time_elapsed":2215350,"internal_node_id":"0.0-55.0","task_version":"0.2"},{"response_times":[3131.855000014417,397.76500000152737,351.2899999911897,478.1899999943562,362.08500000089407],"keys_pressed":["leftarrow","rightarrow","leftarrow","leftarrow","leftarrow"],"horizon":5,"forced_choices":["leftarrow","rightarrow","leftarrow","leftarrow"],"right_color":"orange","left_color":"lightblue","left_mu":40,"right_mu":20,"left_numbers":[34,53,35,42,44],"right_numbers":[14,18,29,16,21],"points_earned":173,"phase":"task","trial_type":"horizons-task","trial_index":60,"time_elapsed":2221577,"internal_node_id":"0.0-56.0","task_version":"0.2"},{"response_times":[7194.004999998026,449.24499999638647,386.86999998707324,435.59499998763204,749.2149999886751],"keys_pressed":["leftarrow","leftarrow","rightarrow","rightarrow","leftarrow"],"horizon":5,"forced_choices":["leftarrow","leftarrow","rightarrow","rightarrow"],"right_color":"lightblue","left_color":"orange","left_mu":60,"right_mu":40,"left_numbers":[62,54,47,56,63],"right_numbers":[48,45,41,31,34],"points_earned":251,"phase":"task","trial_type":"horizons-task","trial_index":61,"time_elapsed":2232296,"internal_node_id":"0.0-57.0","task_version":"0.2"},{"response_times":[2037.4550000126474,414.1750000123866,348.79000001819804,366.6599999992177,1494.570000010077,627.6849999851547,484.20000000623986,322.4099999931641,189.03499998850748,169.9000000078231],"keys_pressed":["rightarrow","leftarrow","rightarrow","rightarrow","leftarrow","leftarrow","leftarrow","leftarrow","leftarrow","leftarrow"],"horizon":10,"forced_choices":["rightarrow","leftarrow","rightarrow","rightarrow"],"right_color":"lightblue","left_color":"orange","left_mu":60,"right_mu":52,"left_numbers":[61,46,61,51,60,82,63,57,55,74],"right_numbers":[55,57,55,40,56,55,35,53,60,60],"points_earned":587,"phase":"task","trial_type":"horizons-task","trial_index":62,"time_elapsed":2240260,"internal_node_id":"0.0-58.0","task_version":"0.2"},{"response_times":[6851.965000008699,479.17000000551343,509.2250000163913,552.9699999894947,477.4500000057742,567.574999993667,686.9850000077859,220.40500000026077,327.63499999418855,418.5199999772012],"keys_pressed":["rightarrow","leftarrow","leftarrow","leftarrow","leftarrow","rightarrow","leftarrow","leftarrow","leftarrow","leftarrow"],"horizon":10,"forced_choices":["rightarrow","leftarrow","leftarrow","leftarrow"],"right_color":"orange","left_color":"lightblue","left_mu":40,"right_mu":10,"left_numbers":[36,44,44,30,39,38,31,40,36,32],"right_numbers":[0,19,20,13,7,6,11,2,8,8],"points_earned":302,"phase":"task","trial_type":"horizons-task","trial_index":63,"time_elapsed":2252861,"internal_node_id":"0.0-59.0","task_version":"0.2"},{"response_times":[603.9599999785423,540.7300000078976,462.67000000784174,563.2150000017136,758.6750000193715],"keys_pressed":["leftarrow","leftarrow","rightarrow","leftarrow","leftarrow"],"horizon":5,"forced_choices":["leftarrow","leftarrow","rightarrow","leftarrow"],"right_color":"lightblue","left_color":"orange","left_mu":60,"right_mu":80,"left_numbers":[75,63,50,55,57],"right_numbers":[77,74,65,79,80],"points_earned":315,"phase":"task","trial_type":"horizons-task","trial_index":64,"time_elapsed":2257295,"internal_node_id":"0.0-60.0","task_version":"0.2"},{"response_times":[72029.89000000525,448.0700000128709,448.47999999206513,329.3650000123307,511.68999998504296,287.7250000019558,184.70999997248873,148.4999999809079,159.91499999677762,154.45999999064952],"keys_pressed":["leftarrow","leftarrow","rightarrow","rightarrow","leftarrow","leftarrow","leftarrow","leftarrow","leftarrow","leftarrow"],"horizon":10,"forced_choices":["leftarrow","leftarrow","rightarrow","rightarrow"],"right_color":"lightblue","left_color":"orange","left_mu":60,"right_mu":40,"left_numbers":[60,58,60,69,50,71,61,57,50,70],"right_numbers":[30,53,25,42,34,45,54,46,44,44],"points_earned":544,"phase":"task","trial_type":"horizons-task","trial_index":65,"time_elapsed":2333502,"internal_node_id":"0.0-61.0","task_version":"0.2"},{"response_times":[827.4450000026263,503.38000000920147,399.48500000173226,511.7999999783933,288.93999999854714,338.5399999967776,562.550000002142,539.3550000153482,159.04500000737607,154.3999999994412],"keys_pressed":["leftarrow","rightarrow","leftarrow","rightarrow","rightarrow","rightarrow","leftarrow","rightarrow","rightarrow","rightarrow"],"horizon":10,"forced_choices":["leftarrow","rightarrow","leftarrow","rightarrow"],"right_color":"lightblue","left_color":"orange","left_mu":40,"right_mu":60,"left_numbers":[43,41,46,32,36,36,27,37,34,41],"right_numbers":[56,58,58,60,52,48,52,60,52,58],"points_earned":504,"phase":"task","trial_type":"horizons-task","trial_index":66,"time_elapsed":2339295,"internal_node_id":"0.0-62.0","task_version":"0.2"},{"response_times":[855.8400000040419,380.6849999818951,418.4499999973923,1239.920000021346,916.239999991376],"keys_pressed":["rightarrow","leftarrow","rightarrow","rightarrow","leftarrow"],"horizon":5,"forced_choices":["rightarrow","leftarrow","rightarrow","rightarrow"],"right_color":"orange","left_color":"lightblue","left_mu":40,"right_mu":36,"left_numbers":[37,45,38,38,33],"right_numbers":[36,41,52,35,25],"points_earned":201,"phase":"task","trial_type":"horizons-task","trial_index":67,"time_elapsed":2344611,"internal_node_id":"0.0-63.0","task_version":"0.2"},{"response_times":[4012.430000002496,354.22000000812113,485.01000000396743,497.0550000141375,516.0800000014715,345.4550000024028,239.02000000840053,178.4049999844283,139.25499998778105,153.8799999980256],"keys_pressed":["rightarrow","leftarrow","leftarrow","leftarrow","rightarrow","rightarrow","rightarrow","rightarrow","rightarrow","rightarrow"],"horizon":10,"forced_choices":["rightarrow","leftarrow","leftarrow","leftarrow"],"right_color":"lightblue","left_color":"orange","left_mu":40,"right_mu":70,"left_numbers":[39,36,41,39,41,44,37,29,50,59],"right_numbers":[74,63,78,81,66,78,67,77,75,66],"points_earned":619,"phase":"task","trial_type":"horizons-task","trial_index":68,"time_elapsed":2353040,"internal_node_id":"0.0-64.0","task_version":"0.2"},{"response_times":[672.3950000014156,368.2949999929406,494.3900000071153,636.4100000066683,663.4250000058673],"keys_pressed":["leftarrow","rightarrow","rightarrow","rightarrow","leftarrow"],"horizon":5,"forced_choices":["leftarrow","rightarrow","rightarrow","rightarrow"],"right_color":"lightblue","left_color":"orange","left_mu":40,"right_mu":32,"left_numbers":[38,54,62,36,56],"right_numbers":[33,34,34,18,44],"points_earned":180,"phase":"task","trial_type":"horizons-task","trial_index":69,"time_elapsed":2357383,"internal_node_id":"0.0-65.0","task_version":"0.2"},{"response_times":[3526.1699999971315,325.13000001199543,329.1150000006892,531.8900000131689,254.76499999081716],"keys_pressed":["leftarrow","rightarrow","leftarrow","rightarrow","rightarrow"],"horizon":5,"forced_choices":["leftarrow","rightarrow","leftarrow","rightarrow"],"right_color":"orange","left_color":"lightblue","left_mu":40,"right_mu":48,"left_numbers":[36,35,35,35,39],"right_numbers":[38,50,53,46,56],"points_earned":223,"phase":"task","trial_type":"horizons-task","trial_index":70,"time_elapsed":2363856,"internal_node_id":"0.0-66.0","task_version":"0.2"},{"response_times":[12280.419999995269,471.1200000019744,493.14500001538545,1044.614999991376,358.13500001700595],"keys_pressed":["rightarrow","rightarrow","leftarrow","rightarrow","leftarrow"],"horizon":5,"forced_choices":["rightarrow","rightarrow","leftarrow","rightarrow"],"right_color":"orange","left_color":"lightblue","left_mu":60,"right_mu":48,"left_numbers":[54,65,74,61,58],"right_numbers":[51,59,53,54,53],"points_earned":296,"phase":"task","trial_type":"horizons-task","trial_index":71,"time_elapsed":2380010,"internal_node_id":"0.0-67.0","task_version":"0.2"},{"response_times":[2445.739999995567,327.11000001290813,338.83000002242625,367.64999999990687,434.3750000121072],"keys_pressed":["leftarrow","rightarrow","leftarrow","rightarrow","rightarrow"],"horizon":5,"forced_choices":["leftarrow","rightarrow","leftarrow","rightarrow"],"right_color":"lightblue","left_color":"orange","left_mu":40,"right_mu":70,"left_numbers":[39,37,39,48,43],"right_numbers":[61,62,58,76,66],"points_earned":282,"phase":"task","trial_type":"horizons-task","trial_index":72,"time_elapsed":2385432,"internal_node_id":"0.0-68.0","task_version":"0.2"},{"response_times":[589.6750000244938,351.1749999891035,515.2099999831989,720.5249999822117,305.3650000076741],"keys_pressed":["rightarrow","leftarrow","leftarrow","leftarrow","rightarrow"],"horizon":5,"forced_choices":["rightarrow","leftarrow","leftarrow","leftarrow"],"right_color":"lightblue","left_color":"orange","left_mu":40,"right_mu":70,"left_numbers":[30,46,35,31,48],"right_numbers":[82,60,57,69,71],"points_earned":265,"phase":"task","trial_type":"horizons-task","trial_index":73,"time_elapsed":2389420,"internal_node_id":"0.0-69.0","task_version":"0.2"},{"response_times":[2473.794999998063,398.23500000080094,392.5099999764934,414.04500001249835,457.9249999951571,442.6450000028126,214.78000000910833,148.7300000153482,274.23999999882653,128.62999999150634],"keys_pressed":["rightarrow","rightarrow","leftarrow","rightarrow","rightarrow","rightarrow","rightarrow","rightarrow","rightarrow","rightarrow"],"horizon":10,"forced_choices":["rightarrow","rightarrow","leftarrow","rightarrow"],"right_color":"lightblue","left_color":"orange","left_mu":40,"right_mu":60,"left_numbers":[30,34,28,37,35,50,29,41,48,49],"right_numbers":[63,57,65,58,62,62,50,53,54,65],"points_earned":552,"phase":"task","trial_type":"horizons-task","trial_index":74,"time_elapsed":2396270,"internal_node_id":"0.0-70.0","task_version":"0.2"},{"response_times":[10755.940000003204,504.56500001065433,354.5699999961071,482.30499998340383,547.9400000190362],"keys_pressed":["leftarrow","leftarrow","rightarrow","rightarrow","leftarrow"],"horizon":5,"forced_choices":["leftarrow","leftarrow","rightarrow","rightarrow"],"right_color":"lightblue","left_color":"orange","left_mu":60,"right_mu":64,"left_numbers":[64,49,73,44,60],"right_numbers":[58,71,58,64,64],"points_earned":295,"phase":"task","trial_type":"horizons-task","trial_index":75,"time_elapsed":2410420,"internal_node_id":"0.0-71.0","task_version":"0.2"},{"response_times":[65.10999999567866,597.3899999805726,533.1949999961071,444.3699999828823,1029.9050000030547,333.77999998629093,193.7299999995157,424.48499999567866,542.0349999917671,185.35499999439344],"keys_pressed":["rightarrow","leftarrow","rightarrow","rightarrow","leftarrow","leftarrow","leftarrow","rightarrow","leftarrow","leftarrow"],"horizon":10,"forced_choices":["rightarrow","leftarrow","rightarrow","rightarrow"],"right_color":"orange","left_color":"lightblue","left_mu":40,"right_mu":36,"left_numbers":[25,43,29,47,37,51,33,55,53,36],"right_numbers":[37,31,48,32,38,49,25,19,39,26],"points_earned":389,"phase":"task","trial_type":"horizons-task","trial_index":76,"time_elapsed":2416275,"internal_node_id":"0.0-72.0","task_version":"0.2"},{"response_times":[73359.354999993,555.9150000042282,409.3400000128895,447.69499998074025,210.3350000102073,571.5650000204332,472.92500000912696,210.43000000622123,158.92499999608845,527.8850000174716],"keys_pressed":["rightarrow","leftarrow","rightarrow","leftarrow","leftarrow","rightarrow","leftarrow","leftarrow","leftarrow","rightarrow"],"horizon":10,"forced_choices":["rightarrow","leftarrow","rightarrow","leftarrow"],"right_color":"orange","left_color":"lightblue","left_mu":40,"right_mu":20,"left_numbers":[46,24,46,41,34,34,39,42,34,45],"right_numbers":[9,40,20,26,4,15,22,14,23,31],"points_earned":289,"phase":"task","trial_type":"horizons-task","trial_index":77,"time_elapsed":2494704,"internal_node_id":"0.0-73.0","task_version":"0.2"},{"response_times":[677.2950000008568,363.2499999948777,578.5550000146031,442.2650000201538,548.4750000182539,353.27500000130385,252.87500000558794,183.92999999923632,170.5599999986589,179.2600000044331],"keys_pressed":["leftarrow","rightarrow","rightarrow","leftarrow","leftarrow","leftarrow","leftarrow","leftarrow","leftarrow","leftarrow"],"horizon":10,"forced_choices":["leftarrow","rightarrow","rightarrow","leftarrow"],"right_color":"orange","left_color":"lightblue","left_mu":40,"right_mu":10,"left_numbers":[40,34,28,33,46,45,46,40,45,49],"right_numbers":[6,11,0,0,13,18,8,29,10,11],"points_earned":355,"phase":"task","trial_type":"horizons-task","trial_index":78,"time_elapsed":2499960,"internal_node_id":"0.0-74.0","task_version":"0.2"},{"response_times":[444.1700000022538,370.49999998975545,453.3449999867007,1061.5399999953806,1054.7599999993108,577.2900000154041,589.6049999864772,477.22000000067055,180.08499999996275,173.26000001095235],"keys_pressed":["leftarrow","rightarrow","leftarrow","leftarrow","rightarrow","leftarrow","rightarrow","leftarrow","leftarrow","leftarrow"],"horizon":10,"forced_choices":["leftarrow","rightarrow","leftarrow","leftarrow"],"right_color":"orange","left_color":"lightblue","left_mu":40,"right_mu":20,"left_numbers":[34,57,34,50,49,41,44,40,38,37],"right_numbers":[22,36,21,12,18,15,15,17,14,15],"points_earned":343,"phase":"task","trial_type":"horizons-task","trial_index":79,"time_elapsed":2506850,"internal_node_id":"0.0-75.0","task_version":"0.2"},{"response_times":[635.74499997776,393.05000001285225,756.120000005234,960.8200000077486,383.57000000495464],"keys_pressed":["rightarrow","leftarrow","leftarrow","leftarrow","leftarrow"],"horizon":5,"forced_choices":["rightarrow","leftarrow","leftarrow","leftarrow"],"right_color":"orange","left_color":"lightblue","left_mu":40,"right_mu":10,"left_numbers":[23,35,38,43,20],"right_numbers":[2,13,4,5,6],"points_earned":138,"phase":"task","trial_type":"horizons-task","trial_index":80,"time_elapsed":2511483,"internal_node_id":"0.0-76.0","task_version":"0.2"},{"response_times":[432.60499997995794,748.8799999989569,696.6699999757111,751.9700000118464,828.0300000039861],"keys_pressed":["rightarrow","leftarrow","rightarrow","leftarrow","rightarrow"],"horizon":5,"forced_choices":["rightarrow","leftarrow","rightarrow","leftarrow"],"right_color":"orange","left_color":"lightblue","left_mu":40,"right_mu":52,"left_numbers":[43,41,36,34,41],"right_numbers":[55,47,49,54,41],"points_earned":220,"phase":"task","trial_type":"horizons-task","trial_index":81,"time_elapsed":2516448,"internal_node_id":"0.0-77.0","task_version":"0.2"},{"response_times":[494.8049999945797,434.7950000083074,526.7849999945611,463.2550000101328,791.8099999953993,1184.4449999919161,1006.9399999920279,230.405000009574,213.27999999653548,156.6849999949336],"keys_pressed":["rightarrow","leftarrow","rightarrow","leftarrow","rightarrow","rightarrow","rightarrow","rightarrow","rightarrow","rightarrow"],"horizon":10,"forced_choices":["rightarrow","leftarrow","rightarrow","leftarrow"],"right_color":"lightblue","left_color":"orange","left_mu":40,"right_mu":44,"left_numbers":[51,45,38,41,53,35,37,35,55,32],"right_numbers":[32,52,45,46,39,50,40,37,35,39],"points_earned":403,"phase":"task","trial_type":"horizons-task","trial_index":82,"time_elapsed":2523460,"internal_node_id":"0.0-78.0","task_version":"0.2"},{"response_times":[456.3450000132434,494.28000001376495,458.3399999830872,538.0099999890663,315.50499997707084,186.9599999920465,159.58499998692423,165.57000001240522,139.41499998327345,153.62500000651926],"keys_pressed":["rightarrow","rightarrow","leftarrow","leftarrow","leftarrow","leftarrow","leftarrow","leftarrow","leftarrow","leftarrow"],"horizon":10,"forced_choices":["rightarrow","rightarrow","leftarrow","leftarrow"],"right_color":"lightblue","left_color":"orange","left_mu":60,"right_mu":30,"left_numbers":[59,57,64,56,62,67,76,65,73,62],"right_numbers":[23,43,33,39,32,32,31,26,25,41],"points_earned":591,"phase":"task","trial_type":"horizons-task","trial_index":83,"time_elapsed":2528032,"internal_node_id":"0.0-79.0","task_version":"0.2"},{"response_times":[582.3500000117347,398.1550000025891,428.2400000086054,433.1599999857135,577.4849999872968,210.410000000149,178.76999999862164,173.4450000221841,179.41000001179054,149.24999998742715],"keys_pressed":["leftarrow","leftarrow","leftarrow","rightarrow","leftarrow","leftarrow","leftarrow","leftarrow","leftarrow","leftarrow"],"horizon":10,"forced_choices":["leftarrow","leftarrow","leftarrow","rightarrow"],"right_color":"lightblue","left_color":"orange","left_mu":60,"right_mu":30,"left_numbers":[59,56,71,66,57,61,53,55,67,62],"right_numbers":[40,30,27,26,32,15,21,23,32,22],"points_earned":567,"phase":"task","trial_type":"horizons-task","trial_index":84,"time_elapsed":2532846,"internal_node_id":"0.0-80.0","task_version":"0.2"},{"response_times":[522.365000011865,450.6999999866821,662.0399999958463,443.6299999943003,233.74999998463318],"keys_pressed":["leftarrow","rightarrow","rightarrow","leftarrow","leftarrow"],"horizon":5,"forced_choices":["leftarrow","rightarrow","rightarrow","leftarrow"],"right_color":"orange","left_color":"lightblue","left_mu":40,"right_mu":10,"left_numbers":[51,34,43,35,47],"right_numbers":[5,12,10,14,11],"points_earned":155,"phase":"task","trial_type":"horizons-task","trial_index":85,"time_elapsed":2536666,"internal_node_id":"0.0-81.0","task_version":"0.2"},{"response_times":[390.6100000021979,462.5649999938905,429.7450000010431,607.1850000005215,522.3249999983236,663.0799999986775,457.63499999884516,198.88999999966472,169.23499997891486,160.8849999899976],"keys_pressed":["leftarrow","leftarrow","rightarrow","leftarrow","leftarrow","rightarrow","leftarrow","leftarrow","leftarrow","leftarrow"],"horizon":10,"forced_choices":["leftarrow","leftarrow","rightarrow","leftarrow"],"right_color":"lightblue","left_color":"orange","left_mu":60,"right_mu":40,"left_numbers":[57,73,51,49,45,46,57,71,57,58],"right_numbers":[42,55,30,48,24,41,44,33,27,42],"points_earned":538,"phase":"task","trial_type":"horizons-task","trial_index":86,"time_elapsed":2542234,"internal_node_id":"0.0-82.0","task_version":"0.2"},{"response_times":[422.9950000010431,450.8199999979697,371.19000000553206,1021.8149999855086,245.51000000769272],"keys_pressed":["leftarrow","rightarrow","leftarrow","leftarrow","rightarrow"],"horizon":5,"forced_choices":["leftarrow","rightarrow","leftarrow","leftarrow"],"right_color":"orange","left_color":"lightblue","left_mu":40,"right_mu":48,"left_numbers":[33,37,43,49,49],"right_numbers":[43,63,54,42,45],"points_earned":233,"phase":"task","trial_type":"horizons-task","trial_index":87,"time_elapsed":2546253,"internal_node_id":"0.0-83.0","task_version":"0.2"},{"response_times":[418.34500001277775,462.57500001229346,780.3250000001863,478.1700000166893,901.6199999898672,229.01000001002103,176.32500000763685,189.29500001855195,162.21000000927597,160.79500000318512],"keys_pressed":["leftarrow","rightarrow","rightarrow","leftarrow","leftarrow","leftarrow","leftarrow","leftarrow","leftarrow","leftarrow"],"horizon":10,"forced_choices":["leftarrow","rightarrow","rightarrow","leftarrow"],"right_color":"lightblue","left_color":"orange","left_mu":40,"right_mu":32,"left_numbers":[45,39,45,43,35,38,43,38,45,32],"right_numbers":[47,21,29,35,35,24,44,27,47,36],"points_earned":369,"phase":"task","trial_type":"horizons-task","trial_index":88,"time_elapsed":2551721,"internal_node_id":"0.0-84.0","task_version":"0.2"},{"response_times":[618.7749999808148,521.8350000213832,750.8749999976717,364.9650000156835,238.57499999552965],"keys_pressed":["rightarrow","leftarrow","leftarrow","rightarrow","rightarrow"],"horizon":5,"forced_choices":["rightarrow","leftarrow","leftarrow","rightarrow"],"right_color":"lightblue","left_color":"orange","left_mu":60,"right_mu":80,"left_numbers":[53,56,56,65,55],"right_numbers":[90,69,67,80,79],"points_earned":361,"phase":"task","trial_type":"horizons-task","trial_index":89,"time_elapsed":2555723,"internal_node_id":"0.0-85.0","task_version":"0.2"},{"response_times":[390.285000001546,389.70000000018626,457.50000001862645,659.4050000132993,477.0499999867752,267.919999984093,159.48000000184402,178.22499998146668,186.50499999057502,183.3349999799393],"keys_pressed":["leftarrow","leftarrow","rightarrow","leftarrow","rightarrow","rightarrow","rightarrow","rightarrow","rightarrow","rightarrow"],"horizon":10,"forced_choices":["leftarrow","leftarrow","rightarrow","leftarrow"],"right_color":"lightblue","left_color":"orange","left_mu":60,"right_mu":80,"left_numbers":[70,59,62,69,50,44,55,41,73,60],"right_numbers":[63,69,84,93,68,85,71,73,82,75],"points_earned":736,"phase":"task","trial_type":"horizons-task","trial_index":90,"time_elapsed":2560580,"internal_node_id":"0.0-86.0","task_version":"0.2"},{"response_times":[440.2399999964982,353.1600000280887,572.4950000001118,865.9900000207126,430.129999993369,516.3600000087172,178.9850000059232,184.97000000160187,174.28500001551583,169.25999999511987],"keys_pressed":["rightarrow","leftarrow","leftarrow","leftarrow","rightarrow","rightarrow","rightarrow","rightarrow","rightarrow","rightarrow"],"horizon":10,"forced_choices":["rightarrow","leftarrow","leftarrow","leftarrow"],"right_color":"lightblue","left_color":"orange","left_mu":60,"right_mu":56,"left_numbers":[72,53,48,47,76,38,44,60,54,57],"right_numbers":[60,39,50,60,64,58,63,56,54,61],"points_earned":564,"phase":"task","trial_type":"horizons-task","trial_index":91,"time_elapsed":2565971,"internal_node_id":"0.0-87.0","task_version":"0.2"},{"rt":18799.854999990202,"responses":{"age":"34","gender-categorical":"Female","gender-free-response":"","ethnicity":"Hispanic or Latino","race":["American Indian/Alaska Native"],"language":"Yes","fluency":"Very well"},"survey":"demographics","trial_type":"survey-demo","trial_index":92,"time_elapsed":2584777,"internal_node_id":"0.0-88.0","task_version":"0.2"},{"rt":27965.005000005476,"responses":{"difficulty":"4","fun":"5","clarity":"5","strategy":"no, just see what machine have higher numbers","feedback":""},"survey":"debrief","trial_type":"survey-debrief","trial_index":93,"time_elapsed":2612749,"internal_node_id":"0.0-89.0","task_version":"0.2","interactions":"[{\"event\":\"blur\",\"trial\":1,\"time\":1129516},{\"event\":\"focus\",\"trial\":1,\"time\":1133018},{\"event\":\"blur\",\"trial\":1,\"time\":1141030},{\"event\":\"focus\",\"trial\":1,\"time\":1236040},{\"event\":\"blur\",\"trial\":1,\"time\":1283410},{\"event\":\"focus\",\"trial\":1,\"time\":1309608},{\"event\":\"blur\",\"trial\":3,\"time\":1529005},{\"event\":\"focus\",\"trial\":3,\"time\":1532036},{\"event\":\"blur\",\"trial\":20,\"time\":1903392},{\"event\":\"focus\",\"trial\":20,\"time\":1904784},{\"event\":\"blur\",\"trial\":35,\"time\":2035789},{\"event\":\"focus\",\"trial\":35,\"time\":2037618}]"}]