[{"view_history":"[{\"page_index\":0,\"viewing_time\":6991.149999999834}]","rt":7007.789999999659,"trial_type":"instructions","trial_index":0,"time_elapsed":7064,"internal_node_id":"0.0-0.0","task_version":"0.2"},{"item_order":[6,5,11,4,0,1,3,12,8,9,14,2,10,7,15,13],"responses":{"Q07":"5","Q06":"2","Q12":"2","Q05":"3","Q01":"2","Q02":"2","Q04":"2","Q13":"4","Q09":"2","Q10":"4","Q15":"3","Q03":"3","Q11":"2","Q08":"5","Q16":"5","Q14":"1"},"radio_events":[9054.175000001123,15936.68500000058,20004.21500000084,33811.289999999644,38087.86500000133,39973.43000000001,45588.1700000009,65447.17000000128,110769.44000000003,117806.85500000071,148923.31999999986,157633.27500000014,166111.51000000062,179073.74499999968,192460.00500000082,202785.2700000003],"key_events":[],"mouse_events":[0.8600000001024455,9054.175000001123,14058.735000000524,15936.68500000058,20004.21500000084,33811.289999999644,38087.86500000133,39973.43000000001,45588.1700000009,65447.17000000128,110769.44000000003,117806.85500000071,148923.31999999986,157633.27500000014,166111.51000000062,179073.74499999968,192460.00500000082,202785.2700000003,204555.94500000007],"rt":204625.19500000053,"survey":"nfc","trial_type":"survey-template","trial_index":1,"time_elapsed":211820,"internal_node_id":"0.0-1.0","task_version":"0.2"},{"item_order":[4,9,0,14,3,15,1,7,11,5,10,6,13,12,2,16,8],"responses":{"Q05":"1","Q10":"3","Q01":"3","Q15":"1","Q04":"1","Q16":"2","Q02":"1","Q08":"2","Q12":"1","Q06":"2","Q11":"2","Q07":"1","Q14":"1","Q13":"1","Q03":"3","Q17":"0","Q09":"2"},"radio_events":[8299.000000000873,21554.86000000019,35053.574999999895,37563.65000000005,39810.63999999972,53813.294999999925,58662.19500000082,69525.7999999994,74991.60500000109,130198.86500000028,136764.8050000007,142174.7350000005,147975.49500000058,155065.95500000002,161322.80999999965,164559.84999999963,175998.05999999988],"key_events":[],"mouse_events":[8299.000000000873,21554.86000000019,35053.574999999895,37563.65000000005,39810.63999999972,53813.294999999925,58662.19500000082,69525.7999999994,74991.60500000109,130198.86500000028,136764.8050000007,142174.7350000005,147975.49500000058,155065.95500000002,161322.80999999965,164559.84999999963,175998.05999999988,177455.7450000011],"rt":177550.85499999952,"survey":"pswq","trial_type":"survey-template","trial_index":2,"time_elapsed":389487,"internal_node_id":"0.0-2.0","task_version":"0.2"},{"item_order":[11,12,9,10,1,8,4,5,3,0,6,7,2],"responses":{"Q12":"3","Q13":"4","Q10":"1","Q11":"2","Q02":"2","Q09":"1","Q05":"2","Q06":"0","Q04":"2","Q01":"1","Q07":"1","Q08":"2","Q03":"1"},"radio_events":[11692.12999999948,14202.92499999958,21480.00999999931,31981.834999998682,34839.90499999892,39693.29499999911,45905.26999999932,57275.509999999485,61130.56999999937,68586.28499999945,76375.02499999938,86161.49499999848,90741.74499999936],"key_events":[],"mouse_events":[11692.12999999948,14202.92499999958,21480.00999999931,31981.834999998682,34839.90499999892,39693.29499999911,45905.26999999932,57275.509999999485,61130.56999999937,68586.28499999945,76375.02499999938,84262.89999999973,86161.49499999848,89512.90499999962,90741.74499999936,92923.08499999857],"rt":92958.53999999963,"survey":"ius12","trial_type":"survey-template","trial_index":3,"time_elapsed":482573,"internal_node_id":"0.0-3.0","task_version":"0.2"},{"view_history":"[{\"page_index\":0,\"viewing_time\":3967.1149999994086},{\"page_index\":1,\"viewing_time\":1910.4250000000466},{\"page_index\":2,\"viewing_time\":2469.554999999702},{\"page_index\":3,\"viewing_time\":1498.5749999996042},{\"page_index\":4,\"viewing_time\":2096.8050000010408},{\"page_index\":5,\"viewing_time\":1040.6399999992573},{\"page_index\":6,\"viewing_time\":1511.5550000009825},{\"page_index\":7,\"viewing_time\":1847.064999999886},{\"page_index\":6,\"viewing_time\":4238.900000000314},{\"page_index\":7,\"viewing_time\":1822.3949999992037},{\"page_index\":6,\"viewing_time\":4183.399999999907},{\"page_index\":7,\"viewing_time\":13533.960000000661},{\"page_index\":8,\"viewing_time\":1888.2199999989243},{\"page_index\":9,\"viewing_time\":1299.4450000005309}]","rt":43309.99499999953,"trial_type":"instructions","trial_index":4,"time_elapsed":525904,"internal_node_id":"0.0-4.0-0.0","task_version":"0.2"},{"response_times":[2746.750000000233,1428.10499999905,584.1749999999302,666.9549999987939,649.2849999994505],"keys_pressed":["rightarrow","leftarrow","rightarrow","rightarrow","rightarrow"],"horizon":5,"forced_choices":["rightarrow","leftarrow","rightarrow","rightarrow"],"right_color":"lightblue","left_color":"orange","left_mu":40,"right_mu":20,"left_numbers":[44,36,41,30,45],"right_numbers":[24,24,30,12,20],"points_earned":122,"phase":"practice","trial_type":"horizons-task","trial_index":5,"time_elapsed":533554,"internal_node_id":"0.0-4.0-1.0","task_version":"0.2"},{"response_times":[1426.9600000006612,890.0800000010058,618.2200000003213,605.7150000015972,697.1649999995716,631.105000000447,648.2250000007916,1138.0200000003679,490.99500000011176,451.4899999994086],"keys_pressed":["leftarrow","leftarrow","rightarrow","rightarrow","leftarrow","leftarrow","leftarrow","leftarrow","leftarrow","leftarrow"],"horizon":10,"forced_choices":["leftarrow","leftarrow","rightarrow","rightarrow"],"right_color":"orange","left_color":"lightblue","left_mu":60,"right_mu":70,"left_numbers":[68,62,55,58,48,46,65,60,65,64],"right_numbers":[76,67,80,72,63,73,70,76,78,73],"points_earned":630,"phase":"practice","trial_type":"horizons-task","trial_index":6,"time_elapsed":542680,"internal_node_id":"0.0-4.0-2.0","task_version":"0.2"},{"view_history":"[{\"page_index\":0,\"viewing_time\":4249.364999999641},{\"page_index\":1,\"viewing_time\":1702.1949999998324},{\"page_index\":2,\"viewing_time\":1400.9850000002189},{\"page_index\":3,\"viewing_time\":2968.6049999999814}]","rt":10330.944999999716,"trial_type":"instructions","trial_index":7,"time_elapsed":553034,"internal_node_id":"0.0-4.0-3.0","task_version":"0.2"},{"responses":["true","false","true"],"num_errors":0,"rt":18126.76999999897,"trial_type":"horizons-comprehension","trial_index":8,"time_elapsed":571192,"internal_node_id":"0.0-4.0-4.0","task_version":"0.2"},{"trial_type":"call-function","trial_index":9,"time_elapsed":571238,"internal_node_id":"0.0-5.0","task_version":"0.2"},{"view_history":"[{\"page_index\":0,\"viewing_time\":2146.6799999998184},{\"page_index\":1,\"viewing_time\":1300.4949999995297}]","rt":3450.714999999036,"trial_type":"instructions","trial_index":10,"time_elapsed":574698,"internal_node_id":"0.0-6.0","task_version":"0.2"},{"response_times":[1607.0099999997765,952.3750000008149,473.5550000005169,488.5850000010105,695.6100000006845,401.71999999985565,421.6800000013318,508.50999999966007,491.5849999997299,466.21500000031665],"keys_pressed":["leftarrow","rightarrow","rightarrow","rightarrow","rightarrow","rightarrow","rightarrow","rightarrow","rightarrow","rightarrow"],"horizon":10,"forced_choices":["leftarrow","rightarrow","rightarrow","rightarrow"],"right_color":"lightblue","left_color":"orange","left_mu":60,"right_mu":80,"left_numbers":[64,74,62,66,54,66,54,51,63,58],"right_numbers":[72,69,92,86,76,76,81,88,84,61],"points_earned":777,"phase":"task","trial_type":"horizons-task","trial_index":11,"time_elapsed":582788,"internal_node_id":"0.0-7.0","task_version":"0.2"},{"response_times":[1314.165000001667,712.1349999997765,640.8199999986682,577.8650000010384,458.22500000032596,419.51999999943655,339.7000000005355,521.7449999999953,412.41999999876134,450.73000000044703],"keys_pressed":["leftarrow","rightarrow","leftarrow","rightarrow","rightarrow","rightarrow","rightarrow","rightarrow","rightarrow","rightarrow"],"horizon":10,"forced_choices":["leftarrow","rightarrow","leftarrow","rightarrow"],"right_color":"lightblue","left_color":"orange","left_mu":60,"right_mu":52,"left_numbers":[56,72,69,71,55,56,64,50,60,64],"right_numbers":[44,56,51,62,34,38,56,52,56,50],"points_earned":529,"phase":"task","trial_type":"horizons-task","trial_index":12,"time_elapsed":590171,"internal_node_id":"0.0-8.0","task_version":"0.2"},{"response_times":[763.5700000008801,566.1899999995949,788.1299999990733,547.8050000001676,948.449999999837],"keys_pressed":["rightarrow","rightarrow","leftarrow","rightarrow","rightarrow"],"horizon":5,"forced_choices":["rightarrow","rightarrow","leftarrow","rightarrow"],"right_color":"orange","left_color":"lightblue","left_mu":60,"right_mu":64,"left_numbers":[79,58,50,47,58],"right_numbers":[61,73,65,59,65],"points_earned":308,"phase":"task","trial_type":"horizons-task","trial_index":13,"time_elapsed":595365,"internal_node_id":"0.0-9.0","task_version":"0.2"},{"response_times":[838.640000000014,865.6149999988265,555.9100000008475,484.2349999998696,475.3899999996647],"keys_pressed":["leftarrow","rightarrow","leftarrow","rightarrow","leftarrow"],"horizon":5,"forced_choices":["leftarrow","rightarrow","leftarrow","rightarrow"],"right_color":"orange","left_color":"lightblue","left_mu":40,"right_mu":48,"left_numbers":[32,23,34,36,52],"right_numbers":[39,37,45,55,53],"points_earned":210,"phase":"task","trial_type":"horizons-task","trial_index":14,"time_elapsed":600103,"internal_node_id":"0.0-10.0","task_version":"0.2"},{"response_times":[696.4900000002235,438.1649999995716,535.8900000010617,534.0649999998277,595.9450000008801,469.52500000037253,406.76500000152737,355.9949999998789,456.06500000029337,349.900000001071],"keys_pressed":["leftarrow","leftarrow","rightarrow","rightarrow","leftarrow","leftarrow","leftarrow","leftarrow","leftarrow","leftarrow"],"horizon":10,"forced_choices":["leftarrow","leftarrow","rightarrow","rightarrow"],"right_color":"orange","left_color":"lightblue","left_mu":40,"right_mu":10,"left_numbers":[34,52,44,41,41,40,21,38,40,52],"right_numbers":[7,17,7,19,8,23,4,9,17,2],"points_earned":344,"phase":"task","trial_type":"horizons-task","trial_index":15,"time_elapsed":606468,"internal_node_id":"0.0-11.0","task_version":"0.2"},{"response_times":[1069.2799999996787,837.3799999989569,431.5999999998603,586.7600000001257,744.1999999991385,628.4299999988871,488.2550000002375,443.6850000001723,351.709999998915,472.2500000006985],"keys_pressed":["rightarrow","leftarrow","leftarrow","leftarrow","leftarrow","leftarrow","leftarrow","leftarrow","leftarrow","leftarrow"],"horizon":10,"forced_choices":["rightarrow","leftarrow","leftarrow","leftarrow"],"right_color":"orange","left_color":"lightblue","left_mu":40,"right_mu":10,"left_numbers":[34,37,43,36,45,37,47,42,32,44],"right_numbers":[20,0,14,0,7,11,22,21,1,12],"points_earned":383,"phase":"task","trial_type":"horizons-task","trial_index":16,"time_elapsed":614057,"internal_node_id":"0.0-12.0","task_version":"0.2"},{"response_times":[674.845000001369,700.8900000001304,640.4449999990175,514.1899999998277,687.0149999995483,434.7099999996135,459.00999999872874,521.8100000001723,602.5549999995856,470.195000001695],"keys_pressed":["leftarrow","rightarrow","rightarrow","rightarrow","leftarrow","leftarrow","leftarrow","leftarrow","leftarrow","leftarrow"],"horizon":10,"forced_choices":["leftarrow","rightarrow","rightarrow","rightarrow"],"right_color":"orange","left_color":"lightblue","left_mu":40,"right_mu":48,"left_numbers":[37,35,33,37,54,36,51,36,41,45],"right_numbers":[44,60,42,54,40,50,54,56,42,53],"points_earned":456,"phase":"task","trial_type":"horizons-task","trial_index":17,"time_elapsed":621281,"internal_node_id":"0.0-13.0","task_version":"0.2"},{"response_times":[1935.8400000000838,512.305000000284,636.7350000001024,695.9549999992596,1085.5900000005495,506.5799999992596,550.5250000006054,577.2849999994505,493.47499999939464,521.4500000001863],"keys_pressed":["rightarrow","rightarrow","leftarrow","rightarrow","leftarrow","leftarrow","leftarrow","leftarrow","leftarrow","leftarrow"],"horizon":10,"forced_choices":["rightarrow","rightarrow","leftarrow","rightarrow"],"right_color":"orange","left_color":"lightblue","left_mu":60,"right_mu":64,"left_numbers":[83,66,46,57,76,47,60,55,57,61],"right_numbers":[69,60,71,49,64,54,59,57,52,58],"points_earned":580,"phase":"task","trial_type":"horizons-task","trial_index":18,"time_elapsed":630314,"internal_node_id":"0.0-14.0","task_version":"0.2"},{"response_times":[1415.9399999990128,1027.5399999992223,536.2249999998603,629.7500000001164,1312.340000000433],"keys_pressed":["leftarrow","rightarrow","rightarrow","rightarrow","rightarrow"],"horizon":5,"forced_choices":["leftarrow","rightarrow","rightarrow","rightarrow"],"right_color":"lightblue","left_color":"orange","left_mu":60,"right_mu":80,"left_numbers":[81,50,63,55,54],"right_numbers":[74,74,78,72,81],"points_earned":386,"phase":"task","trial_type":"horizons-task","trial_index":19,"time_elapsed":636779,"internal_node_id":"0.0-15.0","task_version":"0.2"},{"response_times":[805.4099999989849,510.25000000116415,640.6849999985425,480.8800000010524,574.7849999989849],"keys_pressed":["leftarrow","leftarrow","rightarrow","rightarrow","leftarrow"],"horizon":5,"forced_choices":["leftarrow","leftarrow","rightarrow","rightarrow"],"right_color":"orange","left_color":"lightblue","left_mu":60,"right_mu":64,"left_numbers":[67,60,67,56,55],"right_numbers":[70,74,64,64,73],"points_earned":310,"phase":"task","trial_type":"horizons-task","trial_index":20,"time_elapsed":641466,"internal_node_id":"0.0-16.0","task_version":"0.2"},{"response_times":[962.0800000011222,576.1199999996461,673.5800000005402,520.1899999992456,687.074999999837,668.7249999996275,490.0000000016298,448.52499999967404,429.7349999996368,421.50000000034925],"keys_pressed":["rightarrow","rightarrow","leftarrow","leftarrow","leftarrow","leftarrow","leftarrow","leftarrow","leftarrow","leftarrow"],"horizon":10,"forced_choices":["rightarrow","rightarrow","leftarrow","leftarrow"],"right_color":"orange","left_color":"lightblue","left_mu":40,"right_mu":70,"left_numbers":[40,39,42,33,52,49,38,33,36,30],"right_numbers":[67,74,75,78,56,62,70,57,73,69],"points_earned":454,"phase":"task","trial_type":"horizons-task","trial_index":21,"time_elapsed":648855,"internal_node_id":"0.0-17.0","task_version":"0.2"},{"response_times":[957.089999999851,543.3850000008242,674.3349999996135,562.3350000005448,488.4950000013923],"keys_pressed":["rightarrow","rightarrow","rightarrow","leftarrow","leftarrow"],"horizon":5,"forced_choices":["rightarrow","rightarrow","rightarrow","leftarrow"],"right_color":"orange","left_color":"lightblue","left_mu":60,"right_mu":72,"left_numbers":[59,50,68,61,59],"right_numbers":[68,61,67,61,81],"points_earned":316,"phase":"task","trial_type":"horizons-task","trial_index":22,"time_elapsed":653635,"internal_node_id":"0.0-18.0","task_version":"0.2"},{"response_times":[752.3750000001164,491.660000001546,814.56499999878,629.5050000008196,584.9099999995669],"keys_pressed":["leftarrow","leftarrow","rightarrow","leftarrow","leftarrow"],"horizon":5,"forced_choices":["leftarrow","leftarrow","rightarrow","leftarrow"],"right_color":"orange","left_color":"lightblue","left_mu":60,"right_mu":90,"left_numbers":[71,66,60,53,66],"right_numbers":[96,82,88,93,77],"points_earned":344,"phase":"task","trial_type":"horizons-task","trial_index":23,"time_elapsed":658440,"internal_node_id":"0.0-19.0","task_version":"0.2"},{"response_times":[838.7299999995157,520.9599999997299,727.6149999998743,685.5450000002747,694.2950000010896,545.6799999992363,513.1799999999348,686.3799999991897,631.4550000006566,431.34499999904074],"keys_pressed":["leftarrow","leftarrow","rightarrow","leftarrow","leftarrow","leftarrow","leftarrow","leftarrow","leftarrow","leftarrow"],"horizon":10,"forced_choices":["leftarrow","leftarrow","rightarrow","leftarrow"],"right_color":"orange","left_color":"lightblue","left_mu":40,"right_mu":60,"left_numbers":[39,45,44,39,49,45,29,51,40,44],"right_numbers":[59,56,50,68,57,55,59,62,56,57],"points_earned":431,"phase":"task","trial_type":"horizons-task","trial_index":24,"time_elapsed":666229,"internal_node_id":"0.0-20.0","task_version":"0.2"},{"response_times":[837.52000000095,508.09499999927357,599.4049999989802,664.1249999993015,464.54000000085216],"keys_pressed":["rightarrow","rightarrow","leftarrow","rightarrow","rightarrow"],"horizon":5,"forced_choices":["rightarrow","rightarrow","leftarrow","rightarrow"],"right_color":"lightblue","left_color":"orange","left_mu":40,"right_mu":32,"left_numbers":[36,41,40,43,43],"right_numbers":[45,36,38,26,14],"points_earned":161,"phase":"task","trial_type":"horizons-task","trial_index":25,"time_elapsed":670859,"internal_node_id":"0.0-21.0","task_version":"0.2"},{"response_times":[740.9299999999348,517.2099999999627,570.4349999997066,516.9200000000419,642.3150000009919],"keys_pressed":["leftarrow","rightarrow","leftarrow","rightarrow","leftarrow"],"horizon":5,"forced_choices":["leftarrow","rightarrow","leftarrow","rightarrow"],"right_color":"lightblue","left_color":"orange","left_mu":60,"right_mu":52,"left_numbers":[55,53,62,54,86],"right_numbers":[56,31,49,55,55],"points_earned":289,"phase":"task","trial_type":"horizons-task","trial_index":26,"time_elapsed":675373,"internal_node_id":"0.0-22.0","task_version":"0.2"},{"response_times":[1038.319999999716,578.3950000004843,602.0700000007637,434.0950000004377,641.6600000010803],"keys_pressed":["rightarrow","leftarrow","leftarrow","leftarrow","rightarrow"],"horizon":5,"forced_choices":["rightarrow","leftarrow","leftarrow","leftarrow"],"right_color":"orange","left_color":"lightblue","left_mu":40,"right_mu":70,"left_numbers":[23,40,37,39,42],"right_numbers":[77,67,76,93,68],"points_earned":261,"phase":"task","trial_type":"horizons-task","trial_index":27,"time_elapsed":680185,"internal_node_id":"0.0-23.0","task_version":"0.2"},{"response_times":[704.4949999999953,505.27999999932945,492.14500000013504,488.26499999989755,543.504999999539,513.7100000011269,408.76000000024214,414.61499999964144,549.5899999986868,412.9350000002887],"keys_pressed":["rightarrow","rightarrow","leftarrow","rightarrow","leftarrow","leftarrow","leftarrow","leftarrow","leftarrow","leftarrow"],"horizon":10,"forced_choices":["rightarrow","rightarrow","leftarrow","rightarrow"],"right_color":"lightblue","left_color":"orange","left_mu":40,"right_mu":32,"left_numbers":[45,42,25,25,43,39,44,44,33,48],"right_numbers":[23,40,26,29,43,34,35,20,27,34],"points_earned":368,"phase":"task","trial_type":"horizons-task","trial_index":28,"time_elapsed":686733,"internal_node_id":"0.0-24.0","task_version":"0.2"},{"response_times":[1027.795000000042,471.10500000056345,806.359999998589,569.42500000156,826.0599999993574,435.9800000002142,468.6650000003865,433.3499999992782,371.7799999995623,463.2500000006985],"keys_pressed":["rightarrow","leftarrow","rightarrow","rightarrow","leftarrow","leftarrow","leftarrow","leftarrow","leftarrow","leftarrow"],"horizon":10,"forced_choices":["rightarrow","leftarrow","rightarrow","rightarrow"],"right_color":"orange","left_color":"lightblue","left_mu":40,"right_mu":52,"left_numbers":[34,30,48,37,28,30,30,46,49,36],"right_numbers":[66,48,45,45,62,61,54,57,34,42],"points_earned":405,"phase":"task","trial_type":"horizons-task","trial_index":29,"time_elapsed":694126,"internal_node_id":"0.0-25.0","task_version":"0.2"},{"response_times":[784.835000000312,756.2049999996088,559.5750000011176,749.7949999996927,561.4800000003306],"keys_pressed":["leftarrow","rightarrow","leftarrow","rightarrow","leftarrow"],"horizon":5,"forced_choices":["leftarrow","rightarrow","leftarrow","rightarrow"],"right_color":"orange","left_color":"lightblue","left_mu":40,"right_mu":60,"left_numbers":[56,35,34,37,37],"right_numbers":[53,61,54,64,70],"points_earned":252,"phase":"task","trial_type":"horizons-task","trial_index":30,"time_elapsed":699057,"internal_node_id":"0.0-26.0","task_version":"0.2"},{"response_times":[969.774999999674,596.475000000326,1073.3300000011222,528.544999999227,568.0050000010524,781.2899999989895,873.475000000326,931.225000000326,501.76000000105705,699.349999998929],"keys_pressed":["rightarrow","leftarrow","leftarrow","leftarrow","leftarrow","rightarrow","rightarrow","rightarrow","rightarrow","rightarrow"],"horizon":10,"forced_choices":["rightarrow","leftarrow","leftarrow","leftarrow"],"right_color":"orange","left_color":"lightblue","left_mu":40,"right_mu":70,"left_numbers":[36,49,43,45,31,42,26,42,41,35],"right_numbers":[72,69,78,66,67,68,64,67,81,54],"points_earned":574,"phase":"task","trial_type":"horizons-task","trial_index":31,"time_elapsed":708106,"internal_node_id":"0.0-27.0","task_version":"0.2"},{"response_times":[981.1900000004098,553.2099999999627,1088.2350000010338,1062.2849999999162,576.4100000014296],"keys_pressed":["rightarrow","leftarrow","rightarrow","leftarrow","leftarrow"],"horizon":5,"forced_choices":["rightarrow","leftarrow","rightarrow","leftarrow"],"right_color":"lightblue","left_color":"orange","left_mu":40,"right_mu":20,"left_numbers":[37,39,30,33,32],"right_numbers":[19,21,19,18,17],"points_earned":142,"phase":"task","trial_type":"horizons-task","trial_index":32,"time_elapsed":713883,"internal_node_id":"0.0-28.0","task_version":"0.2"},{"response_times":[987.5450000000419,1054.995000000461,1280.0549999993527,1062.374999999418,779.4649999996182],"keys_pressed":["rightarrow","leftarrow","rightarrow","leftarrow","rightarrow"],"horizon":5,"forced_choices":["rightarrow","leftarrow","rightarrow","leftarrow"],"right_color":"lightblue","left_color":"orange","left_mu":60,"right_mu":80,"left_numbers":[54,67,69,59,63],"right_numbers":[77,72,82,82,92],"points_earned":377,"phase":"task","trial_type":"horizons-task","trial_index":33,"time_elapsed":720565,"internal_node_id":"0.0-29.0","task_version":"0.2"},{"response_times":[1221.6850000004051,887.1600000002654,1590.2249999998603,923.2050000008894,731.480000000447,992.4149999987567,1354.2549999983748,805.1050000012619,669.2899999999208,642.2450000009267],"keys_pressed":["rightarrow","leftarrow","leftarrow","leftarrow","leftarrow","leftarrow","leftarrow","leftarrow","leftarrow","leftarrow"],"horizon":10,"forced_choices":["rightarrow","leftarrow","leftarrow","leftarrow"],"right_color":"lightblue","left_color":"orange","left_mu":60,"right_mu":52,"left_numbers":[63,59,59,55,66,58,58,49,75,62],"right_numbers":[52,42,59,53,63,52,54,49,54,58],"points_earned":593,"phase":"task","trial_type":"horizons-task","trial_index":34,"time_elapsed":731961,"internal_node_id":"0.0-30.0","task_version":"0.2"},{"response_times":[896.3449999992736,742.0750000000698,750.5099999997765,618.8750000001164,885.0199999997858,805.0100000001257,1003.8399999993853,1137.4100000011967,1002.1350000005914,745.8499999992782],"keys_pressed":["leftarrow","rightarrow","leftarrow","rightarrow","rightarrow","rightarrow","rightarrow","leftarrow","rightarrow","rightarrow"],"horizon":10,"forced_choices":["leftarrow","rightarrow","leftarrow","rightarrow"],"right_color":"orange","left_color":"lightblue","left_mu":40,"right_mu":48,"left_numbers":[21,43,46,32,43,28,13,32,22,36],"right_numbers":[46,43,46,63,42,45,43,40,50,47],"points_earned":432,"phase":"task","trial_type":"horizons-task","trial_index":35,"time_elapsed":742073,"internal_node_id":"0.0-31.0","task_version":"0.2"},{"response_times":[985.650000000489,597.9250000000466,1494.5500000012107,1449.670000000042,983.9350000001723],"keys_pressed":["leftarrow","rightarrow","rightarrow","leftarrow","leftarrow"],"horizon":5,"forced_choices":["leftarrow","rightarrow","rightarrow","leftarrow"],"right_color":"lightblue","left_color":"orange","left_mu":60,"right_mu":56,"left_numbers":[52,72,56,61,68],"right_numbers":[67,51,54,55,58],"points_earned":286,"phase":"task","trial_type":"horizons-task","trial_index":36,"time_elapsed":749112,"internal_node_id":"0.0-32.0","task_version":"0.2"},{"response_times":[1346.4600000006612,1101.2800000007264,1600.1949999991339,882.7650000003632,1326.3450000012526,751.3850000014063,570.3599999997532,668.9349999997066,733.5100000000093,452.98999999975786],"keys_pressed":["leftarrow","rightarrow","rightarrow","leftarrow","leftarrow","leftarrow","leftarrow","leftarrow","leftarrow","leftarrow"],"horizon":10,"forced_choices":["leftarrow","rightarrow","rightarrow","leftarrow"],"right_color":"orange","left_color":"lightblue","left_mu":60,"right_mu":48,"left_numbers":[64,58,51,53,53,59,50,64,68,63],"right_numbers":[48,50,43,57,54,51,45,57,40,28],"points_earned":567,"phase":"task","trial_type":"horizons-task","trial_index":37,"time_elapsed":760181,"internal_node_id":"0.0-33.0","task_version":"0.2"},{"response_times":[1169.234999999404,808.895000000135,1177.0899999991525,705.3700000015087,1054.5400000009686],"keys_pressed":["leftarrow","rightarrow","rightarrow","leftarrow","leftarrow"],"horizon":5,"forced_choices":["leftarrow","rightarrow","rightarrow","leftarrow"],"right_color":"orange","left_color":"lightblue","left_mu":60,"right_mu":48,"left_numbers":[61,56,49,55,66],"right_numbers":[46,55,43,40,55],"points_earned":280,"phase":"task","trial_type":"horizons-task","trial_index":38,"time_elapsed":766837,"internal_node_id":"0.0-34.0","task_version":"0.2"},{"response_times":[989.8749999993015,1229.074999999255,1675.0099999989616,877.2399999997579,616.6099999990547],"keys_pressed":["rightarrow","rightarrow","leftarrow","rightarrow","rightarrow"],"horizon":5,"forced_choices":["rightarrow","rightarrow","leftarrow","rightarrow"],"right_color":"lightblue","left_color":"orange","left_mu":40,"right_mu":44,"left_numbers":[37,32,43,35,45],"right_numbers":[32,60,44,38,41],"points_earned":214,"phase":"task","trial_type":"horizons-task","trial_index":39,"time_elapsed":773764,"internal_node_id":"0.0-35.0","task_version":"0.2"},{"response_times":[1100.9900000008056,960.6050000002142,759.519999999553,919.0200000011828,899.1500000011874],"keys_pressed":["leftarrow","leftarrow","rightarrow","leftarrow","leftarrow"],"horizon":5,"forced_choices":["leftarrow","leftarrow","rightarrow","leftarrow"],"right_color":"lightblue","left_color":"orange","left_mu":60,"right_mu":40,"left_numbers":[67,64,45,71,68],"right_numbers":[34,34,48,35,38],"points_earned":318,"phase":"task","trial_type":"horizons-task","trial_index":40,"time_elapsed":779917,"internal_node_id":"0.0-36.0","task_version":"0.2"},{"response_times":[799.6449999990873,1565.705000000773,1652.3400000005495,916.4700000000885,1197.959999999497],"keys_pressed":["rightarrow","rightarrow","leftarrow","leftarrow","leftarrow"],"horizon":5,"forced_choices":["rightarrow","rightarrow","leftarrow","leftarrow"],"right_color":"lightblue","left_color":"orange","left_mu":40,"right_mu":36,"left_numbers":[34,40,43,39,33],"right_numbers":[42,25,39,27,37],"points_earned":182,"phase":"task","trial_type":"horizons-task","trial_index":41,"time_elapsed":787567,"internal_node_id":"0.0-37.0","task_version":"0.2"},{"response_times":[798.4799999993993,620.0800000006566,1553.6749999992317,1789.114999999525,1504.1149999997579],"keys_pressed":["leftarrow","leftarrow","rightarrow","leftarrow","rightarrow"],"horizon":5,"forced_choices":["leftarrow","leftarrow","rightarrow","leftarrow"],"right_color":"orange","left_color":"lightblue","left_mu":40,"right_mu":60,"left_numbers":[39,33,46,46,35],"right_numbers":[51,62,65,69,74],"points_earned":257,"phase":"task","trial_type":"horizons-task","trial_index":42,"time_elapsed":795357,"internal_node_id":"0.0-38.0","task_version":"0.2"},{"response_times":[1064.609999999404,1367.6799999993527,596.9199999999255,1248.540000000503,1395.0949999998556],"keys_pressed":["leftarrow","leftarrow","leftarrow","rightarrow","leftarrow"],"horizon":5,"forced_choices":["leftarrow","leftarrow","leftarrow","rightarrow"],"right_color":"lightblue","left_color":"orange","left_mu":40,"right_mu":20,"left_numbers":[49,44,42,51,49],"right_numbers":[33,15,36,16,22],"points_earned":200,"phase":"task","trial_type":"horizons-task","trial_index":43,"time_elapsed":802541,"internal_node_id":"0.0-39.0","task_version":"0.2"},{"response_times":[883.4150000002701,557.815000000177,1750.8249999991385,2615.4349999997066,673.2900000006193],"keys_pressed":["leftarrow","rightarrow","leftarrow","leftarrow","leftarrow"],"horizon":5,"forced_choices":["leftarrow","rightarrow","leftarrow","leftarrow"],"right_color":"lightblue","left_color":"orange","left_mu":40,"right_mu":28,"left_numbers":[39,49,42,51,48],"right_numbers":[37,30,32,40,35],"points_earned":210,"phase":"task","trial_type":"horizons-task","trial_index":44,"time_elapsed":810536,"internal_node_id":"0.0-40.0","task_version":"0.2"},{"response_times":[1031.0950000003213,618.7850000006147,1067.1099999998696,633.120000000461,620.3199999999488,757.9249999998137,574.2749999989755,662.8799999998882,548.1650000002701,645.725000000326],"keys_pressed":["leftarrow","rightarrow","rightarrow","leftarrow","leftarrow","leftarrow","leftarrow","leftarrow","leftarrow","leftarrow"],"horizon":10,"forced_choices":["leftarrow","rightarrow","rightarrow","leftarrow"],"right_color":"lightblue","left_color":"orange","left_mu":60,"right_mu":56,"left_numbers":[61,56,62,70,44,51,57,55,64,64],"right_numbers":[42,37,45,65,59,53,65,66,42,55],"points_earned":548,"phase":"task","trial_type":"horizons-task","trial_index":45,"time_elapsed":819209,"internal_node_id":"0.0-41.0","task_version":"0.2"},{"response_times":[781.9249999993481,680.8149999997113,1742.0699999984354,813.6999999987893,1743.8700000002282,521.6450000007171,401.3599999997532,410.03499999898486,329.714999999851,324.74999999976717],"keys_pressed":["rightarrow","leftarrow","leftarrow","rightarrow","leftarrow","leftarrow","leftarrow","leftarrow","leftarrow","leftarrow"],"horizon":10,"forced_choices":["rightarrow","leftarrow","leftarrow","rightarrow"],"right_color":"lightblue","left_color":"orange","left_mu":60,"right_mu":68,"left_numbers":[59,61,54,65,57,53,66,42,62,60],"right_numbers":[60,79,52,51,59,56,94,67,79,65],"points_earned":566,"phase":"task","trial_type":"horizons-task","trial_index":46,"time_elapsed":828472,"internal_node_id":"0.0-42.0","task_version":"0.2"},{"response_times":[833.5100000003586,699.9050000013085,1141.5649999999441,961.71999999939,537.7099999986822],"keys_pressed":["rightarrow","leftarrow","rightarrow","rightarrow","leftarrow"],"horizon":5,"forced_choices":["rightarrow","leftarrow","rightarrow","rightarrow"],"right_color":"lightblue","left_color":"orange","left_mu":60,"right_mu":56,"left_numbers":[63,65,49,35,57],"right_numbers":[46,48,62,57,46],"points_earned":287,"phase":"task","trial_type":"horizons-task","trial_index":47,"time_elapsed":834158,"internal_node_id":"0.0-43.0","task_version":"0.2"},{"response_times":[1240.289999999688,552.7999999994645,752.9450000001816,732.4600000010105,2364.550000000163],"keys_pressed":["rightarrow","leftarrow","leftarrow","rightarrow","leftarrow"],"horizon":5,"forced_choices":["rightarrow","leftarrow","leftarrow","rightarrow"],"right_color":"lightblue","left_color":"orange","left_mu":40,"right_mu":32,"left_numbers":[35,53,34,42,56],"right_numbers":[30,41,24,36,30],"points_earned":209,"phase":"task","trial_type":"horizons-task","trial_index":48,"time_elapsed":841390,"internal_node_id":"0.0-44.0","task_version":"0.2"},{"response_times":[1076.800000000745,689.1599999999162,1706.3849999994272,824.1649999999208,686.0200000010664,605.900000000489,512.6099999997532,444.5299999988638,546.9300000004005,325.1899999995949],"keys_pressed":["leftarrow","rightarrow","leftarrow","rightarrow","rightarrow","rightarrow","rightarrow","rightarrow","rightarrow","rightarrow"],"horizon":10,"forced_choices":["leftarrow","rightarrow","leftarrow","rightarrow"],"right_color":"orange","left_color":"lightblue","left_mu":40,"right_mu":60,"left_numbers":[45,54,46,33,38,46,39,26,44,49],"right_numbers":[62,61,63,66,44,50,49,57,58,53],"points_earned":529,"phase":"task","trial_type":"horizons-task","trial_index":49,"time_elapsed":850688,"internal_node_id":"0.0-45.0","task_version":"0.2"},{"response_times":[878.935000000638,690.5949999999721,593.104999999865,534.5150000011781,985.5700000006473],"keys_pressed":["leftarrow","rightarrow","leftarrow","rightarrow","rightarrow"],"horizon":5,"forced_choices":["leftarrow","rightarrow","leftarrow","rightarrow"],"right_color":"orange","left_color":"lightblue","left_mu":60,"right_mu":30,"left_numbers":[57,55,58,60,81],"right_numbers":[26,36,39,34,35],"points_earned":220,"phase":"task","trial_type":"horizons-task","trial_index":50,"time_elapsed":855935,"internal_node_id":"0.0-46.0","task_version":"0.2"},{"view_history":"[{\"page_index\":0,\"viewing_time\":6126.8849999997765},{\"page_index\":1,\"viewing_time\":2183.6949999995995}]","rt":8313.16999999946,"trial_type":"instructions","trial_index":51,"time_elapsed":864255,"internal_node_id":"0.0-47.0","task_version":"0.2"},{"response_times":[2337.9000000003725,711.1949999998324,2061.4750000004424,1807.5649999991292,3465.795000000042,842.3650000004563,780.0499999994645,787.5100000001257,731.3499999999767,484.4900000008056],"keys_pressed":["leftarrow","leftarrow","rightarrow","leftarrow","rightarrow","rightarrow","rightarrow","rightarrow","rightarrow","rightarrow"],"horizon":10,"forced_choices":["leftarrow","leftarrow","rightarrow","leftarrow"],"right_color":"orange","left_color":"lightblue","left_mu":60,"right_mu":90,"left_numbers":[48,49,65,49,51,63,59,52,48,53],"right_numbers":[89,107,90,85,81,86,81,92,80,93],"points_earned":749,"phase":"task","trial_type":"horizons-task","trial_index":52,"time_elapsed":879833,"internal_node_id":"0.0-48.0","task_version":"0.2"},{"response_times":[1928.2800000001444,1316.7849999991013,1572.9900000006892,1288.0550000008661,942.4849999996368],"keys_pressed":["rightarrow","rightarrow","leftarrow","leftarrow","rightarrow"],"horizon":5,"forced_choices":["rightarrow","rightarrow","leftarrow","leftarrow"],"right_color":"orange","left_color":"lightblue","left_mu":40,"right_mu":70,"left_numbers":[44,35,53,49,45],"right_numbers":[57,70,68,88,80],"points_earned":309,"phase":"task","trial_type":"horizons-task","trial_index":53,"time_elapsed":888395,"internal_node_id":"0.0-49.0","task_version":"0.2"},{"response_times":[1522.9650000000838,1626.5100000001257,1549.619999999879,1743.505000000354,2589.430000000051,606.0849999993807,469.42000000120606,416.70499999960884,506.4149999998044,494.614999999525],"keys_pressed":["leftarrow","leftarrow","rightarrow","rightarrow","rightarrow","rightarrow","rightarrow","rightarrow","rightarrow","rightarrow"],"horizon":10,"forced_choices":["leftarrow","leftarrow","rightarrow","rightarrow"],"right_color":"lightblue","left_color":"orange","left_mu":40,"right_mu":44,"left_numbers":[42,33,34,30,43,40,44,47,34,40],"right_numbers":[30,48,44,37,36,49,38,29,25,18],"points_earned":351,"phase":"task","trial_type":"horizons-task","trial_index":54,"time_elapsed":901433,"internal_node_id":"0.0-50.0","task_version":"0.2"},{"response_times":[1775.920000000042,1490.3549999999814,926.125,8510.135000000475,10163.160000000033,744.9199999991106,674.4849999995204,859.7750000008382,524.2550000003539,459.65000000060536],"keys_pressed":["rightarrow","leftarrow","rightarrow","leftarrow","rightarrow","rightarrow","rightarrow","rightarrow","rightarrow","rightarrow"],"horizon":10,"forced_choices":["rightarrow","leftarrow","rightarrow","leftarrow"],"right_color":"lightblue","left_color":"orange","left_mu":60,"right_mu":80,"left_numbers":[53,62,53,52,64,64,48,59,45,64],"right_numbers":[73,91,75,93,78,83,75,82,75,84],"points_earned":739,"phase":"task","trial_type":"horizons-task","trial_index":55,"time_elapsed":929080,"internal_node_id":"0.0-51.0","task_version":"0.2"},{"response_times":[1428.2399999992922,952.2850000011967,1560.3350000001956,1025.1300000000047,3622.8100000007544,1796.9750000011409,793.3199999987846,636.9400000002934,710.5850000006612,471.02499999885913],"keys_pressed":["rightarrow","rightarrow","leftarrow","leftarrow","leftarrow","rightarrow","rightarrow","rightarrow","rightarrow","rightarrow"],"horizon":10,"forced_choices":["rightarrow","rightarrow","leftarrow","leftarrow"],"right_color":"lightblue","left_color":"orange","left_mu":40,"right_mu":36,"left_numbers":[24,43,20,45,39,35,35,37,34,35],"right_numbers":[31,40,38,36,43,40,34,27,34,57],"points_earned":367,"phase":"task","trial_type":"horizons-task","trial_index":56,"time_elapsed":943592,"internal_node_id":"0.0-52.0","task_version":"0.2"},{"response_times":[1113.715000001248,1130.8849999986123,1164.415000001085,1290.450000000419,2501.974999999162,396.6700000000419,384.78000000026077,279.3700000002282,303.1849999988917,433.03000000014435],"keys_pressed":["rightarrow","leftarrow","leftarrow","rightarrow","leftarrow","leftarrow","leftarrow","leftarrow","leftarrow","leftarrow"],"horizon":10,"forced_choices":["rightarrow","leftarrow","leftarrow","rightarrow"],"right_color":"lightblue","left_color":"orange","left_mu":40,"right_mu":32,"left_numbers":[49,37,45,39,46,34,36,48,45,42],"right_numbers":[24,18,27,36,32,40,36,36,36,18],"points_earned":393,"phase":"task","trial_type":"horizons-task","trial_index":57,"time_elapsed":954107,"internal_node_id":"0.0-53.0","task_version":"0.2"},{"response_times":[920.6850000009872,737.9049999999115,785.434999999823,1453.6100000004517,2287.4899999988265,340.7550000010524,325.65500000061,189.62000000092667,58.080000000773,686.4900000001071],"keys_pressed":["leftarrow","rightarrow","leftarrow","leftarrow","leftarrow","leftarrow","leftarrow","leftarrow","leftarrow","leftarrow"],"horizon":10,"forced_choices":["leftarrow","rightarrow","leftarrow","leftarrow"],"right_color":"lightblue","left_color":"orange","left_mu":40,"right_mu":28,"left_numbers":[41,41,36,47,40,46,41,47,50,38],"right_numbers":[32,41,34,42,17,36,36,31,37,28],"points_earned":427,"phase":"task","trial_type":"horizons-task","trial_index":58,"time_elapsed":963409,"internal_node_id":"0.0-54.0","task_version":"0.2"},{"response_times":[1521.415000001085,789.2400000001071,764.3900000002468,652.8949999992037,465.86000000021886],"keys_pressed":["rightarrow","leftarrow","rightarrow","rightarrow","rightarrow"],"horizon":5,"forced_choices":["rightarrow","leftarrow","rightarrow","rightarrow"],"right_color":"orange","left_color":"lightblue","left_mu":40,"right_mu":52,"left_numbers":[43,32,34,52,38],"right_numbers":[55,49,59,44,63],"points_earned":253,"phase":"task","trial_type":"horizons-task","trial_index":59,"time_elapsed":969114,"internal_node_id":"0.0-55.0","task_version":"0.2"},{"response_times":[1326.885000000475,942.9900000013877,1338.7499999989523,709.3399999995017,661.4349999999395,415.8299999998417,204.87500000128057,263.1299999994226,382.08499999926426,477.4550000001909],"keys_pressed":["rightarrow","leftarrow","rightarrow","leftarrow","leftarrow","leftarrow","leftarrow","leftarrow","leftarrow","leftarrow"],"horizon":10,"forced_choices":["rightarrow","leftarrow","rightarrow","leftarrow"],"right_color":"lightblue","left_color":"orange","left_mu":60,"right_mu":40,"left_numbers":[46,67,54,59,54,73,68,63,66,49],"right_numbers":[42,44,38,41,42,40,48,38,37,40],"points_earned":579,"phase":"task","trial_type":"horizons-task","trial_index":60,"time_elapsed":977421,"internal_node_id":"0.0-56.0","task_version":"0.2"},{"response_times":[1238.2400000005728,582.5850000000792,872.3300000000745,2408.644999999553,2004.9799999996321],"keys_pressed":["rightarrow","rightarrow","leftarrow","leftarrow","rightarrow"],"horizon":5,"forced_choices":["rightarrow","rightarrow","leftarrow","leftarrow"],"right_color":"orange","left_color":"lightblue","left_mu":40,"right_mu":52,"left_numbers":[42,53,44,35,40],"right_numbers":[42,46,49,36,48],"points_earned":215,"phase":"task","trial_type":"horizons-task","trial_index":61,"time_elapsed":986047,"internal_node_id":"0.0-57.0","task_version":"0.2"},{"response_times":[1042.455000000773,1015.7550000003539,716.8700000002282,1222.8849999991944,1236.3399999995017],"keys_pressed":["leftarrow","rightarrow","leftarrow","leftarrow","leftarrow"],"horizon":5,"forced_choices":["leftarrow","rightarrow","leftarrow","leftarrow"],"right_color":"orange","left_color":"lightblue","left_mu":60,"right_mu":48,"left_numbers":[53,55,57,62,73],"right_numbers":[51,56,37,52,57],"points_earned":301,"phase":"task","trial_type":"horizons-task","trial_index":62,"time_elapsed":992791,"internal_node_id":"0.0-58.0","task_version":"0.2"},{"response_times":[915.9199999994598,896.4699999996228,1696.8699999997625,763.2199999989243,418.0250000008382],"keys_pressed":["rightarrow","leftarrow","leftarrow","leftarrow","leftarrow"],"horizon":5,"forced_choices":["rightarrow","leftarrow","leftarrow","leftarrow"],"right_color":"orange","left_color":"lightblue","left_mu":40,"right_mu":10,"left_numbers":[39,35,39,22,38],"right_numbers":[9,0,9,6,17],"points_earned":143,"phase":"task","trial_type":"horizons-task","trial_index":63,"time_elapsed":999007,"internal_node_id":"0.0-59.0","task_version":"0.2"},{"response_times":[1112.0850000006612,2073.845000000787,924.2749999993248,751.3650000001071,1773.5149999989662],"keys_pressed":["rightarrow","leftarrow","leftarrow","rightarrow","leftarrow"],"horizon":5,"forced_choices":["rightarrow","leftarrow","leftarrow","rightarrow"],"right_color":"lightblue","left_color":"orange","left_mu":40,"right_mu":28,"left_numbers":[28,41,43,46,42],"right_numbers":[31,19,41,26,35],"points_earned":183,"phase":"task","trial_type":"horizons-task","trial_index":64,"time_elapsed":1007153,"internal_node_id":"0.0-60.0","task_version":"0.2"},{"response_times":[1007.2349999991711,1305.355000000447,662.2449999995297,571.2750000002561,627.4599999996135,662.4949999987148,494.6400000008289,514.4550000004238,447.95499999960884,382.6100000005681],"keys_pressed":["leftarrow","rightarrow","rightarrow","rightarrow","rightarrow","rightarrow","rightarrow","rightarrow","rightarrow","rightarrow"],"horizon":10,"forced_choices":["leftarrow","rightarrow","rightarrow","rightarrow"],"right_color":"lightblue","left_color":"orange","left_mu":60,"right_mu":68,"left_numbers":[51,60,47,58,44,61,58,63,56,63],"right_numbers":[74,82,71,71,55,63,66,69,61,51],"points_earned":640,"phase":"task","trial_type":"horizons-task","trial_index":65,"time_elapsed":1015441,"internal_node_id":"0.0-61.0","task_version":"0.2"},{"response_times":[968.6600000004983,1974.1049999992829,694.9300000014482,2213.089999999269,1517.754999998957],"keys_pressed":["rightarrow","leftarrow","leftarrow","rightarrow","rightarrow"],"horizon":5,"forced_choices":["rightarrow","leftarrow","leftarrow","rightarrow"],"right_color":"orange","left_color":"lightblue","left_mu":60,"right_mu":90,"left_numbers":[56,51,66,64,57],"right_numbers":[79,96,91,93,78],"points_earned":367,"phase":"task","trial_type":"horizons-task","trial_index":66,"time_elapsed":1024336,"internal_node_id":"0.0-62.0","task_version":"0.2"},{"response_times":[977.2699999994365,785.0149999995483,1552.3650000013877,873.6899999985471,1460.885000000475,4461.319999998435,1706.459999999497,562.2149999999674,635.9149999989895,569.7449999989476],"keys_pressed":["rightarrow","leftarrow","rightarrow","leftarrow","leftarrow","leftarrow","leftarrow","leftarrow","leftarrow","leftarrow"],"horizon":10,"forced_choices":["rightarrow","leftarrow","rightarrow","leftarrow"],"right_color":"lightblue","left_color":"orange","left_mu":40,"right_mu":20,"left_numbers":[46,46,38,27,22,24,42,43,34,39],"right_numbers":[29,22,15,20,21,24,6,27,24,24],"points_earned":321,"phase":"task","trial_type":"horizons-task","trial_index":67,"time_elapsed":1039436,"internal_node_id":"0.0-63.0","task_version":"0.2"},{"response_times":[1024.455000000773,2311.6749999988824,906.6199999996461,1253.6699999999255,1145.4700000011362,2498.2650000001304,1585.4450000005309,552.8599999996368,407.75000000023283,597.2899999998044],"keys_pressed":["leftarrow","leftarrow","leftarrow","rightarrow","rightarrow","rightarrow","leftarrow","leftarrow","leftarrow","leftarrow"],"horizon":10,"forced_choices":["leftarrow","leftarrow","leftarrow","rightarrow"],"right_color":"lightblue","left_color":"orange","left_mu":40,"right_mu":20,"left_numbers":[60,33,32,47,49,33,32,48,50,34],"right_numbers":[21,24,37,22,24,20,12,29,27,15],"points_earned":355,"phase":"task","trial_type":"horizons-task","trial_index":68,"time_elapsed":1053272,"internal_node_id":"0.0-64.0","task_version":"0.2"},{"response_times":[1018.5399999991059,596.1099999987055,1218.0000000006985,607.3699999996461,1066.7250000005588,422.304999998305,451.68499999982305,380.86499999905936,315.114999999525,361.13500000094064],"keys_pressed":["leftarrow","rightarrow","rightarrow","leftarrow","rightarrow","rightarrow","rightarrow","rightarrow","rightarrow","rightarrow"],"horizon":10,"forced_choices":["leftarrow","rightarrow","rightarrow","leftarrow"],"right_color":"orange","left_color":"lightblue","left_mu":60,"right_mu":72,"left_numbers":[69,52,53,66,53,70,67,59,75,47],"right_numbers":[79,75,60,70,67,79,82,78,69,79],"points_earned":724,"phase":"task","trial_type":"horizons-task","trial_index":69,"time_elapsed":1061225,"internal_node_id":"0.0-65.0","task_version":"0.2"},{"response_times":[1299.8600000010338,1089.9649999991525,2193.0050000010524,1224.0499999991152,976.3049999999348],"keys_pressed":["leftarrow","rightarrow","rightarrow","leftarrow","rightarrow"],"horizon":5,"forced_choices":["leftarrow","rightarrow","rightarrow","leftarrow"],"right_color":"orange","left_color":"lightblue","left_mu":60,"right_mu":72,"left_numbers":[51,53,60,47,50],"right_numbers":[76,80,71,68,64],"points_earned":313,"phase":"task","trial_type":"horizons-task","trial_index":70,"time_elapsed":1069541,"internal_node_id":"0.0-66.0","task_version":"0.2"},{"response_times":[935.4450000009965,1188.0049999998882,847.429999999702,677.260000000475,2480.9899999999907,464.0350000008475,301.7799999997951,281.4999999990687,260.2349999996368,471.96000000066124],"keys_pressed":["leftarrow","rightarrow","leftarrow","rightarrow","leftarrow","leftarrow","leftarrow","leftarrow","leftarrow","leftarrow"],"horizon":10,"forced_choices":["leftarrow","rightarrow","leftarrow","rightarrow"],"right_color":"orange","left_color":"lightblue","left_mu":60,"right_mu":30,"left_numbers":[66,64,49,55,66,53,43,62,73,75],"right_numbers":[34,22,19,36,29,21,33,39,22,28],"points_earned":545,"phase":"task","trial_type":"horizons-task","trial_index":71,"time_elapsed":1079086,"internal_node_id":"0.0-67.0","task_version":"0.2"},{"response_times":[783.7249999993946,532.204999999376,808.6399999991991,1361.6799999999348,1689.7299999999814],"keys_pressed":["leftarrow","rightarrow","rightarrow","rightarrow","rightarrow"],"horizon":5,"forced_choices":["leftarrow","rightarrow","rightarrow","rightarrow"],"right_color":"orange","left_color":"lightblue","left_mu":40,"right_mu":48,"left_numbers":[41,31,31,47,32],"right_numbers":[42,54,37,47,40],"points_earned":219,"phase":"task","trial_type":"horizons-task","trial_index":72,"time_elapsed":1085918,"internal_node_id":"0.0-68.0","task_version":"0.2"},{"response_times":[875.4049999988638,837.4749999984633,1512.510000000475,873.9499999992549,4738.780000001658,3259.739999999525,907.274999999674,221.14499999955297,654.6749999998137,702.7499999983702],"keys_pressed":["leftarrow","leftarrow","rightarrow","rightarrow","leftarrow","leftarrow","leftarrow","leftarrow","leftarrow","leftarrow"],"horizon":10,"forced_choices":["leftarrow","leftarrow","rightarrow","rightarrow"],"right_color":"orange","left_color":"lightblue","left_mu":60,"right_mu":64,"left_numbers":[62,58,68,62,64,65,55,71,74,63],"right_numbers":[70,70,60,57,71,84,59,61,72,51],"points_earned":629,"phase":"task","trial_type":"horizons-task","trial_index":73,"time_elapsed":1102025,"internal_node_id":"0.0-69.0","task_version":"0.2"},{"response_times":[864.904999998631,1147.0999999982305,1107.6799999992363,1663.6400000008289,2269.9499999997206,492.875,642.4699999988079,330.590000001248,290.87499999883585,321.61499999882653],"keys_pressed":["leftarrow","leftarrow","leftarrow","rightarrow","leftarrow","leftarrow","leftarrow","leftarrow","leftarrow","leftarrow"],"horizon":10,"forced_choices":["leftarrow","leftarrow","leftarrow","rightarrow"],"right_color":"lightblue","left_color":"orange","left_mu":40,"right_mu":36,"left_numbers":[36,39,43,27,37,39,36,43,40,35],"right_numbers":[43,41,32,23,39,29,37,33,25,27],"points_earned":371,"phase":"task","trial_type":"horizons-task","trial_index":74,"time_elapsed":1112675,"internal_node_id":"0.0-70.0","task_version":"0.2"},{"response_times":[839.6949999986682,551.7799999997951,792.5549999999348,590.3449999985751,626.4300000004005],"keys_pressed":["leftarrow","rightarrow","rightarrow","rightarrow","rightarrow"],"horizon":5,"forced_choices":["leftarrow","rightarrow","rightarrow","rightarrow"],"right_color":"lightblue","left_color":"orange","left_mu":60,"right_mu":68,"left_numbers":[59,66,76,55,61],"right_numbers":[70,76,76,66,70],"points_earned":347,"phase":"task","trial_type":"horizons-task","trial_index":75,"time_elapsed":1117634,"internal_node_id":"0.0-71.0","task_version":"0.2"},{"response_times":[929.1549999997951,703.0099999993108,726.0449999994598,685.6700000008568,2895.214999998687,16854.96500000055,1818.9750000000931,1747.5499999998137,291.8450000016019,224.89000000129454],"keys_pressed":["rightarrow","leftarrow","leftarrow","rightarrow","leftarrow","leftarrow","leftarrow","leftarrow","leftarrow","leftarrow"],"horizon":10,"forced_choices":["rightarrow","leftarrow","leftarrow","rightarrow"],"right_color":"lightblue","left_color":"orange","left_mu":40,"right_mu":28,"left_numbers":[28,44,55,46,42,52,27,46,43,49],"right_numbers":[33,39,26,32,26,23,19,26,17,19],"points_earned":423,"phase":"task","trial_type":"horizons-task","trial_index":76,"time_elapsed":1146049,"internal_node_id":"0.0-72.0","task_version":"0.2"},{"response_times":[1136.6100000012666,14980.630000000121,868.8100000000559,1234.7549999994226,2696.4499999994878,838.5550000001676,390.29500000108965,326.11499999975786,351.3450000011362,315.77000000094995],"keys_pressed":["rightarrow","rightarrow","rightarrow","leftarrow","leftarrow","leftarrow","leftarrow","leftarrow","leftarrow","leftarrow"],"horizon":10,"forced_choices":["rightarrow","rightarrow","rightarrow","leftarrow"],"right_color":"orange","left_color":"lightblue","left_mu":60,"right_mu":30,"left_numbers":[52,68,62,58,64,72,63,50,63,57],"right_numbers":[23,52,19,45,29,26,17,36,4,25],"points_earned":521,"phase":"task","trial_type":"horizons-task","trial_index":77,"time_elapsed":1170709,"internal_node_id":"0.0-73.0","task_version":"0.2"},{"response_times":[5745.469999999739,7708.6049999997485,3427.125000000233,1646.6449999988545,1991.5299999993294,1067.3550000009127,714.1949999986682,460.67000000039116,660.2800000000279,411.7349999996368],"keys_pressed":["leftarrow","leftarrow","rightarrow","leftarrow","leftarrow","leftarrow","leftarrow","leftarrow","leftarrow","leftarrow"],"horizon":10,"forced_choices":["leftarrow","leftarrow","rightarrow","leftarrow"],"right_color":"lightblue","left_color":"orange","left_mu":60,"right_mu":40,"left_numbers":[50,45,74,63,59,66,76,75,58,74],"right_numbers":[45,44,47,30,28,38,48,58,36,30],"points_earned":613,"phase":"task","trial_type":"horizons-task","trial_index":78,"time_elapsed":1196207,"internal_node_id":"0.0-74.0","task_version":"0.2"},{"response_times":[876.2050000005402,926.955000000773,929.9350000000559,877.6500000003725,295.3999999992084],"keys_pressed":["rightarrow","leftarrow","leftarrow","leftarrow","leftarrow"],"horizon":5,"forced_choices":["rightarrow","leftarrow","leftarrow","leftarrow"],"right_color":"lightblue","left_color":"orange","left_mu":60,"right_mu":52,"left_numbers":[54,70,61,55,58],"right_numbers":[42,35,55,48,48],"points_earned":286,"phase":"task","trial_type":"horizons-task","trial_index":79,"time_elapsed":1201627,"internal_node_id":"0.0-75.0","task_version":"0.2"},{"response_times":[724.6450000002515,690.8800000001211,538.3950000014156,15071.180000000866,1487.5599999995902],"keys_pressed":["rightarrow","rightarrow","rightarrow","leftarrow","leftarrow"],"horizon":5,"forced_choices":["rightarrow","rightarrow","rightarrow","leftarrow"],"right_color":"orange","left_color":"lightblue","left_mu":60,"right_mu":30,"left_numbers":[58,59,69,58,73],"right_numbers":[21,10,12,46,40],"points_earned":174,"phase":"task","trial_type":"horizons-task","trial_index":80,"time_elapsed":1221687,"internal_node_id":"0.0-76.0","task_version":"0.2"},{"response_times":[975.2299999999814,504.32499999995343,1002.8550000006799,1039.0099999986123,3215.9700000009034],"keys_pressed":["leftarrow","leftarrow","rightarrow","rightarrow","leftarrow"],"horizon":5,"forced_choices":["leftarrow","leftarrow","rightarrow","rightarrow"],"right_color":"orange","left_color":"lightblue","left_mu":40,"right_mu":10,"left_numbers":[34,48,36,36,41],"right_numbers":[6,0,6,11,4],"points_earned":140,"phase":"task","trial_type":"horizons-task","trial_index":81,"time_elapsed":1229947,"internal_node_id":"0.0-77.0","task_version":"0.2"},{"response_times":[1017.9799999988172,612.9949999996461,626.3600000001024,677.9649999989197,1665.095000000205,646.3949999997858,544.1000000010245,564.0050000003539,475.8000000002794,698.0100000000093],"keys_pressed":["rightarrow","leftarrow","leftarrow","rightarrow","rightarrow","rightarrow","rightarrow","rightarrow","rightarrow","rightarrow"],"horizon":10,"forced_choices":["rightarrow","leftarrow","leftarrow","rightarrow"],"right_color":"orange","left_color":"lightblue","left_mu":60,"right_mu":90,"left_numbers":[56,48,50,61,80,67,58,72,69,75],"right_numbers":[74,89,83,87,83,89,95,79,100,101],"points_earned":806,"phase":"task","trial_type":"horizons-task","trial_index":82,"time_elapsed":1238995,"internal_node_id":"0.0-78.0","task_version":"0.2"},{"response_times":[1104.1000000005588,518.1250000006985,1068.1850000002887,1698.2550000012852,1408.670000000624],"keys_pressed":["rightarrow","leftarrow","rightarrow","leftarrow","leftarrow"],"horizon":5,"forced_choices":["rightarrow","leftarrow","rightarrow","leftarrow"],"right_color":"lightblue","left_color":"orange","left_mu":60,"right_mu":40,"left_numbers":[46,43,58,62,56],"right_numbers":[36,39,28,36,47],"points_earned":225,"phase":"task","trial_type":"horizons-task","trial_index":83,"time_elapsed":1246305,"internal_node_id":"0.0-79.0","task_version":"0.2"},{"response_times":[866.5049999998882,619.3249999997206,617.855000000447,874.3950000007171,2261.4150000007357,499.83500000066124,739.5250000008382,416.6899999999441,522.3850000002421,494.5399999995716],"keys_pressed":["rightarrow","rightarrow","leftarrow","leftarrow","rightarrow","rightarrow","rightarrow","rightarrow","rightarrow","rightarrow"],"horizon":10,"forced_choices":["rightarrow","rightarrow","leftarrow","leftarrow"],"right_color":"orange","left_color":"lightblue","left_mu":40,"right_mu":52,"left_numbers":[47,36,25,40,35,38,48,39,39,38],"right_numbers":[58,46,68,68,41,57,61,53,62,54],"points_earned":497,"phase":"task","trial_type":"horizons-task","trial_index":84,"time_elapsed":1255733,"internal_node_id":"0.0-80.0","task_version":"0.2"},{"response_times":[847.5749999997206,639.3750000006985,572.0800000017043,10436.064999999711,1907.4550000005402,425.2450000003446,436.2999999993481,411.5199999997858,236.28499999898486,470.2699999997858],"keys_pressed":["rightarrow","rightarrow","leftarrow","rightarrow","rightarrow","rightarrow","rightarrow","rightarrow","rightarrow","rightarrow"],"horizon":10,"forced_choices":["rightarrow","rightarrow","leftarrow","rightarrow"],"right_color":"lightblue","left_color":"orange","left_mu":40,"right_mu":44,"left_numbers":[59,54,31,42,48,43,28,37,26,48],"right_numbers":[43,60,26,38,61,37,38,54,52,27],"points_earned":441,"phase":"task","trial_type":"horizons-task","trial_index":85,"time_elapsed":1273652,"internal_node_id":"0.0-81.0","task_version":"0.2"},{"response_times":[678.3500000000931,620.600000000326,490.6300000003539,1252.5249999999069,1913.2750000008382,790.0949999985751,295.3200000009965,316.84499999927357,293.1900000004098,687.3200000009965],"keys_pressed":["rightarrow","rightarrow","rightarrow","leftarrow","rightarrow","rightarrow","rightarrow","rightarrow","rightarrow","rightarrow"],"horizon":10,"forced_choices":["rightarrow","rightarrow","rightarrow","leftarrow"],"right_color":"orange","left_color":"lightblue","left_mu":60,"right_mu":72,"left_numbers":[53,55,75,54,74,58,63,61,48,46],"right_numbers":[54,62,71,84,63,70,51,75,83,78],"points_earned":661,"phase":"task","trial_type":"horizons-task","trial_index":86,"time_elapsed":1282622,"internal_node_id":"0.0-82.0","task_version":"0.2"},{"response_times":[1399.5249999987427,1029.2549999994226,1766.9399999994785,1405.2800000009593,1714.675000000978],"keys_pressed":["leftarrow","leftarrow","leftarrow","rightarrow","leftarrow"],"horizon":5,"forced_choices":["leftarrow","leftarrow","leftarrow","rightarrow"],"right_color":"lightblue","left_color":"orange","left_mu":40,"right_mu":36,"left_numbers":[36,42,34,41,36],"right_numbers":[45,33,32,31,48],"points_earned":179,"phase":"task","trial_type":"horizons-task","trial_index":87,"time_elapsed":1291469,"internal_node_id":"0.0-83.0","task_version":"0.2"},{"response_times":[1065.094999999972,900.0500000002794,552.7249999996275,1160.3849999993108,378.26500000129454],"keys_pressed":["leftarrow","leftarrow","rightarrow","rightarrow","rightarrow"],"horizon":5,"forced_choices":["leftarrow","leftarrow","rightarrow","rightarrow"],"right_color":"lightblue","left_color":"orange","left_mu":40,"right_mu":44,"left_numbers":[42,38,44,38,54],"right_numbers":[41,40,55,53,31],"points_earned":219,"phase":"task","trial_type":"horizons-task","trial_index":88,"time_elapsed":1297044,"internal_node_id":"0.0-84.0","task_version":"0.2"},{"response_times":[884.3799999996554,667.0150000008289,864.7700000000186,618.8399999991525,763.0250000001397,1039.795000000624,643.7599999988452,702.0250000006054,282.2749999994412,581.6899999990128],"keys_pressed":["rightarrow","leftarrow","rightarrow","rightarrow","rightarrow","leftarrow","leftarrow","leftarrow","leftarrow","leftarrow"],"horizon":10,"forced_choices":["rightarrow","leftarrow","rightarrow","rightarrow"],"right_color":"lightblue","left_color":"orange","left_mu":60,"right_mu":56,"left_numbers":[56,71,51,53,55,49,67,68,41,66],"right_numbers":[61,44,57,48,61,63,55,58,66,57],"points_earned":589,"phase":"task","trial_type":"horizons-task","trial_index":89,"time_elapsed":1305623,"internal_node_id":"0.0-85.0","task_version":"0.2"},{"response_times":[1569.0949999990407,769.4900000004563,956.0700000000652,1369.4099999994505,672.8400000010151,315.1749999995809,280.15000000060536,196.47999999881722,244.76500000129454,191.65000000060536],"keys_pressed":["leftarrow","rightarrow","leftarrow","leftarrow","leftarrow","leftarrow","leftarrow","leftarrow","leftarrow","leftarrow"],"horizon":10,"forced_choices":["leftarrow","rightarrow","leftarrow","leftarrow"],"right_color":"orange","left_color":"lightblue","left_mu":60,"right_mu":48,"left_numbers":[79,44,61,56,58,45,64,64,69,63],"right_numbers":[62,57,36,33,53,52,45,61,65,47],"points_earned":616,"phase":"task","trial_type":"horizons-task","trial_index":90,"time_elapsed":1313729,"internal_node_id":"0.0-86.0","task_version":"0.2"},{"response_times":[948.7350000001024,749.3049999994691,862.6449999990873,629.1149999997579,601.0000000006985],"keys_pressed":["rightarrow","leftarrow","leftarrow","rightarrow","rightarrow"],"horizon":5,"forced_choices":["rightarrow","leftarrow","leftarrow","rightarrow"],"right_color":"lightblue","left_color":"orange","left_mu":60,"right_mu":68,"left_numbers":[54,59,54,55,46],"right_numbers":[64,71,68,71,70],"points_earned":318,"phase":"task","trial_type":"horizons-task","trial_index":91,"time_elapsed":1319031,"internal_node_id":"0.0-87.0","task_version":"0.2"},{"rt":35950.13500000094,"responses":{"age":"25","gender-categorical":"Male","gender-free-response":"","ethnicity":"Hispanic or Latino","race":["White"],"language":"Yes","fluency":"Very well"},"survey":"demographics","trial_type":"survey-demo","trial_index":92,"time_elapsed":1355010,"internal_node_id":"0.0-88.0","task_version":"0.2"},{"rt":32638.340000001248,"responses":{"difficulty":"4","fun":"5","clarity":"5","strategy":"","feedback":""},"survey":"debrief","trial_type":"survey-debrief","trial_index":93,"time_elapsed":1387679,"internal_node_id":"0.0-89.0","task_version":"0.2","interactions":"[]"}]