[{"view_history":"[{\"page_index\":0,\"viewing_time\":2908.6999999999816}]","rt":2909.534999999977,"trial_type":"instructions","trial_index":0,"time_elapsed":2919,"internal_node_id":"0.0-0.0","task_version":"0.2"},{"item_order":[4,12,2,0,3,8,6,7,1,9,5,11,10],"responses":{"Q05":"2","Q13":"4","Q03":"3","Q01":"3","Q04":"4","Q09":"1","Q07":"2","Q08":"3","Q02":"3","Q10":"2","Q06":"2","Q12":"1","Q11":"3"},"radio_events":[4254.950000000008,6707.034999999991,9518.654999999995,12290.88999999999,15134.974999999997,20879.019999999997,22143.07500000001,24154.82,26687.92500000001,29779.619999999995,31659.189999999995,36323.645000000004,38551.55500000001],"key_events":[],"mouse_events":[0.4450000000133514,3550.929999999994,4254.950000000008,6707.034999999991,9518.654999999995,12290.88999999999,15134.974999999997,19403.15000000001,20879.019999999997,22143.07500000001,24154.82,26687.92500000001,29779.619999999995,31659.189999999995,36323.645000000004,38551.55500000001,39479.600000000006],"rt":39481.87500000001,"survey":"ius12","trial_type":"survey-template","trial_index":1,"time_elapsed":42405,"internal_node_id":"0.0-1.0","task_version":"0.2"},{"item_order":[3,12,6,11,4,14,10,15,2,8,0,5,13,9,1,7],"responses":{"Q04":"3","Q13":"3","Q07":"5","Q12":"5","Q05":"2","Q15":"3","Q11":"4","Q16":"5","Q03":"3","Q09":"3","Q01":"1","Q06":"1","Q14":"0","Q10":"1","Q02":"1","Q08":"5"},"radio_events":[5209.209999999985,9285.209999999977,11497.185000000005,13000.855000000003,16004.75499999999,21756.46499999999,27517.439999999995,29473.4,34993.200000000004,37253.255,41713.204999999994,46057.21,49204.49499999999,50324.60999999998,52153.05999999999,55940.57499999999,59281.275],"key_events":[],"mouse_events":[5209.209999999985,9285.209999999977,11497.185000000005,13000.855000000003,16004.75499999999,21756.46499999999,27517.439999999995,29473.4,34993.200000000004,37253.255,41713.204999999994,46057.21,49204.49499999999,50324.60999999998,52153.05999999999,55940.57499999999,59281.275,61061.35],"rt":61064.29499999999,"survey":"nfc","trial_type":"survey-template","trial_index":2,"time_elapsed":103474,"internal_node_id":"0.0-2.0","task_version":"0.2"},{"item_order":[4,10,3,12,2,11,14,6,15,16,9,5,7,8,1,13,0],"responses":{"Q05":"3","Q11":"3","Q04":"3","Q13":"3","Q03":"4","Q12":"4","Q15":"3","Q07":"2","Q16":"4","Q17":"0","Q10":"4","Q06":"4","Q08":"2","Q09":"3","Q02":"2","Q14":"2","Q01":"4"},"radio_events":[5072.169999999998,7184.254999999976,8147.189999999988,10536.36,14556.36499999999,16528.005000000005,18655.194999999992,20211.945000000007,21844.170000000013,24816.384999999966,27555.675000000003,28356.375000000015,30360.36999999998,33068.40999999996,35056.19499999999,38436.3,42024.2,45748.20499999997],"key_events":[],"mouse_events":[5072.169999999998,7184.254999999976,8147.189999999988,10536.36,13740.214999999982,14556.36499999999,16528.005000000005,17952.24000000002,18655.194999999992,20211.945000000007,21844.170000000013,24816.384999999966,27555.675000000003,28356.375000000015,30360.36999999998,33068.40999999996,35056.19499999999,38436.3,42024.2,45748.20499999997,46936.240000000005],"rt":46939.02500000001,"survey":"pswq","trial_type":"survey-template","trial_index":3,"time_elapsed":150418,"internal_node_id":"0.0-3.0","task_version":"0.2"},{"view_history":"[{\"page_index\":0,\"viewing_time\":4133.9100000000035},{\"page_index\":1,\"viewing_time\":4111.809999999998},{\"page_index\":2,\"viewing_time\":6695.9649999999965},{\"page_index\":3,\"viewing_time\":4215.959999999992},{\"page_index\":4,\"viewing_time\":4072.0500000000466},{\"page_index\":5,\"viewing_time\":2936.009999999951},{\"page_index\":6,\"viewing_time\":3763.9500000000407},{\"page_index\":7,\"viewing_time\":4743.969999999972},{\"page_index\":8,\"viewing_time\":5528.090000000026},{\"page_index\":9,\"viewing_time\":6664.065000000002}]","rt":46866.715000000055,"trial_type":"instructions","trial_index":4,"time_elapsed":197287,"internal_node_id":"0.0-4.0-0.0","task_version":"0.2"},{"response_times":[6425.374999999971,1451.6300000000338,707.390000000014,639.6899999999732,2141.875000000029],"keys_pressed":["rightarrow","leftarrow","rightarrow","rightarrow","rightarrow"],"horizon":5,"forced_choices":["rightarrow","leftarrow","rightarrow","rightarrow"],"right_color":"lightblue","left_color":"orange","left_mu":40,"right_mu":20,"left_numbers":[33,45,43,45,44],"right_numbers":[11,12,18,8,13],"points_earned":95,"phase":"practice","trial_type":"horizons-task","trial_index":5,"time_elapsed":210159,"internal_node_id":"0.0-4.0-1.0","task_version":"0.2"},{"response_times":[915.4100000000035,762.015000000014,598.3099999999686,607.585000000021,1100.984999999986,727.0950000000012,721.8550000000105,1010.1749999999302,1091.5349999999744,940.515000000014],"keys_pressed":["leftarrow","leftarrow","rightarrow","rightarrow","leftarrow","leftarrow","rightarrow","rightarrow","rightarrow","leftarrow"],"horizon":10,"forced_choices":["leftarrow","leftarrow","rightarrow","rightarrow"],"right_color":"orange","left_color":"lightblue","left_mu":60,"right_mu":70,"left_numbers":[69,49,65,64,60,52,62,69,48,60],"right_numbers":[50,84,67,67,64,65,89,66,81,80],"points_earned":660,"phase":"practice","trial_type":"horizons-task","trial_index":6,"time_elapsed":220140,"internal_node_id":"0.0-4.0-2.0","task_version":"0.2"},{"view_history":"[{\"page_index\":0,\"viewing_time\":2920.2949999999546},{\"page_index\":1,\"viewing_time\":3404.359999999986},{\"page_index\":2,\"viewing_time\":3044.1600000000326},{\"page_index\":3,\"viewing_time\":3687.74000000002}]","rt":13056.834999999963,"trial_type":"instructions","trial_index":7,"time_elapsed":233198,"internal_node_id":"0.0-4.0-3.0","task_version":"0.2"},{"responses":["false","false","true"],"num_errors":1,"rt":45779.23999999996,"trial_type":"horizons-comprehension","trial_index":8,"time_elapsed":278979,"internal_node_id":"0.0-4.0-4.0","task_version":"0.2"},{"view_history":"[{\"page_index\":0,\"viewing_time\":2774.0299999999697},{\"page_index\":1,\"viewing_time\":3221.1350000000093},{\"page_index\":2,\"viewing_time\":1031.9399999999441},{\"page_index\":3,\"viewing_time\":2147.9250000000466},{\"page_index\":2,\"viewing_time\":1316.054999999993},{\"page_index\":1,\"viewing_time\":896.195000000007},{\"page_index\":0,\"viewing_time\":2043.8150000000023},{\"page_index\":1,\"viewing_time\":2644.179999999993},{\"page_index\":2,\"viewing_time\":3031.789999999979},{\"page_index\":3,\"viewing_time\":3448.0500000000466},{\"page_index\":4,\"viewing_time\":1663.9249999999302},{\"page_index\":5,\"viewing_time\":963.8400000000256},{\"page_index\":6,\"viewing_time\":1272.2249999999767},{\"page_index\":7,\"viewing_time\":707.8100000000559},{\"page_index\":8,\"viewing_time\":888.1899999999441},{\"page_index\":9,\"viewing_time\":1923.9650000000256}]","rt":29975.31999999995,"trial_type":"instructions","trial_index":9,"time_elapsed":308958,"internal_node_id":"0.0-4.1-0.1","task_version":"0.2"},{"response_times":[2315.335000000021,870.3850000000093,652.9150000000373,583.734999999986,897.7249999999767],"keys_pressed":["rightarrow","leftarrow","rightarrow","rightarrow","leftarrow"],"horizon":5,"forced_choices":["rightarrow","leftarrow","rightarrow","rightarrow"],"right_color":"lightblue","left_color":"orange","left_mu":40,"right_mu":20,"left_numbers":[41,33,46,37,40],"right_numbers":[25,15,19,13,7],"points_earned":130,"phase":"practice","trial_type":"horizons-task","trial_index":10,"time_elapsed":315784,"internal_node_id":"0.0-4.1-1.1","task_version":"0.2"},{"response_times":[763.0799999999581,579.6450000000186,552.0950000000303,543.4350000000559,1001.3699999999953,561.820000000007,703.0599999999977,592.9249999999884,683.6600000000326,436.3500000000349],"keys_pressed":["leftarrow","leftarrow","rightarrow","rightarrow","leftarrow","rightarrow","rightarrow","leftarrow","rightarrow","leftarrow"],"horizon":10,"forced_choices":["leftarrow","leftarrow","rightarrow","rightarrow"],"right_color":"orange","left_color":"lightblue","left_mu":60,"right_mu":70,"left_numbers":[58,63,70,62,56,52,64,60,53,53],"right_numbers":[70,59,64,66,70,62,73,63,84,77],"points_earned":639,"phase":"practice","trial_type":"horizons-task","trial_index":11,"time_elapsed":323705,"internal_node_id":"0.0-4.1-2.1","task_version":"0.2"},{"view_history":"[{\"page_index\":0,\"viewing_time\":1739.9199999999837},{\"page_index\":1,\"viewing_time\":2444.2150000000256},{\"page_index\":2,\"viewing_time\":1859.7099999999627},{\"page_index\":3,\"viewing_time\":1940.100000000035}]","rt":7984.260000000009,"trial_type":"instructions","trial_index":12,"time_elapsed":331690,"internal_node_id":"0.0-4.1-3.1","task_version":"0.2"},{"responses":["true","false","true"],"num_errors":0,"rt":7022.835000000021,"trial_type":"horizons-comprehension","trial_index":13,"time_elapsed":338715,"internal_node_id":"0.0-4.1-4.1","task_version":"0.2"},{"trial_type":"call-function","trial_index":14,"time_elapsed":338718,"internal_node_id":"0.0-5.0","task_version":"0.2"},{"view_history":"[{\"page_index\":0,\"viewing_time\":2039.0800000000163},{\"page_index\":1,\"viewing_time\":2523.9700000000303}]","rt":4563.365000000049,"trial_type":"instructions","trial_index":15,"time_elapsed":343283,"internal_node_id":"0.0-6.0","task_version":"0.2"},{"response_times":[1967.204999999958,824.6849999999395,706.6149999999907,625.835000000021,1009.664999999979,1275.704999999958,1019.8400000000838,946.1500000000233,907.4699999999721,558.8349999999627],"keys_pressed":["rightarrow","leftarrow","rightarrow","leftarrow","rightarrow","leftarrow","rightarrow","leftarrow","rightarrow","leftarrow"],"horizon":10,"forced_choices":["rightarrow","leftarrow","rightarrow","leftarrow"],"right_color":"orange","left_color":"lightblue","left_mu":60,"right_mu":72,"left_numbers":[56,65,59,43,56,70,60,71,74,62],"right_numbers":[62,85,53,75,76,79,86,62,73,75],"points_earned":661,"phase":"task","trial_type":"horizons-task","trial_index":16,"time_elapsed":354634,"internal_node_id":"0.0-7.0","task_version":"0.2"},{"response_times":[1094.679999999993,686.8550000000396,737.0050000000047,765.7199999999721,969.9249999999884,1020.0300000000279,859.0250000000233,710.8099999999977,846.0599999999977,641.9749999999767],"keys_pressed":["rightarrow","rightarrow","rightarrow","leftarrow","leftarrow","rightarrow","leftarrow","rightarrow","leftarrow","rightarrow"],"horizon":10,"forced_choices":["rightarrow","rightarrow","rightarrow","leftarrow"],"right_color":"orange","left_color":"lightblue","left_mu":60,"right_mu":30,"left_numbers":[53,58,60,52,58,63,57,53,55,59],"right_numbers":[24,19,35,37,25,29,27,21,35,39],"points_earned":389,"phase":"task","trial_type":"horizons-task","trial_index":17,"time_elapsed":364471,"internal_node_id":"0.0-8.0","task_version":"0.2"},{"response_times":[1047.0650000000023,574.085000000021,571.0900000000256,670.7700000000186,812.9699999999721],"keys_pressed":["rightarrow","leftarrow","rightarrow","rightarrow","leftarrow"],"horizon":5,"forced_choices":["rightarrow","leftarrow","rightarrow","rightarrow"],"right_color":"lightblue","left_color":"orange","left_mu":60,"right_mu":90,"left_numbers":[57,62,77,53,58],"right_numbers":[91,88,96,95,93],"points_earned":402,"phase":"task","trial_type":"horizons-task","trial_index":18,"time_elapsed":369651,"internal_node_id":"0.0-9.0","task_version":"0.2"},{"response_times":[842.8550000000396,476.3850000000093,524.6450000000186,530.195000000007,1052.054999999993],"keys_pressed":["leftarrow","rightarrow","leftarrow","rightarrow","leftarrow"],"horizon":5,"forced_choices":["leftarrow","rightarrow","leftarrow","rightarrow"],"right_color":"orange","left_color":"lightblue","left_mu":40,"right_mu":28,"left_numbers":[35,35,49,42,32],"right_numbers":[11,25,25,39,31],"points_earned":180,"phase":"task","trial_type":"horizons-task","trial_index":19,"time_elapsed":374584,"internal_node_id":"0.0-10.0","task_version":"0.2"},{"response_times":[917.3400000000256,432.7500000000582,615.1849999999977,440.8200000000652,1095.0599999999977],"keys_pressed":["leftarrow","rightarrow","leftarrow","rightarrow","leftarrow"],"horizon":5,"forced_choices":["leftarrow","rightarrow","leftarrow","rightarrow"],"right_color":"lightblue","left_color":"orange","left_mu":40,"right_mu":48,"left_numbers":[31,39,50,45,28],"right_numbers":[45,33,42,54,49],"points_earned":196,"phase":"task","trial_type":"horizons-task","trial_index":20,"time_elapsed":379591,"internal_node_id":"0.0-11.0","task_version":"0.2"},{"response_times":[626.8099999999395,737.7349999999278,570.2649999999558,506.4400000000023,742.2149999999674,1155.9099999999744,894.5300000000279,725.3350000000792,763.0350000000908,679.3250000000698],"keys_pressed":["leftarrow","leftarrow","leftarrow","rightarrow","leftarrow","rightarrow","leftarrow","rightarrow","leftarrow","rightarrow"],"horizon":10,"forced_choices":["leftarrow","leftarrow","leftarrow","rightarrow"],"right_color":"orange","left_color":"lightblue","left_mu":60,"right_mu":80,"left_numbers":[74,64,68,59,62,72,64,60,66,48],"right_numbers":[88,84,90,95,83,90,82,71,79,88],"points_earned":742,"phase":"task","trial_type":"horizons-task","trial_index":21,"time_elapsed":388499,"internal_node_id":"0.0-12.0","task_version":"0.2"},{"response_times":[1246.4949999999371,432.8900000000722,590.960000000021,586.945000000007,803.0949999999721,883.7200000000303,614.0050000000047,656.0400000000955,598.9550000000163,524.2500000000582],"keys_pressed":["rightarrow","leftarrow","leftarrow","leftarrow","rightarrow","leftarrow","rightarrow","leftarrow","rightarrow","leftarrow"],"horizon":10,"forced_choices":["rightarrow","leftarrow","leftarrow","leftarrow"],"right_color":"lightblue","left_color":"orange","left_mu":60,"right_mu":52,"left_numbers":[44,67,63,51,52,50,67,57,69,54],"right_numbers":[53,45,48,63,49,65,43,61,52,60],"points_earned":539,"phase":"task","trial_type":"horizons-task","trial_index":22,"time_elapsed":396944,"internal_node_id":"0.0-13.0","task_version":"0.2"},{"response_times":[749.8350000000792,507.4900000000489,455.0900000000256,580.8550000000396,889.0350000000326,769.414999999979,679.5500000001048,740.9949999999953,668.820000000007,857.0049999999464],"keys_pressed":["leftarrow","rightarrow","leftarrow","leftarrow","rightarrow","leftarrow","rightarrow","leftarrow","rightarrow","leftarrow"],"horizon":10,"forced_choices":["leftarrow","rightarrow","leftarrow","leftarrow"],"right_color":"lightblue","left_color":"orange","left_mu":60,"right_mu":48,"left_numbers":[65,56,63,48,64,56,61,82,53,71],"right_numbers":[32,38,38,53,45,28,41,50,51,39],"points_earned":560,"phase":"task","trial_type":"horizons-task","trial_index":23,"time_elapsed":405347,"internal_node_id":"0.0-14.0","task_version":"0.2"},{"response_times":[691.875,671.7999999999302,679.4850000000442,594.4549999999581,777.0250000000233,658.9299999999348,660.6150000000489,706.0050000000047,603.1849999999395,621.6499999999651],"keys_pressed":["leftarrow","leftarrow","rightarrow","leftarrow","rightarrow","leftarrow","rightarrow","leftarrow","rightarrow","leftarrow"],"horizon":10,"forced_choices":["leftarrow","leftarrow","rightarrow","leftarrow"],"right_color":"orange","left_color":"lightblue","left_mu":40,"right_mu":36,"left_numbers":[45,27,49,40,32,28,41,29,38,28],"right_numbers":[35,30,23,39,35,45,54,51,42,31],"points_earned":351,"phase":"task","trial_type":"horizons-task","trial_index":24,"time_elapsed":413521,"internal_node_id":"0.0-15.0","task_version":"0.2"},{"response_times":[687.304999999993,650.7300000000396,644.179999999993,553.8499999999767,764.1049999999814,640.7349999999278,603.070000000007,615.8699999999953,581.9600000001374,552.0650000000023],"keys_pressed":["rightarrow","rightarrow","rightarrow","leftarrow","rightarrow","leftarrow","rightarrow","leftarrow","rightarrow","leftarrow"],"horizon":10,"forced_choices":["rightarrow","rightarrow","rightarrow","leftarrow"],"right_color":"lightblue","left_color":"orange","left_mu":40,"right_mu":48,"left_numbers":[24,40,47,49,23,52,43,37,45,35],"right_numbers":[57,45,40,35,43,51,40,39,50,51],"points_earned":448,"phase":"task","trial_type":"horizons-task","trial_index":25,"time_elapsed":421319,"internal_node_id":"0.0-16.0","task_version":"0.2"},{"response_times":[688.7199999999721,395.46999999991385,599.2449999999953,505.8950000000186,798.625],"keys_pressed":["rightarrow","leftarrow","leftarrow","rightarrow","leftarrow"],"horizon":5,"forced_choices":["rightarrow","leftarrow","leftarrow","rightarrow"],"right_color":"orange","left_color":"lightblue","left_mu":40,"right_mu":44,"left_numbers":[37,32,61,44,37],"right_numbers":[18,37,26,44,48],"points_earned":192,"phase":"task","trial_type":"horizons-task","trial_index":26,"time_elapsed":425815,"internal_node_id":"0.0-17.0","task_version":"0.2"},{"response_times":[911.0650000000023,418.1049999999814,668.4850000000442,534.3249999999534,690.9099999999162,694.9449999999488,621.179999999993,793.6899999999441,965.7750000000233,683.3699999999953],"keys_pressed":["leftarrow","rightarrow","rightarrow","leftarrow","rightarrow","leftarrow","rightarrow","leftarrow","rightarrow","leftarrow"],"horizon":10,"forced_choices":["leftarrow","rightarrow","rightarrow","leftarrow"],"right_color":"orange","left_color":"lightblue","left_mu":60,"right_mu":80,"left_numbers":[69,72,64,67,67,65,74,73,58,62],"right_numbers":[83,84,83,79,74,81,77,74,83,68],"points_earned":737,"phase":"task","trial_type":"horizons-task","trial_index":27,"time_elapsed":434302,"internal_node_id":"0.0-18.0","task_version":"0.2"},{"response_times":[541.8650000000489,395.69499999989057,444.8499999999767,493.99499999993714,827.710000000021],"keys_pressed":["leftarrow","rightarrow","leftarrow","rightarrow","leftarrow"],"horizon":5,"forced_choices":["leftarrow","rightarrow","leftarrow","rightarrow"],"right_color":"lightblue","left_color":"orange","left_mu":60,"right_mu":68,"left_numbers":[51,53,59,59,48],"right_numbers":[82,51,62,65,73],"points_earned":274,"phase":"task","trial_type":"horizons-task","trial_index":28,"time_elapsed":438515,"internal_node_id":"0.0-19.0","task_version":"0.2"},{"response_times":[585.554999999993,416.4100000000908,459.28000000002794,1213.8349999999045,931.4950000000536],"keys_pressed":["leftarrow","rightarrow","leftarrow","leftarrow","rightarrow"],"horizon":5,"forced_choices":["leftarrow","rightarrow","leftarrow","leftarrow"],"right_color":"lightblue","left_color":"orange","left_mu":40,"right_mu":10,"left_numbers":[27,47,32,40,40],"right_numbers":[4,16,10,13,8],"points_earned":123,"phase":"task","trial_type":"horizons-task","trial_index":29,"time_elapsed":443626,"internal_node_id":"0.0-20.0","task_version":"0.2"},{"response_times":[833.4449999999488,568.5150000000722,533.4000000000815,699.7549999999464,726.0650000000605],"keys_pressed":["rightarrow","rightarrow","leftarrow","leftarrow","rightarrow"],"horizon":5,"forced_choices":["rightarrow","rightarrow","leftarrow","leftarrow"],"right_color":"lightblue","left_color":"orange","left_mu":40,"right_mu":10,"left_numbers":[28,42,44,43,40],"right_numbers":[17,11,1,0,17],"points_earned":132,"phase":"task","trial_type":"horizons-task","trial_index":30,"time_elapsed":448496,"internal_node_id":"0.0-21.0","task_version":"0.2"},{"response_times":[626.3449999999721,414.5649999999441,817.2099999999627,682.7299999999814,795.0699999998906,769.7399999999907,773.1599999999744,657.0749999999534,545.8249999998952,886.6499999999069],"keys_pressed":["leftarrow","rightarrow","rightarrow","rightarrow","leftarrow","rightarrow","leftarrow","rightarrow","leftarrow","rightarrow"],"horizon":10,"forced_choices":["leftarrow","rightarrow","rightarrow","rightarrow"],"right_color":"orange","left_color":"lightblue","left_mu":60,"right_mu":72,"left_numbers":[55,59,71,56,75,65,63,61,61,56],"right_numbers":[69,73,63,75,86,79,67,75,53,81],"points_earned":700,"phase":"task","trial_type":"horizons-task","trial_index":31,"time_elapsed":456969,"internal_node_id":"0.0-22.0","task_version":"0.2"},{"response_times":[640.8649999999907,445.8499999999185,735.0799999998999,560.6400000000722,760.3700000001118,565.2700000000768,594.4950000000536,546.8699999999953,542.0449999999837,449.03999999997905],"keys_pressed":["rightarrow","leftarrow","leftarrow","rightarrow","leftarrow","rightarrow","leftarrow","rightarrow","leftarrow","rightarrow"],"horizon":10,"forced_choices":["rightarrow","leftarrow","leftarrow","rightarrow"],"right_color":"orange","left_color":"lightblue","left_mu":40,"right_mu":44,"left_numbers":[46,48,35,49,46,34,53,21,46,47],"right_numbers":[26,46,37,57,54,53,38,46,38,37],"points_earned":447,"phase":"task","trial_type":"horizons-task","trial_index":32,"time_elapsed":464318,"internal_node_id":"0.0-23.0","task_version":"0.2"},{"response_times":[682.5700000000652,403.7150000000256,646.0200000000186,488.8599999999278,617.289999999979,413.85999999998603,443.99499999993714,346.8550000000396,382.9749999999767,342.4449999999488],"keys_pressed":["rightarrow","leftarrow","rightarrow","leftarrow","rightarrow","leftarrow","rightarrow","leftarrow","rightarrow","leftarrow"],"horizon":10,"forced_choices":["rightarrow","leftarrow","rightarrow","leftarrow"],"right_color":"lightblue","left_color":"orange","left_mu":60,"right_mu":40,"left_numbers":[30,60,59,72,72,54,60,59,46,74],"right_numbers":[45,57,43,44,35,31,44,44,28,37],"points_earned":514,"phase":"task","trial_type":"horizons-task","trial_index":33,"time_elapsed":470591,"internal_node_id":"0.0-24.0","task_version":"0.2"},{"response_times":[708.6149999999907,739.4599999999627,567.7600000000093,560.2999999999302,491.945000000007],"keys_pressed":["leftarrow","leftarrow","rightarrow","leftarrow","rightarrow"],"horizon":5,"forced_choices":["leftarrow","leftarrow","rightarrow","leftarrow"],"right_color":"orange","left_color":"lightblue","left_mu":40,"right_mu":36,"left_numbers":[46,53,34,43,32],"right_numbers":[32,24,41,40,47],"points_earned":230,"phase":"task","trial_type":"horizons-task","trial_index":34,"time_elapsed":475168,"internal_node_id":"0.0-25.0","task_version":"0.2"},{"response_times":[648.0100000000093,578.6800000001094,527.6150000001071,711.9000000000233,549.1749999999884,455.4349999999977,388.90500000002794,353.0199999999604,335.35499999992317,309.0549999999348],"keys_pressed":["rightarrow","rightarrow","leftarrow","leftarrow","rightarrow","leftarrow","rightarrow","leftarrow","rightarrow","leftarrow"],"horizon":10,"forced_choices":["rightarrow","rightarrow","leftarrow","leftarrow"],"right_color":"lightblue","left_color":"orange","left_mu":60,"right_mu":52,"left_numbers":[61,62,51,63,61,73,71,66,73,60],"right_numbers":[61,55,56,48,53,51,50,56,59,42],"points_earned":591,"phase":"task","trial_type":"horizons-task","trial_index":35,"time_elapsed":481530,"internal_node_id":"0.0-26.0","task_version":"0.2"},{"response_times":[736.289999999979,713.7150000000256,745.3500000000349,603.5650000000023,493.8399999999674],"keys_pressed":["leftarrow","leftarrow","leftarrow","rightarrow","leftarrow"],"horizon":5,"forced_choices":["leftarrow","leftarrow","leftarrow","rightarrow"],"right_color":"lightblue","left_color":"orange","left_mu":60,"right_mu":68,"left_numbers":[58,59,53,60,65],"right_numbers":[60,51,60,57,79],"points_earned":292,"phase":"task","trial_type":"horizons-task","trial_index":36,"time_elapsed":486327,"internal_node_id":"0.0-27.0","task_version":"0.2"},{"response_times":[629.3449999999721,633.5399999999208,610.0749999999534,782.25,598.0650000000605,536.6999999999534,794.5299999999697,403.37999999994645,377.0799999999581,404.8400000000256],"keys_pressed":["leftarrow","leftarrow","rightarrow","rightarrow","leftarrow","rightarrow","leftarrow","rightarrow","leftarrow","rightarrow"],"horizon":10,"forced_choices":["leftarrow","leftarrow","rightarrow","rightarrow"],"right_color":"lightblue","left_color":"orange","left_mu":40,"right_mu":20,"left_numbers":[40,32,41,48,35,46,50,28,36,52],"right_numbers":[13,11,20,23,21,22,23,23,13,15],"points_earned":296,"phase":"task","trial_type":"horizons-task","trial_index":37,"time_elapsed":493602,"internal_node_id":"0.0-28.0","task_version":"0.2"},{"response_times":[637.7850000000326,731.3749999999418,624.7750000000233,691.3600000000442,533.859999999986,452.79000000009546,420.25500000000466,407.4749999999767,387.2699999999022,305.6699999999837],"keys_pressed":["leftarrow","leftarrow","rightarrow","rightarrow","leftarrow","rightarrow","leftarrow","rightarrow","leftarrow","rightarrow"],"horizon":10,"forced_choices":["leftarrow","leftarrow","rightarrow","rightarrow"],"right_color":"orange","left_color":"lightblue","left_mu":60,"right_mu":30,"left_numbers":[54,61,62,67,52,60,60,54,50,62],"right_numbers":[31,32,27,30,36,30,23,27,41,40],"points_earned":431,"phase":"task","trial_type":"horizons-task","trial_index":38,"time_elapsed":500300,"internal_node_id":"0.0-29.0","task_version":"0.2"},{"response_times":[632.445000000007,480.7249999999767,502.8849999999511,444.61999999993714,559.359999999986],"keys_pressed":["rightarrow","leftarrow","rightarrow","leftarrow","rightarrow"],"horizon":5,"forced_choices":["rightarrow","leftarrow","rightarrow","leftarrow"],"right_color":"orange","left_color":"lightblue","left_mu":60,"right_mu":72,"left_numbers":[55,66,62,67,43],"right_numbers":[71,71,68,73,74],"points_earned":346,"phase":"task","trial_type":"horizons-task","trial_index":39,"time_elapsed":504425,"internal_node_id":"0.0-30.0","task_version":"0.2"},{"response_times":[628.9499999998952,517.5899999999092,631.8499999999767,748.8499999999767,698.3299999999581,496.6899999999441,648.9299999999348,453.71000000002095,1080.2700000000186,515.6850000000559],"keys_pressed":["rightarrow","rightarrow","leftarrow","leftarrow","rightarrow","leftarrow","rightarrow","leftarrow","rightarrow","leftarrow"],"horizon":10,"forced_choices":["rightarrow","rightarrow","leftarrow","leftarrow"],"right_color":"lightblue","left_color":"orange","left_mu":40,"right_mu":10,"left_numbers":[43,38,31,60,33,44,45,44,33,27],"right_numbers":[21,20,2,11,11,8,10,3,9,5],"points_earned":277,"phase":"task","trial_type":"horizons-task","trial_index":40,"time_elapsed":512351,"internal_node_id":"0.0-31.0","task_version":"0.2"},{"response_times":[628.9949999999371,543.375,516.4499999999534,609.6249999999418,489.36999999999534],"keys_pressed":["rightarrow","rightarrow","leftarrow","leftarrow","rightarrow"],"horizon":5,"forced_choices":["rightarrow","rightarrow","leftarrow","leftarrow"],"right_color":"orange","left_color":"lightblue","left_mu":40,"right_mu":36,"left_numbers":[39,43,35,46,37],"right_numbers":[39,37,30,24,39],"points_earned":196,"phase":"task","trial_type":"horizons-task","trial_index":41,"time_elapsed":516647,"internal_node_id":"0.0-32.0","task_version":"0.2"},{"response_times":[601.7850000000908,637.7850000000326,619.640000000014,475.47500000009313,440.93000000010943],"keys_pressed":["leftarrow","leftarrow","leftarrow","rightarrow","leftarrow"],"horizon":5,"forced_choices":["leftarrow","leftarrow","leftarrow","rightarrow"],"right_color":"orange","left_color":"lightblue","left_mu":60,"right_mu":80,"left_numbers":[55,60,61,49,60],"right_numbers":[81,74,77,79,80],"points_earned":315,"phase":"task","trial_type":"horizons-task","trial_index":42,"time_elapsed":520928,"internal_node_id":"0.0-33.0","task_version":"0.2"},{"response_times":[526.6900000000605,466.6900000000023,470.820000000007,418.1150000001071,568.0100000000093,486.15500000002794,661.4200000000419,505.3200000000652,691.3399999999674,566.3849999998929],"keys_pressed":["leftarrow","rightarrow","leftarrow","rightarrow","leftarrow","rightarrow","leftarrow","rightarrow","leftarrow","rightarrow"],"horizon":10,"forced_choices":["leftarrow","rightarrow","leftarrow","rightarrow"],"right_color":"orange","left_color":"lightblue","left_mu":40,"right_mu":28,"left_numbers":[37,43,47,47,49,37,43,20,49,22],"right_numbers":[26,25,32,34,45,15,19,24,16,31],"points_earned":354,"phase":"task","trial_type":"horizons-task","trial_index":43,"time_elapsed":527797,"internal_node_id":"0.0-34.0","task_version":"0.2"},{"response_times":[503.05000000004657,626.4650000000838,526.675000000163,605.7800000000279,542.3499999999767],"keys_pressed":["leftarrow","leftarrow","rightarrow","rightarrow","leftarrow"],"horizon":5,"forced_choices":["leftarrow","leftarrow","rightarrow","rightarrow"],"right_color":"orange","left_color":"lightblue","left_mu":60,"right_mu":30,"left_numbers":[64,57,54,71,63],"right_numbers":[35,23,42,35,24],"points_earned":261,"phase":"task","trial_type":"horizons-task","trial_index":44,"time_elapsed":532109,"internal_node_id":"0.0-35.0","task_version":"0.2"},{"response_times":[619.5700000000652,478.9200000000419,562.7099999998463,454.0800000000745,738.0699999999488,579.1199999999953,526.8099999999395,392.6699999999255,337.1449999999022,330.6850000000559],"keys_pressed":["leftarrow","leftarrow","leftarrow","rightarrow","leftarrow","rightarrow","leftarrow","rightarrow","leftarrow","rightarrow"],"horizon":10,"forced_choices":["leftarrow","leftarrow","leftarrow","rightarrow"],"right_color":"lightblue","left_color":"orange","left_mu":60,"right_mu":68,"left_numbers":[58,71,57,52,72,63,69,42,64,58],"right_numbers":[65,72,78,56,68,60,75,69,77,45],"points_earned":621,"phase":"task","trial_type":"horizons-task","trial_index":45,"time_elapsed":538634,"internal_node_id":"0.0-36.0","task_version":"0.2"},{"response_times":[537.7549999998882,358.4200000000419,727.3349999999627,515.9799999999814,575.125],"keys_pressed":["leftarrow","rightarrow","rightarrow","leftarrow","rightarrow"],"horizon":5,"forced_choices":["leftarrow","rightarrow","rightarrow","leftarrow"],"right_color":"orange","left_color":"lightblue","left_mu":40,"right_mu":32,"left_numbers":[40,45,48,38,43],"right_numbers":[25,42,33,30,37],"points_earned":190,"phase":"task","trial_type":"horizons-task","trial_index":46,"time_elapsed":542854,"internal_node_id":"0.0-37.0","task_version":"0.2"},{"response_times":[871.0449999999255,437.1700000000419,440.0450000000419,637.8050000000512,417.00499999988824],"keys_pressed":["rightarrow","leftarrow","rightarrow","rightarrow","leftarrow"],"horizon":5,"forced_choices":["rightarrow","leftarrow","rightarrow","rightarrow"],"right_color":"orange","left_color":"lightblue","left_mu":40,"right_mu":32,"left_numbers":[28,25,37,40,39],"right_numbers":[29,36,32,20,33],"points_earned":145,"phase":"task","trial_type":"horizons-task","trial_index":47,"time_elapsed":547161,"internal_node_id":"0.0-38.0","task_version":"0.2"},{"response_times":[1017.7850000000326,457.7149999999674,440.18499999993946,468.8950000000186,880.7099999998463,494.9550000000745,544.270000000135,341.9799999999814,292.07500000006985,429.0950000000885],"keys_pressed":["leftarrow","rightarrow","leftarrow","rightarrow","leftarrow","rightarrow","leftarrow","rightarrow","leftarrow","rightarrow"],"horizon":10,"forced_choices":["leftarrow","rightarrow","leftarrow","rightarrow"],"right_color":"lightblue","left_color":"orange","left_mu":40,"right_mu":48,"left_numbers":[28,47,49,38,38,51,60,35,63,41],"right_numbers":[42,56,39,47,43,49,52,58,59,48],"points_earned":496,"phase":"task","trial_type":"horizons-task","trial_index":48,"time_elapsed":554034,"internal_node_id":"0.0-39.0","task_version":"0.2"},{"response_times":[575.6300000000047,359.95999999996275,653.0850000000792,591.354999999865,587.4899999999907,405.34499999985565,843.9549999999581,529.1199999999953,505.7950000000419,411.3300000000745],"keys_pressed":["leftarrow","rightarrow","rightarrow","rightarrow","leftarrow","rightarrow","leftarrow","rightarrow","leftarrow","rightarrow"],"horizon":10,"forced_choices":["leftarrow","rightarrow","rightarrow","rightarrow"],"right_color":"lightblue","left_color":"orange","left_mu":40,"right_mu":20,"left_numbers":[54,41,42,44,41,31,28,38,36,39],"right_numbers":[17,16,24,24,17,30,8,20,20,0],"points_earned":273,"phase":"task","trial_type":"horizons-task","trial_index":49,"time_elapsed":561000,"internal_node_id":"0.0-40.0","task_version":"0.2"},{"response_times":[737.8300000000745,543.6049999999814,703.9699999999721,531.9149999999208,475.01500000001397,506.30999999993946,574.2600000000093,454.54000000015367,488.90500000002794,476.79000000003725],"keys_pressed":["rightarrow","leftarrow","leftarrow","leftarrow","rightarrow","leftarrow","rightarrow","leftarrow","rightarrow","leftarrow"],"horizon":10,"forced_choices":["rightarrow","leftarrow","leftarrow","leftarrow"],"right_color":"orange","left_color":"lightblue","left_mu":40,"right_mu":52,"left_numbers":[38,49,46,42,41,42,32,51,43,20],"right_numbers":[53,57,51,42,52,46,41,45,49,74],"points_earned":445,"phase":"task","trial_type":"horizons-task","trial_index":50,"time_elapsed":567997,"internal_node_id":"0.0-41.0","task_version":"0.2"},{"response_times":[528.5100000000093,349.13500000012573,614.0949999999721,482.57500000006985,451.2200000000885],"keys_pressed":["rightarrow","leftarrow","leftarrow","rightarrow","leftarrow"],"horizon":5,"forced_choices":["rightarrow","leftarrow","leftarrow","rightarrow"],"right_color":"orange","left_color":"lightblue","left_mu":40,"right_mu":52,"left_numbers":[35,34,44,37,43],"right_numbers":[42,52,53,50,42],"points_earned":213,"phase":"task","trial_type":"horizons-task","trial_index":51,"time_elapsed":571927,"internal_node_id":"0.0-42.0","task_version":"0.2"},{"response_times":[604.7800000000279,568.6900000000605,431.02499999990687,438.38500000012573,421.45999999996275],"keys_pressed":["leftarrow","leftarrow","rightarrow","leftarrow","rightarrow"],"horizon":5,"forced_choices":["leftarrow","leftarrow","rightarrow","leftarrow"],"right_color":"lightblue","left_color":"orange","left_mu":60,"right_mu":40,"left_numbers":[63,72,50,62,57],"right_numbers":[33,42,46,50,37],"points_earned":280,"phase":"task","trial_type":"horizons-task","trial_index":52,"time_elapsed":575898,"internal_node_id":"0.0-43.0","task_version":"0.2"},{"response_times":[604.7249999999767,353.8699999998789,611.4250000000466,411.5549999999348,565.2800000000279,472.02499999990687,577.5450000000419,471.2149999999674,484.1149999999907,360.9199999999255],"keys_pressed":["rightarrow","leftarrow","leftarrow","rightarrow","leftarrow","rightarrow","leftarrow","rightarrow","leftarrow","rightarrow"],"horizon":10,"forced_choices":["rightarrow","leftarrow","leftarrow","rightarrow"],"right_color":"lightblue","left_color":"orange","left_mu":40,"right_mu":70,"left_numbers":[42,37,35,34,36,47,46,44,49,29],"right_numbers":[61,79,83,81,77,64,73,77,67,64],"points_earned":550,"phase":"task","trial_type":"horizons-task","trial_index":53,"time_elapsed":582316,"internal_node_id":"0.0-44.0","task_version":"0.2"},{"response_times":[565.4550000000745,437.75,669.9449999999488,608.5950000000885,476.03999999992084],"keys_pressed":["rightarrow","leftarrow","leftarrow","leftarrow","rightarrow"],"horizon":5,"forced_choices":["rightarrow","leftarrow","leftarrow","leftarrow"],"right_color":"orange","left_color":"lightblue","left_mu":40,"right_mu":52,"left_numbers":[43,49,33,46,39],"right_numbers":[45,47,58,71,47],"points_earned":220,"phase":"task","trial_type":"horizons-task","trial_index":54,"time_elapsed":586579,"internal_node_id":"0.0-45.0","task_version":"0.2"},{"response_times":[749.9849999998696,563.7200000000885,488.9000000000233,661.2800000000279,550.875,494.42500000004657,584.3649999998743,519.3549999999814,433.92500000004657,424.22500000009313],"keys_pressed":["rightarrow","rightarrow","leftarrow","leftarrow","rightarrow","leftarrow","rightarrow","leftarrow","rightarrow","leftarrow"],"horizon":10,"forced_choices":["rightarrow","rightarrow","leftarrow","leftarrow"],"right_color":"orange","left_color":"lightblue","left_mu":40,"right_mu":36,"left_numbers":[21,50,49,44,45,30,52,57,31,53],"right_numbers":[36,23,36,42,34,44,27,29,34,45],"points_earned":387,"phase":"task","trial_type":"horizons-task","trial_index":55,"time_elapsed":593555,"internal_node_id":"0.0-46.0","task_version":"0.2"},{"view_history":"[{\"page_index\":0,\"viewing_time\":18950.390000000014},{\"page_index\":1,\"viewing_time\":4747.224999999977}]","rt":23698.05500000005,"trial_type":"instructions","trial_index":56,"time_elapsed":617254,"internal_node_id":"0.0-47.0","task_version":"0.2"},{"response_times":[1177.8100000000559,388.96000000007916,618.640000000014,402.1850000000559,899.7750000000233,434.3499999999767,420.28999999992084,390.1350000000093,375.02499999990687,315.2149999999674],"keys_pressed":["rightarrow","leftarrow","leftarrow","rightarrow","leftarrow","rightarrow","leftarrow","rightarrow","leftarrow","rightarrow"],"horizon":10,"forced_choices":["rightarrow","leftarrow","leftarrow","rightarrow"],"right_color":"orange","left_color":"lightblue","left_mu":40,"right_mu":52,"left_numbers":[51,26,29,37,38,59,53,42,24,44],"right_numbers":[60,36,48,46,41,48,54,53,56,62],"points_earned":439,"phase":"task","trial_type":"horizons-task","trial_index":57,"time_elapsed":624188,"internal_node_id":"0.0-48.0","task_version":"0.2"},{"response_times":[1012.875,389.875,450.38000000000466,600.2699999999022,406.40500000002794],"keys_pressed":["leftarrow","rightarrow","leftarrow","leftarrow","rightarrow"],"horizon":5,"forced_choices":["leftarrow","rightarrow","leftarrow","leftarrow"],"right_color":"lightblue","left_color":"orange","left_mu":60,"right_mu":48,"left_numbers":[56,59,40,69,64],"right_numbers":[67,50,68,55,47],"points_earned":262,"phase":"task","trial_type":"horizons-task","trial_index":58,"time_elapsed":628553,"internal_node_id":"0.0-49.0","task_version":"0.2"},{"response_times":[847.3199999999488,600.2700000000186,404.6799999999348,645.2849999999162,795.1699999999255],"keys_pressed":["leftarrow","leftarrow","rightarrow","rightarrow","leftarrow"],"horizon":5,"forced_choices":["leftarrow","leftarrow","rightarrow","rightarrow"],"right_color":"lightblue","left_color":"orange","left_mu":60,"right_mu":56,"left_numbers":[76,66,64,63,45],"right_numbers":[64,62,43,54,44],"points_earned":284,"phase":"task","trial_type":"horizons-task","trial_index":59,"time_elapsed":633354,"internal_node_id":"0.0-50.0","task_version":"0.2"},{"response_times":[576.809999999823,616.265000000014,418.61999999999534,480.38000000000466,675.2550000000047,509.03000000002794,390.7299999999814,345.2950000000419,284.1950000000652,345.7249999999767],"keys_pressed":["leftarrow","leftarrow","rightarrow","leftarrow","rightarrow","leftarrow","rightarrow","leftarrow","rightarrow","leftarrow"],"horizon":10,"forced_choices":["leftarrow","leftarrow","rightarrow","leftarrow"],"right_color":"lightblue","left_color":"orange","left_mu":60,"right_mu":40,"left_numbers":[53,69,67,56,68,75,62,63,54,45],"right_numbers":[26,39,43,44,23,50,35,45,37,24],"points_earned":499,"phase":"task","trial_type":"horizons-task","trial_index":60,"time_elapsed":639501,"internal_node_id":"0.0-51.0","task_version":"0.2"},{"response_times":[939.6850000000559,583.6550000000279,511.40500000014435,494.63000000000466,750.0500000000466],"keys_pressed":["rightarrow","rightarrow","leftarrow","rightarrow","leftarrow"],"horizon":5,"forced_choices":["rightarrow","rightarrow","leftarrow","rightarrow"],"right_color":"orange","left_color":"lightblue","left_mu":40,"right_mu":28,"left_numbers":[43,20,39,39,33],"right_numbers":[18,29,19,16,30],"points_earned":135,"phase":"task","trial_type":"horizons-task","trial_index":61,"time_elapsed":644286,"internal_node_id":"0.0-52.0","task_version":"0.2"},{"response_times":[610.640000000014,404.3950000000186,675.0500000000466,615.0349999999162,780.0549999999348],"keys_pressed":["leftarrow","rightarrow","rightarrow","rightarrow","leftarrow"],"horizon":5,"forced_choices":["leftarrow","rightarrow","rightarrow","rightarrow"],"right_color":"orange","left_color":"lightblue","left_mu":60,"right_mu":72,"left_numbers":[50,43,51,73,66],"right_numbers":[59,63,69,63,79],"points_earned":311,"phase":"task","trial_type":"horizons-task","trial_index":62,"time_elapsed":648876,"internal_node_id":"0.0-53.0","task_version":"0.2"},{"response_times":[744.3600000001024,419.5899999999674,901.3300000000745,434.2950000000419,630.5700000000652,494.3049999999348,539.4949999999953,465.1350000000093,480.2149999999674,434.7699999999022],"keys_pressed":["leftarrow","rightarrow","rightarrow","leftarrow","rightarrow","leftarrow","rightarrow","leftarrow","rightarrow","leftarrow"],"horizon":10,"forced_choices":["leftarrow","rightarrow","rightarrow","leftarrow"],"right_color":"orange","left_color":"lightblue","left_mu":40,"right_mu":32,"left_numbers":[37,33,43,42,39,48,38,47,26,44],"right_numbers":[31,32,30,27,25,25,27,29,43,35],"points_earned":375,"phase":"task","trial_type":"horizons-task","trial_index":63,"time_elapsed":655924,"internal_node_id":"0.0-54.0","task_version":"0.2"},{"response_times":[672.3850000000093,465.0600000000559,434.68499999993946,434.4100000000326,390.16499999992084],"keys_pressed":["leftarrow","rightarrow","leftarrow","rightarrow","leftarrow"],"horizon":5,"forced_choices":["leftarrow","rightarrow","leftarrow","rightarrow"],"right_color":"lightblue","left_color":"orange","left_mu":60,"right_mu":48,"left_numbers":[58,68,52,59,61],"right_numbers":[58,53,37,47,43],"points_earned":271,"phase":"task","trial_type":"horizons-task","trial_index":64,"time_elapsed":659829,"internal_node_id":"0.0-55.0","task_version":"0.2"},{"response_times":[638.0400000000373,270.074999999837,719.9550000000745,599.7699999999022,344.8549999999814],"keys_pressed":["leftarrow","rightarrow","rightarrow","rightarrow","leftarrow"],"horizon":5,"forced_choices":["leftarrow","rightarrow","rightarrow","rightarrow"],"right_color":"orange","left_color":"lightblue","left_mu":60,"right_mu":64,"left_numbers":[46,53,76,65,71],"right_numbers":[58,54,58,69,82],"points_earned":298,"phase":"task","trial_type":"horizons-task","trial_index":65,"time_elapsed":663905,"internal_node_id":"0.0-56.0","task_version":"0.2"},{"response_times":[580.6549999999115,494.87000000011176,510.26500000001397,464.9700000000885,299.1800000000512],"keys_pressed":["rightarrow","rightarrow","rightarrow","leftarrow","rightarrow"],"horizon":5,"forced_choices":["rightarrow","rightarrow","rightarrow","leftarrow"],"right_color":"lightblue","left_color":"orange","left_mu":40,"right_mu":48,"left_numbers":[29,39,31,44,49],"right_numbers":[34,59,47,37,54],"points_earned":238,"phase":"task","trial_type":"horizons-task","trial_index":66,"time_elapsed":667760,"internal_node_id":"0.0-57.0","task_version":"0.2"},{"response_times":[626.484999999986,389.7600000000093,539.9649999999674,495.2299999999814,434.8100000000559,509.73499999998603,344.6450000000186,329.58499999996275,315.9100000000326,403.9399999999441],"keys_pressed":["rightarrow","leftarrow","leftarrow","leftarrow","rightarrow","leftarrow","rightarrow","leftarrow","rightarrow","leftarrow"],"horizon":10,"forced_choices":["rightarrow","leftarrow","leftarrow","leftarrow"],"right_color":"lightblue","left_color":"orange","left_mu":40,"right_mu":70,"left_numbers":[42,35,42,39,40,28,47,42,46,39],"right_numbers":[68,80,59,71,72,64,71,79,74,65],"points_earned":510,"phase":"task","trial_type":"horizons-task","trial_index":67,"time_elapsed":673658,"internal_node_id":"0.0-58.0","task_version":"0.2"},{"response_times":[772.0600000000559,419.9000000000233,569.4499999999534,526,314.8399999999674],"keys_pressed":["leftarrow","rightarrow","rightarrow","leftarrow","rightarrow"],"horizon":5,"forced_choices":["leftarrow","rightarrow","rightarrow","leftarrow"],"right_color":"orange","left_color":"lightblue","left_mu":40,"right_mu":60,"left_numbers":[29,40,48,47,44],"right_numbers":[71,71,56,63,62],"points_earned":265,"phase":"task","trial_type":"horizons-task","trial_index":68,"time_elapsed":677768,"internal_node_id":"0.0-59.0","task_version":"0.2"},{"response_times":[607.0799999999581,420.1350000000093,390.1700000000419,419.7399999999907,1395.3649999999907,375.1800000000512,464.4100000000326,404.72500000009313,389.45999999996275,1155.5749999999534],"keys_pressed":["leftarrow","rightarrow","leftarrow","rightarrow","leftarrow","rightarrow","leftarrow","rightarrow","leftarrow","leftarrow"],"horizon":10,"forced_choices":["leftarrow","rightarrow","leftarrow","rightarrow"],"right_color":"lightblue","left_color":"orange","left_mu":60,"right_mu":48,"left_numbers":[50,54,70,70,51,54,57,58,71,43],"right_numbers":[51,42,53,39,56,49,56,46,49,48],"points_earned":518,"phase":"task","trial_type":"horizons-task","trial_index":69,"time_elapsed":685298,"internal_node_id":"0.0-60.0","task_version":"0.2"},{"response_times":[667.9550000000745,449.17500000004657,675.3449999999721,464.24499999999534,420.7750000001397],"keys_pressed":["rightarrow","leftarrow","leftarrow","rightarrow","leftarrow"],"horizon":5,"forced_choices":["rightarrow","leftarrow","leftarrow","rightarrow"],"right_color":"orange","left_color":"lightblue","left_mu":60,"right_mu":64,"left_numbers":[53,50,56,61,48],"right_numbers":[73,56,60,75,61],"points_earned":302,"phase":"task","trial_type":"horizons-task","trial_index":70,"time_elapsed":689484,"internal_node_id":"0.0-61.0","task_version":"0.2"},{"response_times":[515.890000000014,390.6949999999488,420,718.875,465.64999999990687,464.98999999987427,480.46000000007916,374.44999999995343,330.60999999998603,284.04000000003725],"keys_pressed":["rightarrow","leftarrow","rightarrow","rightarrow","leftarrow","rightarrow","leftarrow","rightarrow","leftarrow","rightarrow"],"horizon":10,"forced_choices":["rightarrow","leftarrow","rightarrow","rightarrow"],"right_color":"orange","left_color":"lightblue","left_mu":40,"right_mu":32,"left_numbers":[43,31,40,33,39,29,33,47,41,35],"right_numbers":[37,35,12,28,43,47,37,43,25,33],"points_earned":344,"phase":"task","trial_type":"horizons-task","trial_index":71,"time_elapsed":695434,"internal_node_id":"0.0-62.0","task_version":"0.2"},{"response_times":[671.6450000000186,374.72500000009313,615.1800000000512,585.1299999998882,433.8750000001164],"keys_pressed":["rightarrow","leftarrow","leftarrow","leftarrow","rightarrow"],"horizon":5,"forced_choices":["rightarrow","leftarrow","leftarrow","leftarrow"],"right_color":"lightblue","left_color":"orange","left_mu":60,"right_mu":52,"left_numbers":[60,62,62,64,64],"right_numbers":[39,45,48,68,55],"points_earned":282,"phase":"task","trial_type":"horizons-task","trial_index":72,"time_elapsed":699623,"internal_node_id":"0.0-63.0","task_version":"0.2"},{"response_times":[532.1199999998789,359.60999999998603,299.45000000006985,465.58500000007916,359.8299999999581],"keys_pressed":["rightarrow","leftarrow","rightarrow","leftarrow","rightarrow"],"horizon":5,"forced_choices":["rightarrow","leftarrow","rightarrow","leftarrow"],"right_color":"lightblue","left_color":"orange","left_mu":60,"right_mu":90,"left_numbers":[39,64,70,74,59],"right_numbers":[62,79,89,100,100],"points_earned":389,"phase":"task","trial_type":"horizons-task","trial_index":73,"time_elapsed":703145,"internal_node_id":"0.0-64.0","task_version":"0.2"},{"response_times":[595.0799999999581,255.16500000003725,780.1050000000978,404.0099999998929,270.50500000000466],"keys_pressed":["leftarrow","rightarrow","rightarrow","leftarrow","rightarrow"],"horizon":5,"forced_choices":["leftarrow","rightarrow","rightarrow","leftarrow"],"right_color":"orange","left_color":"lightblue","left_mu":60,"right_mu":80,"left_numbers":[58,69,70,53,52],"right_numbers":[73,66,73,72,88],"points_earned":338,"phase":"task","trial_type":"horizons-task","trial_index":74,"time_elapsed":706955,"internal_node_id":"0.0-65.0","task_version":"0.2"},{"response_times":[759.7550000000047,390.1600000000326,405.5299999999115,659.8449999999721,404.5050000001211,555.2100000000792,525.2450000001118,449.93499999993946,704.9700000000885,389.55999999993946],"keys_pressed":["leftarrow","rightarrow","leftarrow","leftarrow","rightarrow","leftarrow","rightarrow","leftarrow","rightarrow","leftarrow"],"horizon":10,"forced_choices":["leftarrow","rightarrow","leftarrow","leftarrow"],"right_color":"lightblue","left_color":"orange","left_mu":40,"right_mu":10,"left_numbers":[60,35,55,59,46,31,56,42,39,35],"right_numbers":[0,7,12,17,0,21,8,5,6,8],"points_earned":303,"phase":"task","trial_type":"horizons-task","trial_index":75,"time_elapsed":713706,"internal_node_id":"0.0-66.0","task_version":"0.2"},{"response_times":[699.5949999999721,389.75500000000466,629.8100000000559,450.20000000006985,359.7049999999581],"keys_pressed":["rightarrow","leftarrow","leftarrow","rightarrow","leftarrow"],"horizon":5,"forced_choices":["rightarrow","leftarrow","leftarrow","rightarrow"],"right_color":"lightblue","left_color":"orange","left_mu":40,"right_mu":70,"left_numbers":[26,36,44,44,38],"right_numbers":[61,67,69,66,62],"points_earned":245,"phase":"task","trial_type":"horizons-task","trial_index":76,"time_elapsed":717741,"internal_node_id":"0.0-67.0","task_version":"0.2"},{"response_times":[583.9449999999488,525.0850000000792,420.03999999992084,314.2600000000093,434.6600000000326],"keys_pressed":["rightarrow","rightarrow","leftarrow","rightarrow","leftarrow"],"horizon":5,"forced_choices":["rightarrow","rightarrow","leftarrow","rightarrow"],"right_color":"lightblue","left_color":"orange","left_mu":60,"right_mu":56,"left_numbers":[56,58,58,69,51],"right_numbers":[67,54,60,67,65],"points_earned":297,"phase":"task","trial_type":"horizons-task","trial_index":77,"time_elapsed":721534,"internal_node_id":"0.0-68.0","task_version":"0.2"},{"response_times":[1016.6349999998929,855.1049999999814,434.3499999999767,435.5950000000885,374.7750000000233,450.10999999998603,390.1049999999814,344.8050000000512,314.6049999999814,405.68499999993946],"keys_pressed":["leftarrow","leftarrow","rightarrow","leftarrow","rightarrow","leftarrow","rightarrow","leftarrow","rightarrow","leftarrow"],"horizon":10,"forced_choices":["leftarrow","leftarrow","rightarrow","leftarrow"],"right_color":"orange","left_color":"lightblue","left_mu":40,"right_mu":60,"left_numbers":[41,37,36,22,41,38,33,26,40,42],"right_numbers":[70,65,46,62,45,57,57,58,64,62],"points_earned":418,"phase":"task","trial_type":"horizons-task","trial_index":78,"time_elapsed":728062,"internal_node_id":"0.0-69.0","task_version":"0.2"},{"response_times":[564.2899999999208,553.8150000000605,450.0250000000233,495.1050000000978,315.0699999999488],"keys_pressed":["leftarrow","leftarrow","rightarrow","leftarrow","rightarrow"],"horizon":5,"forced_choices":["leftarrow","leftarrow","rightarrow","leftarrow"],"right_color":"orange","left_color":"lightblue","left_mu":40,"right_mu":60,"left_numbers":[46,37,45,40,54],"right_numbers":[54,59,45,64,71],"points_earned":239,"phase":"task","trial_type":"horizons-task","trial_index":79,"time_elapsed":731945,"internal_node_id":"0.0-70.0","task_version":"0.2"},{"response_times":[714.3550000000978,570.800000000163,569.7999999999302,464.7149999999674,315.6149999999907],"keys_pressed":["rightarrow","rightarrow","rightarrow","leftarrow","rightarrow"],"horizon":5,"forced_choices":["rightarrow","rightarrow","rightarrow","leftarrow"],"right_color":"orange","left_color":"lightblue","left_mu":60,"right_mu":30,"left_numbers":[60,55,69,50,59],"right_numbers":[21,27,35,25,44],"points_earned":177,"phase":"task","trial_type":"horizons-task","trial_index":80,"time_elapsed":736090,"internal_node_id":"0.0-71.0","task_version":"0.2"},{"response_times":[591.1650000000373,434.5699999999488,345.07499999995343,465.1149999999907,390],"keys_pressed":["rightarrow","leftarrow","rightarrow","leftarrow","rightarrow"],"horizon":5,"forced_choices":["rightarrow","leftarrow","rightarrow","leftarrow"],"right_color":"lightblue","left_color":"orange","left_mu":60,"right_mu":40,"left_numbers":[62,46,67,52,59],"right_numbers":[33,44,37,50,29],"points_earned":197,"phase":"task","trial_type":"horizons-task","trial_index":81,"time_elapsed":739824,"internal_node_id":"0.0-72.0","task_version":"0.2"},{"response_times":[547.4349999999395,419.7050000000745,343.8550000000978,360.7700000000186,374.83499999996275,435.2399999999907,510.00500000000466,390.2849999999162,359.9899999999907,314.92500000004657],"keys_pressed":["rightarrow","leftarrow","rightarrow","leftarrow","rightarrow","leftarrow","rightarrow","leftarrow","rightarrow","leftarrow"],"horizon":10,"forced_choices":["rightarrow","leftarrow","rightarrow","leftarrow"],"right_color":"lightblue","left_color":"orange","left_mu":60,"right_mu":90,"left_numbers":[56,62,64,45,74,58,60,70,54,59],"right_numbers":[103,82,88,112,88,80,96,83,89,80],"points_earned":758,"phase":"task","trial_type":"horizons-task","trial_index":82,"time_elapsed":745390,"internal_node_id":"0.0-73.0","task_version":"0.2"},{"response_times":[741.1100000001024,569.6650000000373,433.87999999988824,781.3100000000559,435.0799999999581,405.36999999999534,343.8149999999441,300.6600000000326,300.2149999999674,270.1850000000559],"keys_pressed":["leftarrow","leftarrow","rightarrow","rightarrow","leftarrow","rightarrow","leftarrow","rightarrow","leftarrow","rightarrow"],"horizon":10,"forced_choices":["leftarrow","leftarrow","rightarrow","rightarrow"],"right_color":"lightblue","left_color":"orange","left_mu":60,"right_mu":56,"left_numbers":[59,60,62,59,65,63,60,53,59,64],"right_numbers":[56,72,50,56,55,66,59,60,45,37],"points_earned":572,"phase":"task","trial_type":"horizons-task","trial_index":83,"time_elapsed":751479,"internal_node_id":"0.0-74.0","task_version":"0.2"},{"response_times":[786.5050000000047,555.2949999999255,524.6300000000047,449.68499999993946,585.4150000000373,405.3200000000652,434.74499999999534,344.3699999998789,345.6899999999441,359.7149999999674],"keys_pressed":["rightarrow","rightarrow","leftarrow","rightarrow","leftarrow","rightarrow","leftarrow","rightarrow","leftarrow","rightarrow"],"horizon":10,"forced_choices":["rightarrow","rightarrow","leftarrow","rightarrow"],"right_color":"lightblue","left_color":"orange","left_mu":60,"right_mu":56,"left_numbers":[71,67,61,69,54,63,68,67,66,67],"right_numbers":[40,66,63,46,60,48,63,57,53,58],"points_earned":564,"phase":"task","trial_type":"horizons-task","trial_index":84,"time_elapsed":757776,"internal_node_id":"0.0-75.0","task_version":"0.2"},{"response_times":[790.5049999998882,389.69999999995343,420.1350000000093,524.5300000000279,840.2900000000373,359.88999999989755,405.1699999999255,360.17499999993015,344.8850000000093,388.4649999999674],"keys_pressed":["leftarrow","rightarrow","leftarrow","rightarrow","leftarrow","rightarrow","leftarrow","rightarrow","leftarrow","rightarrow"],"horizon":10,"forced_choices":["leftarrow","rightarrow","leftarrow","rightarrow"],"right_color":"lightblue","left_color":"orange","left_mu":60,"right_mu":68,"left_numbers":[57,70,61,59,71,65,62,68,65,63],"right_numbers":[69,59,68,70,56,69,59,70,53,71],"points_earned":655,"phase":"task","trial_type":"horizons-task","trial_index":85,"time_elapsed":764105,"internal_node_id":"0.0-76.0","task_version":"0.2"},{"response_times":[776.0150000001304,464.5549999999348,794.5450000000419,525.4949999999953,780.0849999999627,449.8100000000559,403.92499999993015,345.0450000000419,418.9300000000512,1246.1500000000233],"keys_pressed":["rightarrow","leftarrow","leftarrow","rightarrow","leftarrow","rightarrow","leftarrow","rightarrow","leftarrow","leftarrow"],"horizon":10,"forced_choices":["rightarrow","leftarrow","leftarrow","rightarrow"],"right_color":"orange","left_color":"lightblue","left_mu":60,"right_mu":64,"left_numbers":[77,56,50,69,56,81,53,65,51,47],"right_numbers":[65,72,51,76,69,76,74,46,67,76],"points_earned":576,"phase":"task","trial_type":"horizons-task","trial_index":86,"time_elapsed":771816,"internal_node_id":"0.0-77.0","task_version":"0.2"},{"response_times":[654.3449999999721,404.9550000001909,870.2449999998789,659.4049999999115,419.73999999987427],"keys_pressed":["leftarrow","rightarrow","rightarrow","rightarrow","leftarrow"],"horizon":5,"forced_choices":["leftarrow","rightarrow","rightarrow","rightarrow"],"right_color":"lightblue","left_color":"orange","left_mu":40,"right_mu":20,"left_numbers":[33,48,50,45,38],"right_numbers":[27,29,14,28,20],"points_earned":142,"phase":"task","trial_type":"horizons-task","trial_index":87,"time_elapsed":776330,"internal_node_id":"0.0-78.0","task_version":"0.2"},{"response_times":[716.7649999998976,434.6349999998929,810.4849999998696,435.125,419.4849999998696,510.18499999993946,420.2149999999674,374.66499999992084,390.1850000000559,360.14000000001397],"keys_pressed":["leftarrow","rightarrow","rightarrow","leftarrow","rightarrow","leftarrow","rightarrow","leftarrow","rightarrow","leftarrow"],"horizon":10,"forced_choices":["leftarrow","rightarrow","rightarrow","leftarrow"],"right_color":"orange","left_color":"lightblue","left_mu":40,"right_mu":60,"left_numbers":[37,42,46,41,34,46,44,38,40,35],"right_numbers":[51,52,58,53,70,68,70,64,74,63],"points_earned":521,"phase":"task","trial_type":"horizons-task","trial_index":88,"time_elapsed":782710,"internal_node_id":"0.0-79.0","task_version":"0.2"},{"response_times":[651.0699999999488,419.5449999999255,330.5449999999255,718.5900000000838,391.0449999999255,479.9749999999767,373.0299999999115,271.98999999987427,390.20999999984633,404.36999999999534],"keys_pressed":["rightarrow","leftarrow","rightarrow","rightarrow","leftarrow","rightarrow","leftarrow","rightarrow","leftarrow","rightarrow"],"horizon":10,"forced_choices":["rightarrow","leftarrow","rightarrow","rightarrow"],"right_color":"lightblue","left_color":"orange","left_mu":60,"right_mu":90,"left_numbers":[49,60,58,59,66,56,64,62,56,51],"right_numbers":[102,87,83,83,78,88,95,92,101,90],"points_earned":784,"phase":"task","trial_type":"horizons-task","trial_index":89,"time_elapsed":788649,"internal_node_id":"0.0-80.0","task_version":"0.2"},{"response_times":[637.1900000000605,660.1350000001257,796.1199999999953,659.0050000000047,464.7600000000093],"keys_pressed":["rightarrow","leftarrow","leftarrow","leftarrow","rightarrow"],"horizon":5,"forced_choices":["rightarrow","leftarrow","leftarrow","leftarrow"],"right_color":"lightblue","left_color":"orange","left_mu":40,"right_mu":70,"left_numbers":[33,43,24,23,43],"right_numbers":[46,55,65,89,77],"points_earned":213,"phase":"task","trial_type":"horizons-task","trial_index":90,"time_elapsed":793373,"internal_node_id":"0.0-81.0","task_version":"0.2"},{"response_times":[653.140000000014,614.875,449.8149999999441,630.0549999999348,403.78000000002794],"keys_pressed":["leftarrow","leftarrow","rightarrow","rightarrow","leftarrow"],"horizon":5,"forced_choices":["leftarrow","leftarrow","rightarrow","rightarrow"],"right_color":"lightblue","left_color":"orange","left_mu":40,"right_mu":20,"left_numbers":[34,44,32,40,38],"right_numbers":[27,23,23,6,31],"points_earned":145,"phase":"task","trial_type":"horizons-task","trial_index":91,"time_elapsed":797630,"internal_node_id":"0.0-82.0","task_version":"0.2"},{"response_times":[568.5700000000652,582.7600000000093,480.67499999993015,643.890000000014,436.07499999995343],"keys_pressed":["rightarrow","rightarrow","leftarrow","leftarrow","rightarrow"],"horizon":5,"forced_choices":["rightarrow","rightarrow","leftarrow","leftarrow"],"right_color":"lightblue","left_color":"orange","left_mu":60,"right_mu":52,"left_numbers":[67,47,64,61,62],"right_numbers":[40,49,45,60,67],"points_earned":281,"phase":"task","trial_type":"horizons-task","trial_index":92,"time_elapsed":801847,"internal_node_id":"0.0-83.0","task_version":"0.2"},{"response_times":[774.4149999999208,525.1899999999441,479.1600000000326,405.2799999999115,810.4349999999395,449.69000000006054,419.5050000001211,329.7700000000186,315.2049999999581,494.7150000000838],"keys_pressed":["rightarrow","rightarrow","leftarrow","rightarrow","leftarrow","rightarrow","leftarrow","rightarrow","leftarrow","rightarrow"],"horizon":10,"forced_choices":["rightarrow","rightarrow","leftarrow","rightarrow"],"right_color":"orange","left_color":"lightblue","left_mu":40,"right_mu":28,"left_numbers":[35,45,39,49,41,47,31,33,32,35],"right_numbers":[10,21,32,34,13,17,27,33,20,8],"points_earned":266,"phase":"task","trial_type":"horizons-task","trial_index":93,"time_elapsed":808357,"internal_node_id":"0.0-84.0","task_version":"0.2"},{"response_times":[699.2550000000047,374.58500000007916,630.9000000000233,538.5999999999767,511.3400000000838,420.57500000006985,449.39000000001397,315.2149999999674,344.13000000000466,330.8300000000745],"keys_pressed":["leftarrow","rightarrow","rightarrow","rightarrow","leftarrow","rightarrow","leftarrow","rightarrow","leftarrow","rightarrow"],"horizon":10,"forced_choices":["leftarrow","rightarrow","rightarrow","rightarrow"],"right_color":"orange","left_color":"lightblue","left_mu":60,"right_mu":64,"left_numbers":[64,37,69,56,56,64,67,50,47,68],"right_numbers":[63,69,70,69,54,57,65,65,59,75],"points_earned":639,"phase":"task","trial_type":"horizons-task","trial_index":94,"time_elapsed":814479,"internal_node_id":"0.0-85.0","task_version":"0.2"},{"response_times":[743.0850000000792,524.2349999998696,479.8950000000186,374.2600000000093,391.535000000149],"keys_pressed":["rightarrow","rightarrow","leftarrow","rightarrow","leftarrow"],"horizon":5,"forced_choices":["rightarrow","rightarrow","leftarrow","rightarrow"],"right_color":"orange","left_color":"lightblue","left_mu":40,"right_mu":44,"left_numbers":[33,29,56,42,29],"right_numbers":[43,47,37,59,40],"points_earned":234,"phase":"task","trial_type":"horizons-task","trial_index":95,"time_elapsed":818501,"internal_node_id":"0.0-86.0","task_version":"0.2"},{"response_times":[590.5649999999441,554.9150000000373,525.0250000000233,404.09499999997206,375.9450000000652,524.604999999865,374.67500000004657,255.65000000002328,329.7750000000233,344.9749999999767],"keys_pressed":["rightarrow","rightarrow","leftarrow","rightarrow","leftarrow","rightarrow","leftarrow","rightarrow","leftarrow","rightarrow"],"horizon":10,"forced_choices":["rightarrow","rightarrow","leftarrow","rightarrow"],"right_color":"orange","left_color":"lightblue","left_mu":40,"right_mu":44,"left_numbers":[41,43,36,36,27,36,30,36,39,54],"right_numbers":[28,36,56,41,44,61,39,46,54,31],"points_earned":375,"phase":"task","trial_type":"horizons-task","trial_index":96,"time_elapsed":824286,"internal_node_id":"0.0-87.0","task_version":"0.2"},{"rt":12918.534999999916,"responses":{"age":"29","gender-categorical":"Male","gender-free-response":"","ethnicity":"Not Hispanic or Latino","race":["White"],"language":"Yes","fluency":"Very well"},"survey":"demographics","trial_type":"survey-demo","trial_index":97,"time_elapsed":837209,"internal_node_id":"0.0-88.0","task_version":"0.2"},{"rt":17575.804999999935,"responses":{"difficulty":"5","fun":"5","clarity":"5","strategy":"Memorization","feedback":"This was fun. Thanks!"},"survey":"debrief","trial_type":"survey-debrief","trial_index":98,"time_elapsed":854788,"internal_node_id":"0.0-89.0","task_version":"0.2","interactions":"[{\"event\":\"blur\",\"trial\":56,\"time\":598847},{\"event\":\"focus\",\"trial\":56,\"time\":610210}]"}]