[{"view_history":"[{\"page_index\":0,\"viewing_time\":5051.875000004657}]","rt":5054.6149999136105,"trial_type":"instructions","trial_index":0,"time_elapsed":5072,"internal_node_id":"0.0-0.0","task_version":"0.2"},{"item_order":[10,5,8,6,11,9,12,0,7,1,2,3,4],"responses":{"Q11":"2","Q06":"0","Q09":"1","Q07":"1","Q12":"2","Q10":"0","Q13":"4","Q01":"1","Q08":"2","Q02":"2","Q03":"1","Q04":"1","Q05":"0"},"radio_events":[9954.464999958873,16767.90999993682,22703.519999980927,31934.164999984205,37008.06999998167,41593.89999997802,44350.31499993056,55006.20999990497,62860.0949998945,65694.11499996204,69664.27499998827,76848.16999989562,82720.26499989443],"key_events":[],"mouse_events":[0.26000000070780516,9954.464999958873,16767.90999993682,22703.519999980927,31934.164999984205,37008.06999998167,41593.89999997802,44350.31499993056,55006.20999990497,62860.0949998945,65694.11499996204,69664.27499998827,76848.16999989562,82720.26499989443,85445.00499998685],"rt":85451.9099999452,"survey":"ius12","trial_type":"survey-template","trial_index":1,"time_elapsed":90541,"internal_node_id":"0.0-1.0","task_version":"0.2"},{"item_order":[8,2,11,6,13,14,4,0,7,5,3,15,9,1,16,10,12],"responses":{"Q09":"1","Q03":"1","Q12":"1","Q07":"1","Q14":"1","Q15":"1","Q05":"1","Q01":"1","Q08":"1","Q06":"1","Q04":"1","Q16":"2","Q10":"2","Q02":"0","Q17":"0","Q11":"1","Q13":"1"},"radio_events":[5990.869999979623,10734.36500004027,13285.015000030398,18492.730000056326,24428.32000006456,27843.100000056438,29473.83000003174,31273.105000029318,35211.209999979474,39173.19000000134,45653.36500003468,106372.98500002362,108724.96500005946,110453.28999997582,112646.59000001848,120366.78000004031,122711.02000004612,125362.99499997403,132491.14499997813,139129.30999998935],"key_events":[],"mouse_events":[5990.869999979623,10734.36500004027,12859.784999978729,13285.015000030398,18492.730000056326,24428.32000006456,27843.100000056438,29473.83000003174,31273.105000029318,35211.209999979474,39173.19000000134,45653.36500003468,106372.98500002362,108724.96500005946,110453.28999997582,112646.59000001848,120366.78000004031,122711.02000004612,125362.99499997403,132491.14499997813,139129.30999998935,140273.09999999125],"rt":140282.14500006288,"survey":"pswq","trial_type":"survey-template","trial_index":2,"time_elapsed":230838,"internal_node_id":"0.0-2.0","task_version":"0.2"},{"item_order":[2,6,13,1,3,9,11,4,8,15,0,5,12,10,7,14],"responses":{"Q03":"3","Q07":"3","Q14":"2","Q02":"1","Q04":"1","Q10":"1","Q12":"3","Q05":"1","Q09":"1","Q16":"5","Q01":"3","Q06":"3","Q13":"3","Q11":"3","Q08":"3","Q15":"2"},"radio_events":[11520.635000080802,14734.795000054874,21707.16000010725,26542.625000001863,30944.830000051297,38096.63500008173,56399.01500009,64362.700000056066,73698.8400000846,80178.45500004478,87400.79500002321,94149.16000002995,98764.86500003375,103982.36000002362,112349.1900000954,119616.80499999784,122710.68000001833],"key_events":[],"mouse_events":[11520.635000080802,14734.795000054874,21707.16000010725,26542.625000001863,30944.830000051297,37826.3750000624,38096.63500008173,56399.01500009,64362.700000056066,73698.8400000846,80178.45500004478,87400.79500002321,94149.16000002995,98764.86500003375,103982.36000002362,112349.1900000954,119616.80499999784,122710.68000001833,124714.71500000916],"rt":124723.92000001855,"survey":"nfc","trial_type":"survey-template","trial_index":3,"time_elapsed":355579,"internal_node_id":"0.0-3.0","task_version":"0.2"},{"view_history":"[{\"page_index\":0,\"viewing_time\":5151.424999930896},{\"page_index\":1,\"viewing_time\":7149.815000011586},{\"page_index\":2,\"viewing_time\":11255.865000071935},{\"page_index\":3,\"viewing_time\":10790.064999950118},{\"page_index\":4,\"viewing_time\":7220.39000003133},{\"page_index\":5,\"viewing_time\":6013.425000011921},{\"page_index\":6,\"viewing_time\":10402.104999986477},{\"page_index\":7,\"viewing_time\":8208.044999977574},{\"page_index\":8,\"viewing_time\":10342.214999953285},{\"page_index\":9,\"viewing_time\":17623.71500011068}]","rt":94157.87500003353,"trial_type":"instructions","trial_index":4,"time_elapsed":449740,"internal_node_id":"0.0-4.0-0.0","task_version":"0.2"},{"response_times":[4181.940000038594,4445.774999912828,4023.3649999136105,5075.780000071973,6498.544999980368],"keys_pressed":["rightarrow","leftarrow","rightarrow","rightarrow","leftarrow"],"horizon":5,"forced_choices":["rightarrow","leftarrow","rightarrow","rightarrow"],"right_color":"lightblue","left_color":"orange","left_mu":40,"right_mu":20,"left_numbers":[34,36,50,41,50],"right_numbers":[21,29,24,23,16],"points_earned":154,"phase":"practice","trial_type":"horizons-task","trial_index":5,"time_elapsed":475490,"internal_node_id":"0.0-4.0-1.0","task_version":"0.2"},{"response_times":[2956.4750000135973,1646.3150000199676,1349.1900000954047,1513.1700000492856,4269.8200000450015,5993.580000009388,1008.8349999859929,3589.170000050217,2465.830000001006,6902.195000089705],"keys_pressed":["leftarrow","leftarrow","rightarrow","rightarrow","rightarrow","rightarrow","leftarrow","rightarrow","rightarrow","rightarrow"],"horizon":10,"forced_choices":["leftarrow","leftarrow","rightarrow","rightarrow"],"right_color":"orange","left_color":"lightblue","left_mu":60,"right_mu":70,"left_numbers":[62,61,55,57,62,67,56,69,67,68],"right_numbers":[63,60,93,69,84,56,87,62,61,64],"points_earned":668,"phase":"practice","trial_type":"horizons-task","trial_index":6,"time_elapsed":508693,"internal_node_id":"0.0-4.0-2.0","task_version":"0.2"},{"view_history":"[{\"page_index\":0,\"viewing_time\":3445.575000019744},{\"page_index\":1,\"viewing_time\":4870.054999948479},{\"page_index\":2,\"viewing_time\":6131.889999960549},{\"page_index\":3,\"viewing_time\":4600.230000098236}]","rt":19048.31500002183,"trial_type":"instructions","trial_index":7,"time_elapsed":527743,"internal_node_id":"0.0-4.0-3.0","task_version":"0.2"},{"responses":["true","false","true"],"num_errors":0,"rt":14508.890000055544,"trial_type":"horizons-comprehension","trial_index":8,"time_elapsed":542258,"internal_node_id":"0.0-4.0-4.0","task_version":"0.2"},{"trial_type":"call-function","trial_index":9,"time_elapsed":542266,"internal_node_id":"0.0-5.0","task_version":"0.2"},{"view_history":"[{\"page_index\":0,\"viewing_time\":3182.4050000868738},{\"page_index\":1,\"viewing_time\":7267.875000019558}]","rt":10450.840000063181,"trial_type":"instructions","trial_index":10,"time_elapsed":552719,"internal_node_id":"0.0-6.0","task_version":"0.2"},{"response_times":[1951.0299999965355,1124.6099999407306,1006.4300000667572,1070.5099999904633,2095.619999920018],"keys_pressed":["leftarrow","rightarrow","leftarrow","leftarrow","rightarrow"],"horizon":5,"forced_choices":["leftarrow","rightarrow","leftarrow","leftarrow"],"right_color":"orange","left_color":"lightblue","left_mu":40,"right_mu":52,"left_numbers":[36,32,30,34,45],"right_numbers":[59,59,59,50,42],"points_earned":201,"phase":"task","trial_type":"horizons-task","trial_index":11,"time_elapsed":561482,"internal_node_id":"0.0-7.0","task_version":"0.2"},{"response_times":[2314.1949999844655,1546.0599999642,2000.3799999831244,1692.2450000420213,6724.554999964312],"keys_pressed":["rightarrow","rightarrow","leftarrow","rightarrow","leftarrow"],"horizon":5,"forced_choices":["rightarrow","rightarrow","leftarrow","rightarrow"],"right_color":"lightblue","left_color":"orange","left_mu":60,"right_mu":48,"left_numbers":[58,62,59,56,63],"right_numbers":[53,47,52,53,53],"points_earned":275,"phase":"task","trial_type":"horizons-task","trial_index":12,"time_elapsed":577264,"internal_node_id":"0.0-8.0","task_version":"0.2"},{"response_times":[1123.7750001018867,1454.814999946393,982.3649999452755,988.1799999857321,4600.180000066757,4118.365000002086,3289.005000027828,4673.185000079684,796.3699999963865,614.3199999351054],"keys_pressed":["leftarrow","rightarrow","rightarrow","rightarrow","leftarrow","leftarrow","leftarrow","leftarrow","leftarrow","leftarrow"],"horizon":10,"forced_choices":["leftarrow","rightarrow","rightarrow","rightarrow"],"right_color":"orange","left_color":"lightblue","left_mu":60,"right_mu":56,"left_numbers":[58,55,42,65,52,67,58,64,58,58],"right_numbers":[63,53,58,51,58,56,65,64,69,47],"points_earned":577,"phase":"task","trial_type":"horizons-task","trial_index":13,"time_elapsed":601409,"internal_node_id":"0.0-9.0","task_version":"0.2"},{"response_times":[1056.9100000429899,804.5550000388175,620.8900000201538,902.0299999974668,5335.259999963455],"keys_pressed":["leftarrow","leftarrow","rightarrow","leftarrow","rightarrow"],"horizon":5,"forced_choices":["leftarrow","leftarrow","rightarrow","leftarrow"],"right_color":"lightblue","left_color":"orange","left_mu":60,"right_mu":52,"left_numbers":[65,51,63,69,41],"right_numbers":[43,32,64,55,48],"points_earned":297,"phase":"task","trial_type":"horizons-task","trial_index":14,"time_elapsed":611637,"internal_node_id":"0.0-10.0","task_version":"0.2"},{"response_times":[905.2649999503046,830.3200000664219,836.4000000292435,840.1700000977144,3622.6999999489635,2592.4850000301376,1598.5599999548867,842.354999971576,1148.3299999963492,496.309999958612],"keys_pressed":["leftarrow","leftarrow","rightarrow","leftarrow","leftarrow","leftarrow","leftarrow","leftarrow","leftarrow","leftarrow"],"horizon":10,"forced_choices":["leftarrow","leftarrow","rightarrow","leftarrow"],"right_color":"lightblue","left_color":"orange","left_mu":60,"right_mu":52,"left_numbers":[47,68,71,55,64,70,71,56,68,61],"right_numbers":[55,61,55,39,31,48,45,52,45,49],"points_earned":615,"phase":"task","trial_type":"horizons-task","trial_index":15,"time_elapsed":626873,"internal_node_id":"0.0-11.0","task_version":"0.2"},{"response_times":[827.9849999817088,898.7200000556186,971.0249999770895,1279.1399999987334,1792.479999945499],"keys_pressed":["rightarrow","leftarrow","rightarrow","rightarrow","leftarrow"],"horizon":5,"forced_choices":["rightarrow","leftarrow","rightarrow","rightarrow"],"right_color":"orange","left_color":"lightblue","left_mu":40,"right_mu":36,"left_numbers":[34,45,44,45,48],"right_numbers":[33,44,42,20,30],"points_earned":188,"phase":"task","trial_type":"horizons-task","trial_index":16,"time_elapsed":634149,"internal_node_id":"0.0-12.0","task_version":"0.2"},{"response_times":[2708.600000012666,784.8549999762326,569.1999999107793,1158.724999986589,2519.6199999190867,2512.3550000134856,2120.835000067018,649.3350000819191,621.8800001079217,660.0450000260025],"keys_pressed":["leftarrow","leftarrow","leftarrow","rightarrow","rightarrow","rightarrow","rightarrow","rightarrow","rightarrow","rightarrow"],"horizon":10,"forced_choices":["leftarrow","leftarrow","leftarrow","rightarrow"],"right_color":"lightblue","left_color":"orange","left_mu":60,"right_mu":72,"left_numbers":[65,47,64,69,49,52,58,66,61,65],"right_numbers":[67,84,59,81,85,73,70,75,71,63],"points_earned":694,"phase":"task","trial_type":"horizons-task","trial_index":17,"time_elapsed":649960,"internal_node_id":"0.0-13.0","task_version":"0.2"},{"response_times":[1074.6450000442564,652.3750000633299,1451.3450000667945,908.1200000364333,2215.8099999651313,1513.5050000390038,622.9899999452755,519.7400000179186,636.9649999542162,482.42999997455627],"keys_pressed":["leftarrow","rightarrow","leftarrow","leftarrow","leftarrow","leftarrow","leftarrow","leftarrow","leftarrow","leftarrow"],"horizon":10,"forced_choices":["leftarrow","rightarrow","leftarrow","leftarrow"],"right_color":"orange","left_color":"lightblue","left_mu":40,"right_mu":10,"left_numbers":[37,41,36,39,45,46,45,51,50,52],"right_numbers":[15,0,13,14,0,15,13,14,11,9],"points_earned":401,"phase":"task","trial_type":"horizons-task","trial_index":18,"time_elapsed":661557,"internal_node_id":"0.0-14.0","task_version":"0.2"},{"response_times":[715.8000000054017,1243.514999980107,660.8850000193343,902.6099999900907,7418.790000025183,903.775000013411,2666.0249999258667,4051.795000093989,683.2450000802055,843.4950000373647],"keys_pressed":["rightarrow","leftarrow","leftarrow","rightarrow","leftarrow","leftarrow","leftarrow","rightarrow","rightarrow","leftarrow"],"horizon":10,"forced_choices":["rightarrow","leftarrow","leftarrow","rightarrow"],"right_color":"lightblue","left_color":"orange","left_mu":60,"right_mu":30,"left_numbers":[59,55,43,70,71,57,58,85,57,53],"right_numbers":[25,22,38,48,13,30,29,35,32,27],"points_earned":477,"phase":"task","trial_type":"horizons-task","trial_index":19,"time_elapsed":683159,"internal_node_id":"0.0-15.0","task_version":"0.2"},{"response_times":[2773.405000101775,494.440000038594,639.1350000631064,721.3749999646097,6512.209999957122,3431.110000004992,588.05499994196,611.5899999858811,509.7550000064075,363.3200000040233],"keys_pressed":["rightarrow","leftarrow","rightarrow","leftarrow","rightarrow","rightarrow","rightarrow","rightarrow","rightarrow","rightarrow"],"horizon":10,"forced_choices":["rightarrow","leftarrow","rightarrow","leftarrow"],"right_color":"lightblue","left_color":"orange","left_mu":60,"right_mu":48,"left_numbers":[55,36,66,61,68,49,61,60,64,60],"right_numbers":[47,50,52,50,44,58,46,53,50,47],"points_earned":494,"phase":"task","trial_type":"horizons-task","trial_index":20,"time_elapsed":701307,"internal_node_id":"0.0-16.0","task_version":"0.2"},{"response_times":[1072.6100000320002,915.7300000078976,554.6549999853596,670.5150000052527,5781.480000005104,23082.975000026636,775.3100000554696,1021.3399999774992,502.9399999184534,408.060000045225],"keys_pressed":["rightarrow","rightarrow","leftarrow","leftarrow","rightarrow","leftarrow","leftarrow","rightarrow","rightarrow","rightarrow"],"horizon":10,"forced_choices":["rightarrow","rightarrow","leftarrow","leftarrow"],"right_color":"orange","left_color":"lightblue","left_mu":40,"right_mu":36,"left_numbers":[48,44,34,20,51,46,33,36,43,45],"right_numbers":[35,24,34,33,24,22,36,38,27,35],"points_earned":316,"phase":"task","trial_type":"horizons-task","trial_index":21,"time_elapsed":737600,"internal_node_id":"0.0-17.0","task_version":"0.2"},{"response_times":[1074.7849999461323,382.28000001981854,492.0449999626726,6516.945000039414,2501.99000001885,699.6999999973923,574.8049999820068,458.79999990575016,424.5149999624118,435.5249999789521],"keys_pressed":["leftarrow","rightarrow","rightarrow","leftarrow","leftarrow","leftarrow","leftarrow","leftarrow","leftarrow","leftarrow"],"horizon":10,"forced_choices":["leftarrow","rightarrow","rightarrow","leftarrow"],"right_color":"lightblue","left_color":"orange","left_mu":40,"right_mu":20,"left_numbers":[33,38,43,44,28,33,48,40,24,46],"right_numbers":[23,16,18,21,31,30,15,16,32,23],"points_earned":330,"phase":"task","trial_type":"horizons-task","trial_index":22,"time_elapsed":752668,"internal_node_id":"0.0-18.0","task_version":"0.2"},{"response_times":[678.0750000616536,405.67500004544854,478.0100000789389,432.0300000254065,2160.4900000384077,458.55500001925975,595.7849998958409,429.83499995898455,319.06000000890344,430.78000005334616],"keys_pressed":["leftarrow","rightarrow","leftarrow","rightarrow","leftarrow","leftarrow","leftarrow","leftarrow","leftarrow","leftarrow"],"horizon":10,"forced_choices":["leftarrow","rightarrow","leftarrow","rightarrow"],"right_color":"orange","left_color":"lightblue","left_mu":40,"right_mu":10,"left_numbers":[41,44,20,55,40,30,29,35,41,53],"right_numbers":[0,1,1,9,7,2,11,0,17,18],"points_earned":299,"phase":"task","trial_type":"horizons-task","trial_index":23,"time_elapsed":760561,"internal_node_id":"0.0-19.0","task_version":"0.2"},{"response_times":[810.8699999283999,495.8149999147281,1761.4199999952689,4730.325000011362,781.5000000409782],"keys_pressed":["rightarrow","leftarrow","leftarrow","rightarrow","leftarrow"],"horizon":5,"forced_choices":["rightarrow","leftarrow","leftarrow","rightarrow"],"right_color":"lightblue","left_color":"orange","left_mu":60,"right_mu":30,"left_numbers":[69,61,58,72,47],"right_numbers":[31,34,28,23,33],"points_earned":220,"phase":"task","trial_type":"horizons-task","trial_index":24,"time_elapsed":770648,"internal_node_id":"0.0-20.0","task_version":"0.2"},{"response_times":[888.1449999753386,565.9499999601394,567.3099999548867,612.9049999872223,6357.634999905713,819.4900000235066,540.9649999346584,415.83499999251217,704.8200001008809,426.4550000661984],"keys_pressed":["rightarrow","leftarrow","leftarrow","leftarrow","leftarrow","leftarrow","leftarrow","leftarrow","leftarrow","leftarrow"],"horizon":10,"forced_choices":["rightarrow","leftarrow","leftarrow","leftarrow"],"right_color":"lightblue","left_color":"orange","left_mu":40,"right_mu":44,"left_numbers":[33,41,43,24,36,43,49,28,49,32],"right_numbers":[38,40,39,29,35,43,48,40,44,39],"points_earned":383,"phase":"task","trial_type":"horizons-task","trial_index":25,"time_elapsed":784053,"internal_node_id":"0.0-21.0","task_version":"0.2"},{"response_times":[749.6200000168756,368.5250000562519,398.47500005271286,432.6750000473112,1599.4900000514463],"keys_pressed":["leftarrow","rightarrow","leftarrow","rightarrow","rightarrow"],"horizon":5,"forced_choices":["leftarrow","rightarrow","leftarrow","rightarrow"],"right_color":"orange","left_color":"lightblue","left_mu":60,"right_mu":90,"left_numbers":[53,64,59,50,46],"right_numbers":[85,78,104,86,92],"points_earned":368,"phase":"task","trial_type":"horizons-task","trial_index":26,"time_elapsed":789106,"internal_node_id":"0.0-22.0","task_version":"0.2"},{"response_times":[1423.600000096485,670.9950000513345,480.87000008672476,1222.8850000537932,15191.039999946952],"keys_pressed":["rightarrow","rightarrow","rightarrow","leftarrow","rightarrow"],"horizon":5,"forced_choices":["rightarrow","rightarrow","rightarrow","leftarrow"],"right_color":"orange","left_color":"lightblue","left_mu":40,"right_mu":32,"left_numbers":[36,37,53,36,42],"right_numbers":[23,31,40,17,25],"points_earned":155,"phase":"task","trial_type":"horizons-task","trial_index":27,"time_elapsed":809599,"internal_node_id":"0.0-23.0","task_version":"0.2"},{"response_times":[795.7349999342114,332.0700000040233,476.1850000359118,410.75000003911555,1335.1450000191107],"keys_pressed":["leftarrow","rightarrow","leftarrow","rightarrow","rightarrow"],"horizon":5,"forced_choices":["leftarrow","rightarrow","leftarrow","rightarrow"],"right_color":"orange","left_color":"lightblue","left_mu":40,"right_mu":60,"left_numbers":[36,66,21,43,45],"right_numbers":[50,61,74,66,74],"points_earned":258,"phase":"task","trial_type":"horizons-task","trial_index":28,"time_elapsed":814459,"internal_node_id":"0.0-24.0","task_version":"0.2"},{"response_times":[810.1299999980256,1150.0199999427423,842.6200000103563,1449.87500004936,10101.274999906309,1184.4050000654534,696.1150000570342,621.3899999856949,629.2949999915436,395.07500000763685],"keys_pressed":["leftarrow","leftarrow","leftarrow","rightarrow","leftarrow","leftarrow","leftarrow","leftarrow","leftarrow","leftarrow"],"horizon":10,"forced_choices":["leftarrow","leftarrow","leftarrow","rightarrow"],"right_color":"lightblue","left_color":"orange","left_mu":60,"right_mu":64,"left_numbers":[50,64,66,49,54,63,59,48,47,64],"right_numbers":[59,54,63,57,57,60,61,63,58,42],"points_earned":572,"phase":"task","trial_type":"horizons-task","trial_index":29,"time_elapsed":833847,"internal_node_id":"0.0-25.0","task_version":"0.2"},{"response_times":[655.9800000395626,519.2800000077114,482.62000002432615,611.380000016652,3752.5250000180677,735.3100000182167,365.4399999650195,490.8149999100715,359.0250000124797,338.2500000298023],"keys_pressed":["rightarrow","leftarrow","rightarrow","rightarrow","rightarrow","rightarrow","rightarrow","rightarrow","rightarrow","rightarrow"],"horizon":10,"forced_choices":["rightarrow","leftarrow","rightarrow","rightarrow"],"right_color":"lightblue","left_color":"orange","left_mu":60,"right_mu":80,"left_numbers":[49,58,53,72,62,58,48,61,48,52],"right_numbers":[87,79,61,72,79,66,74,71,91,86],"points_earned":745,"phase":"task","trial_type":"horizons-task","trial_index":30,"time_elapsed":843662,"internal_node_id":"0.0-26.0","task_version":"0.2"},{"response_times":[803.9300000527874,795.9699999773875,535.8450000640005,2390.739999944344,2690.650000004098],"keys_pressed":["leftarrow","leftarrow","rightarrow","leftarrow","rightarrow"],"horizon":5,"forced_choices":["leftarrow","leftarrow","rightarrow","leftarrow"],"right_color":"orange","left_color":"lightblue","left_mu":60,"right_mu":90,"left_numbers":[56,63,65,49,54],"right_numbers":[85,94,86,86,103],"points_earned":357,"phase":"task","trial_type":"horizons-task","trial_index":31,"time_elapsed":852385,"internal_node_id":"0.0-27.0","task_version":"0.2"},{"response_times":[715.8650000346825,571.1250000167638,574.9500000383705,787.1699999086559,2886.115000001155],"keys_pressed":["leftarrow","leftarrow","rightarrow","leftarrow","leftarrow"],"horizon":5,"forced_choices":["leftarrow","leftarrow","rightarrow","leftarrow"],"right_color":"orange","left_color":"lightblue","left_mu":40,"right_mu":28,"left_numbers":[41,35,32,39,40],"right_numbers":[36,22,23,21,32],"points_earned":178,"phase":"task","trial_type":"horizons-task","trial_index":32,"time_elapsed":859424,"internal_node_id":"0.0-28.0","task_version":"0.2"},{"response_times":[807.935000048019,457.7050000661984,390.68000006955117,533.9699999894947,3524.625000078231,1463.9450000831857,4504.599999985658,900.9949999162927,653.2100000185892,382.0350000169128],"keys_pressed":["rightarrow","leftarrow","rightarrow","leftarrow","rightarrow","rightarrow","rightarrow","rightarrow","rightarrow","rightarrow"],"horizon":10,"forced_choices":["rightarrow","leftarrow","rightarrow","leftarrow"],"right_color":"orange","left_color":"lightblue","left_mu":40,"right_mu":52,"left_numbers":[35,37,30,50,35,39,21,41,40,24],"right_numbers":[59,41,49,54,45,54,51,64,42,50],"points_earned":501,"phase":"task","trial_type":"horizons-task","trial_index":33,"time_elapsed":874550,"internal_node_id":"0.0-29.0","task_version":"0.2"},{"response_times":[1351.96499992162,480.0350000150502,792.4649999476969,1856.2549999915063,4411.795000080019],"keys_pressed":["leftarrow","rightarrow","rightarrow","leftarrow","leftarrow"],"horizon":5,"forced_choices":["leftarrow","rightarrow","rightarrow","leftarrow"],"right_color":"lightblue","left_color":"orange","left_mu":40,"right_mu":20,"left_numbers":[33,37,40,51,42],"right_numbers":[26,24,17,28,22],"points_earned":167,"phase":"task","trial_type":"horizons-task","trial_index":34,"time_elapsed":884950,"internal_node_id":"0.0-30.0","task_version":"0.2"},{"response_times":[727.1349999355152,468.05000002495944,515.8900000387803,791.3899999111891,4390.299999970011],"keys_pressed":["rightarrow","leftarrow","leftarrow","leftarrow","leftarrow"],"horizon":5,"forced_choices":["rightarrow","leftarrow","leftarrow","leftarrow"],"right_color":"lightblue","left_color":"orange","left_mu":40,"right_mu":44,"left_numbers":[41,46,28,31,39],"right_numbers":[33,46,43,38,50],"points_earned":177,"phase":"task","trial_type":"horizons-task","trial_index":35,"time_elapsed":893347,"internal_node_id":"0.0-31.0","task_version":"0.2"},{"response_times":[734.5400000922382,459.789999993518,465.8099999651313,488.54000004939735,1427.670000004582],"keys_pressed":["rightarrow","leftarrow","leftarrow","rightarrow","rightarrow"],"horizon":5,"forced_choices":["rightarrow","leftarrow","leftarrow","rightarrow"],"right_color":"lightblue","left_color":"orange","left_mu":40,"right_mu":70,"left_numbers":[46,35,40,50,37],"right_numbers":[59,65,63,57,81],"points_earned":272,"phase":"task","trial_type":"horizons-task","trial_index":36,"time_elapsed":898430,"internal_node_id":"0.0-32.0","task_version":"0.2"},{"response_times":[758.2099999999627,470.00999993178993,989.8350000148639,777.485000086017,1624.8100000666454],"keys_pressed":["leftarrow","rightarrow","leftarrow","leftarrow","leftarrow"],"horizon":5,"forced_choices":["leftarrow","rightarrow","leftarrow","leftarrow"],"right_color":"orange","left_color":"lightblue","left_mu":40,"right_mu":10,"left_numbers":[29,31,32,43,45],"right_numbers":[17,3,0,19,4],"points_earned":152,"phase":"task","trial_type":"horizons-task","trial_index":37,"time_elapsed":904556,"internal_node_id":"0.0-33.0","task_version":"0.2"},{"response_times":[618.9350000349805,603.8900000276044,765.5850000446662,675.2300000516698,1721.235000062734,1854.4249999104068,654.9050000030547,809.7500000149012,500.9499998996034,281.14500001538545],"keys_pressed":["rightarrow","rightarrow","leftarrow","rightarrow","leftarrow","leftarrow","leftarrow","leftarrow","leftarrow","leftarrow"],"horizon":10,"forced_choices":["rightarrow","rightarrow","leftarrow","rightarrow"],"right_color":"lightblue","left_color":"orange","left_mu":60,"right_mu":48,"left_numbers":[67,63,67,73,51,66,50,59,62,59],"right_numbers":[50,43,63,43,47,58,45,52,40,41],"points_earned":550,"phase":"task","trial_type":"horizons-task","trial_index":38,"time_elapsed":914546,"internal_node_id":"0.0-34.0","task_version":"0.2"},{"response_times":[783.7000000290573,381.5750000067055,392.10499997716397,428.2050000037998,1993.1099999230355,1213.969999924302,532.0849999552593,538.2149999495596,379.85999998636544,356.07999993953854],"keys_pressed":["leftarrow","rightarrow","leftarrow","rightarrow","rightarrow","rightarrow","rightarrow","rightarrow","rightarrow","rightarrow"],"horizon":10,"forced_choices":["leftarrow","rightarrow","leftarrow","rightarrow"],"right_color":"orange","left_color":"lightblue","left_mu":40,"right_mu":60,"left_numbers":[50,49,44,41,33,52,32,41,40,40],"right_numbers":[47,52,55,56,66,69,61,57,71,65],"points_earned":591,"phase":"task","trial_type":"horizons-task","trial_index":39,"time_elapsed":923051,"internal_node_id":"0.0-35.0","task_version":"0.2"},{"response_times":[706.0599999967963,504.0100000333041,514.5799999590963,534.5199999865144,1579.0750000160187,2560.5400000931695,390.26999997440726,499.20000007841736,248.8700000103563,198.9550000289455],"keys_pressed":["leftarrow","rightarrow","rightarrow","rightarrow","leftarrow","leftarrow","leftarrow","leftarrow","leftarrow","leftarrow"],"horizon":10,"forced_choices":["leftarrow","rightarrow","rightarrow","rightarrow"],"right_color":"lightblue","left_color":"orange","left_mu":60,"right_mu":30,"left_numbers":[52,58,54,57,62,51,56,50,62,65],"right_numbers":[15,28,17,27,36,37,38,33,33,30],"points_earned":470,"phase":"task","trial_type":"horizons-task","trial_index":40,"time_elapsed":932292,"internal_node_id":"0.0-36.0","task_version":"0.2"},{"response_times":[701.7249999335036,367.0299999648705,330.33000002615154,1490.4100000858307,5193.345000036061],"keys_pressed":["rightarrow","leftarrow","rightarrow","leftarrow","leftarrow"],"horizon":5,"forced_choices":["rightarrow","leftarrow","rightarrow","leftarrow"],"right_color":"lightblue","left_color":"orange","left_mu":60,"right_mu":48,"left_numbers":[48,67,56,43,57],"right_numbers":[54,41,45,32,50],"points_earned":266,"phase":"task","trial_type":"horizons-task","trial_index":41,"time_elapsed":941879,"internal_node_id":"0.0-37.0","task_version":"0.2"},{"response_times":[548.1849999632686,636.2599999411032,1061.0399999422953,814.5650000078604,1362.5400000019],"keys_pressed":["rightarrow","rightarrow","leftarrow","leftarrow","leftarrow"],"horizon":5,"forced_choices":["rightarrow","rightarrow","leftarrow","leftarrow"],"right_color":"orange","left_color":"lightblue","left_mu":60,"right_mu":40,"left_numbers":[56,50,42,46,63],"right_numbers":[38,33,30,48,50],"points_earned":222,"phase":"task","trial_type":"horizons-task","trial_index":42,"time_elapsed":947806,"internal_node_id":"0.0-38.0","task_version":"0.2"},{"response_times":[1044.2699999548495,431.1450000386685,549.3550000246614,683.835000032559,11123.28499997966],"keys_pressed":["leftarrow","rightarrow","rightarrow","rightarrow","rightarrow"],"horizon":5,"forced_choices":["leftarrow","rightarrow","rightarrow","rightarrow"],"right_color":"orange","left_color":"lightblue","left_mu":60,"right_mu":56,"left_numbers":[68,56,54,65,75],"right_numbers":[47,46,70,51,45],"points_earned":280,"phase":"task","trial_type":"horizons-task","trial_index":43,"time_elapsed":963143,"internal_node_id":"0.0-39.0","task_version":"0.2"},{"response_times":[3429.7749999677762,585.7349999714643,459.5200000330806,605.8450000127777,1482.5399999972433],"keys_pressed":["rightarrow","leftarrow","rightarrow","rightarrow","rightarrow"],"horizon":5,"forced_choices":["rightarrow","leftarrow","rightarrow","rightarrow"],"right_color":"lightblue","left_color":"orange","left_mu":60,"right_mu":80,"left_numbers":[66,62,63,60,60],"right_numbers":[79,84,76,88,72],"points_earned":377,"phase":"task","trial_type":"horizons-task","trial_index":44,"time_elapsed":971211,"internal_node_id":"0.0-40.0","task_version":"0.2"},{"response_times":[835.6700000585988,580.1000000210479,465.16999998129904,408.5250000935048,3091.9149999972433],"keys_pressed":["leftarrow","leftarrow","rightarrow","rightarrow","rightarrow"],"horizon":5,"forced_choices":["leftarrow","leftarrow","rightarrow","rightarrow"],"right_color":"lightblue","left_color":"orange","left_mu":60,"right_mu":64,"left_numbers":[65,58,52,67,56],"right_numbers":[58,69,62,78,68],"points_earned":331,"phase":"task","trial_type":"horizons-task","trial_index":45,"time_elapsed":978097,"internal_node_id":"0.0-41.0","task_version":"0.2"},{"response_times":[773.0149999260902,408.545000012964,516.0949999699369,464.73500004503876,1880.544999963604],"keys_pressed":["leftarrow","rightarrow","rightarrow","rightarrow","leftarrow"],"horizon":5,"forced_choices":["leftarrow","rightarrow","rightarrow","rightarrow"],"right_color":"lightblue","left_color":"orange","left_mu":60,"right_mu":30,"left_numbers":[59,47,47,73,54],"right_numbers":[38,20,29,38,14],"points_earned":200,"phase":"task","trial_type":"horizons-task","trial_index":46,"time_elapsed":983645,"internal_node_id":"0.0-42.0","task_version":"0.2"},{"response_times":[748.8000000594184,469.5050000445917,413.2500000996515,581.194999977015,5130.490000010468,3265.125000034459,930.6749999523163,6406.375000020489,323.9949999842793,321.5599999530241],"keys_pressed":["rightarrow","leftarrow","rightarrow","rightarrow","leftarrow","leftarrow","leftarrow","rightarrow","rightarrow","rightarrow"],"horizon":10,"forced_choices":["rightarrow","leftarrow","rightarrow","rightarrow"],"right_color":"orange","left_color":"lightblue","left_mu":40,"right_mu":36,"left_numbers":[36,33,36,33,41,44,27,44,26,41],"right_numbers":[38,38,27,29,50,35,27,30,39,28],"points_earned":336,"phase":"task","trial_type":"horizons-task","trial_index":47,"time_elapsed":1003739,"internal_node_id":"0.0-43.0","task_version":"0.2"},{"response_times":[744.1000000108033,340.8449999988079,427.89000004995614,550.554999965243,1773.1149999890476,1860.0599999772385,816.2349999183789,771.9050000887364,469.9799999361858,526.6200000187382],"keys_pressed":["leftarrow","rightarrow","leftarrow","leftarrow","rightarrow","rightarrow","rightarrow","rightarrow","rightarrow","rightarrow"],"horizon":10,"forced_choices":["leftarrow","rightarrow","leftarrow","leftarrow"],"right_color":"orange","left_color":"lightblue","left_mu":40,"right_mu":52,"left_numbers":[40,34,29,45,58,34,45,46,38,49],"right_numbers":[50,61,62,48,43,60,57,54,38,54],"points_earned":481,"phase":"task","trial_type":"horizons-task","trial_index":48,"time_elapsed":1013526,"internal_node_id":"0.0-44.0","task_version":"0.2"},{"response_times":[593.1700000073761,580.5399999953806,791.1350000649691,1695.739999995567,944.1600000718608],"keys_pressed":["rightarrow","rightarrow","rightarrow","leftarrow","rightarrow"],"horizon":5,"forced_choices":["rightarrow","rightarrow","rightarrow","leftarrow"],"right_color":"lightblue","left_color":"orange","left_mu":40,"right_mu":48,"left_numbers":[27,45,34,26,51],"right_numbers":[47,65,56,52,48],"points_earned":242,"phase":"task","trial_type":"horizons-task","trial_index":49,"time_elapsed":1019636,"internal_node_id":"0.0-45.0","task_version":"0.2"},{"response_times":[765.4050000710413,470.80500004813075,492.13999998755753,487.5400000018999,1787.4449999071658,918.9799999585375,1349.1350000258535,616.924999980256,528.4049999900162,474.4850000133738],"keys_pressed":["leftarrow","rightarrow","rightarrow","rightarrow","leftarrow","leftarrow","leftarrow","leftarrow","leftarrow","leftarrow"],"horizon":10,"forced_choices":["leftarrow","rightarrow","rightarrow","rightarrow"],"right_color":"orange","left_color":"lightblue","left_mu":60,"right_mu":40,"left_numbers":[62,54,44,69,63,50,59,70,75,57],"right_numbers":[36,34,48,39,46,33,46,40,28,43],"points_earned":557,"phase":"task","trial_type":"horizons-task","trial_index":50,"time_elapsed":1029054,"internal_node_id":"0.0-46.0","task_version":"0.2"},{"view_history":"[{\"page_index\":0,\"viewing_time\":60515.520000015385},{\"page_index\":1,\"viewing_time\":2825.6700000492856}]","rt":63342.09500008728,"trial_type":"instructions","trial_index":51,"time_elapsed":1092401,"internal_node_id":"0.0-47.0","task_version":"0.2"},{"response_times":[2377.750000101514,724.6150000719354,660.0949999410659,537.209999980405,1772.4099999759346,790.0599999120459,2094.7099999757484,1639.919999986887,521.9100000103936,414.5150000695139],"keys_pressed":["rightarrow","rightarrow","rightarrow","leftarrow","leftarrow","leftarrow","leftarrow","rightarrow","rightarrow","rightarrow"],"horizon":10,"forced_choices":["rightarrow","rightarrow","rightarrow","leftarrow"],"right_color":"orange","left_color":"lightblue","left_mu":40,"right_mu":32,"left_numbers":[53,38,37,39,57,35,33,56,32,33],"right_numbers":[21,36,26,26,34,41,30,24,30,40],"points_earned":341,"phase":"task","trial_type":"horizons-task","trial_index":52,"time_elapsed":1105449,"internal_node_id":"0.0-48.0","task_version":"0.2"},{"response_times":[10006.67999999132,530.6300000520423,620.6799999345094,733.4399999817833,875.9149999823421],"keys_pressed":["leftarrow","rightarrow","rightarrow","leftarrow","leftarrow"],"horizon":5,"forced_choices":["leftarrow","rightarrow","rightarrow","leftarrow"],"right_color":"orange","left_color":"lightblue","left_mu":40,"right_mu":32,"left_numbers":[38,58,43,38,50],"right_numbers":[15,22,20,48,33],"points_earned":168,"phase":"task","trial_type":"horizons-task","trial_index":53,"time_elapsed":1119721,"internal_node_id":"0.0-49.0","task_version":"0.2"},{"response_times":[1506.874999962747,373.65500000305474,500.87499991059303,675.2550000092015,1183.9250000193715,943.28000000678,724.4750000536442,575.4350000061095,530.4000000469387,397.4150000140071],"keys_pressed":["rightarrow","leftarrow","leftarrow","leftarrow","leftarrow","leftarrow","leftarrow","leftarrow","leftarrow","leftarrow"],"horizon":10,"forced_choices":["rightarrow","leftarrow","leftarrow","leftarrow"],"right_color":"lightblue","left_color":"orange","left_mu":40,"right_mu":20,"left_numbers":[36,47,53,28,34,36,45,42,26,44],"right_numbers":[10,6,29,7,24,23,11,22,14,14],"points_earned":365,"phase":"task","trial_type":"horizons-task","trial_index":54,"time_elapsed":1128638,"internal_node_id":"0.0-50.0","task_version":"0.2"},{"response_times":[632.8450000146404,655.9049999341369,608.5149999707937,461.0450000036508,2241.6749999392778],"keys_pressed":["leftarrow","leftarrow","rightarrow","rightarrow","rightarrow"],"horizon":5,"forced_choices":["leftarrow","leftarrow","rightarrow","rightarrow"],"right_color":"lightblue","left_color":"orange","left_mu":40,"right_mu":44,"left_numbers":[34,40,39,29,37],"right_numbers":[57,40,43,52,42],"points_earned":211,"phase":"task","trial_type":"horizons-task","trial_index":55,"time_elapsed":1134742,"internal_node_id":"0.0-51.0","task_version":"0.2"},{"response_times":[713.1499999668449,448.5700000077486,797.3900000797585,1242.1499999472871,2210.0000000791624],"keys_pressed":["leftarrow","rightarrow","rightarrow","rightarrow","leftarrow"],"horizon":5,"forced_choices":["leftarrow","rightarrow","rightarrow","rightarrow"],"right_color":"orange","left_color":"lightblue","left_mu":60,"right_mu":40,"left_numbers":[48,52,67,56,63],"right_numbers":[34,34,41,44,41],"points_earned":230,"phase":"task","trial_type":"horizons-task","trial_index":56,"time_elapsed":1141658,"internal_node_id":"0.0-52.0","task_version":"0.2"},{"response_times":[639.9100000271574,537.6549999928102,623.8499999744818,577.214999939315,1308.9700000127777,1729.5999999623746,944.8400000110269,1677.8500000946224,695.049999980256,434.66500006616116],"keys_pressed":["rightarrow","leftarrow","leftarrow","rightarrow","leftarrow","leftarrow","leftarrow","leftarrow","leftarrow","leftarrow"],"horizon":10,"forced_choices":["rightarrow","leftarrow","leftarrow","rightarrow"],"right_color":"orange","left_color":"lightblue","left_mu":40,"right_mu":28,"left_numbers":[28,45,46,30,35,47,36,41,50,20],"right_numbers":[23,30,42,19,39,32,19,29,26,25],"points_earned":362,"phase":"task","trial_type":"horizons-task","trial_index":57,"time_elapsed":1152334,"internal_node_id":"0.0-53.0","task_version":"0.2"},{"response_times":[6770.714999991469,611.0999999800697,951.230000006035,798.1050000526011,1352.1650000475347],"keys_pressed":["rightarrow","rightarrow","leftarrow","leftarrow","leftarrow"],"horizon":5,"forced_choices":["rightarrow","rightarrow","leftarrow","leftarrow"],"right_color":"orange","left_color":"lightblue","left_mu":60,"right_mu":68,"left_numbers":[71,63,67,71,43],"right_numbers":[60,61,62,68,57],"points_earned":302,"phase":"task","trial_type":"horizons-task","trial_index":58,"time_elapsed":1164329,"internal_node_id":"0.0-54.0","task_version":"0.2"},{"response_times":[893.5099999653175,580.4350000107661,557.1700000436977,621.4749999344349,1750.7800000021234],"keys_pressed":["leftarrow","leftarrow","rightarrow","rightarrow","rightarrow"],"horizon":5,"forced_choices":["leftarrow","leftarrow","rightarrow","rightarrow"],"right_color":"lightblue","left_color":"orange","left_mu":40,"right_mu":48,"left_numbers":[45,23,34,38,46],"right_numbers":[50,41,56,56,43],"points_earned":223,"phase":"task","trial_type":"horizons-task","trial_index":59,"time_elapsed":1170237,"internal_node_id":"0.0-55.0","task_version":"0.2"},{"response_times":[625.8399999933317,538.4049999993294,725.5550000118092,551.4800000237301,2130.6649999460205,1727.720000082627,815.7249999931082,810.4899999452755,517.7799999946728,361.98499996680766],"keys_pressed":["leftarrow","rightarrow","leftarrow","rightarrow","rightarrow","rightarrow","rightarrow","rightarrow","rightarrow","rightarrow"],"horizon":10,"forced_choices":["leftarrow","rightarrow","leftarrow","rightarrow"],"right_color":"lightblue","left_color":"orange","left_mu":60,"right_mu":72,"left_numbers":[67,37,56,81,60,50,56,65,51,66],"right_numbers":[79,87,68,62,70,64,78,64,64,66],"points_earned":678,"phase":"task","trial_type":"horizons-task","trial_index":60,"time_elapsed":1180547,"internal_node_id":"0.0-56.0","task_version":"0.2"},{"response_times":[6767.284999950789,531.0799999861047,495.6350000575185,376.1650000233203,628.0550000956282,883.1650000065565,1307.9649999272078,945.3149999026209,569.8150000534952,625.9999999310821],"keys_pressed":["rightarrow","rightarrow","leftarrow","rightarrow","rightarrow","rightarrow","rightarrow","rightarrow","rightarrow","rightarrow"],"horizon":10,"forced_choices":["rightarrow","rightarrow","leftarrow","rightarrow"],"right_color":"lightblue","left_color":"orange","left_mu":40,"right_mu":70,"left_numbers":[27,48,39,33,41,42,43,29,47,45],"right_numbers":[71,74,54,70,73,79,67,72,68,82],"points_earned":695,"phase":"task","trial_type":"horizons-task","trial_index":61,"time_elapsed":1195182,"internal_node_id":"0.0-57.0","task_version":"0.2"},{"response_times":[809.9649999057874,664.4749999977648,655.26500006672,616.9799999333918,1462.2149999486282],"keys_pressed":["rightarrow","leftarrow","leftarrow","rightarrow","leftarrow"],"horizon":5,"forced_choices":["rightarrow","leftarrow","leftarrow","rightarrow"],"right_color":"orange","left_color":"lightblue","left_mu":40,"right_mu":28,"left_numbers":[43,31,39,38,36],"right_numbers":[34,29,30,17,29],"points_earned":157,"phase":"task","trial_type":"horizons-task","trial_index":62,"time_elapsed":1200896,"internal_node_id":"0.0-58.0","task_version":"0.2"},{"response_times":[9390.125000034459,411.61499998997897,496.09499995131046,555.1949999062344,1853.774999966845,782.4000000255182,547.7449999889359,508.0950000556186,450.76000003609806,364.74500002805144],"keys_pressed":["leftarrow","rightarrow","rightarrow","leftarrow","leftarrow","leftarrow","leftarrow","leftarrow","leftarrow","leftarrow"],"horizon":10,"forced_choices":["leftarrow","rightarrow","rightarrow","leftarrow"],"right_color":"orange","left_color":"lightblue","left_mu":40,"right_mu":32,"left_numbers":[45,29,37,39,49,39,42,36,44,31],"right_numbers":[13,25,31,45,22,44,31,25,43,21],"points_earned":381,"phase":"task","trial_type":"horizons-task","trial_index":63,"time_elapsed":1217764,"internal_node_id":"0.0-59.0","task_version":"0.2"},{"response_times":[717.2649999847636,680.434999987483,551.1549999937415,1152.405000058934,1022.6700000930578],"keys_pressed":["rightarrow","leftarrow","rightarrow","leftarrow","rightarrow"],"horizon":5,"forced_choices":["rightarrow","leftarrow","rightarrow","leftarrow"],"right_color":"orange","left_color":"lightblue","left_mu":40,"right_mu":52,"left_numbers":[42,44,33,35,60],"right_numbers":[46,53,56,64,51],"points_earned":232,"phase":"task","trial_type":"horizons-task","trial_index":64,"time_elapsed":1223396,"internal_node_id":"0.0-60.0","task_version":"0.2"},{"response_times":[626.9699999829754,415.9699999727309,570.7399999955669,734.8050000146031,4281.315000029281,2372.0650000032037,881.180000025779,589.3250000663102,438.4800000116229,395.87000000756234],"keys_pressed":["rightarrow","leftarrow","leftarrow","rightarrow","rightarrow","rightarrow","rightarrow","rightarrow","rightarrow","rightarrow"],"horizon":10,"forced_choices":["rightarrow","leftarrow","leftarrow","rightarrow"],"right_color":"lightblue","left_color":"orange","left_mu":40,"right_mu":70,"left_numbers":[35,49,53,48,37,48,46,33,46,22],"right_numbers":[66,72,55,58,62,63,72,75,65,69],"points_earned":632,"phase":"task","trial_type":"horizons-task","trial_index":65,"time_elapsed":1236211,"internal_node_id":"0.0-61.0","task_version":"0.2"},{"response_times":[670.9549999795854,378.6599999293685,530.6100000161678,1268.6450000619516,1566.28999998793],"keys_pressed":["rightarrow","leftarrow","leftarrow","leftarrow","leftarrow"],"horizon":5,"forced_choices":["rightarrow","leftarrow","leftarrow","leftarrow"],"right_color":"lightblue","left_color":"orange","left_mu":40,"right_mu":20,"left_numbers":[39,46,45,40,40],"right_numbers":[34,10,17,12,27],"points_earned":205,"phase":"task","trial_type":"horizons-task","trial_index":66,"time_elapsed":1242130,"internal_node_id":"0.0-62.0","task_version":"0.2"},{"response_times":[700.8449999848381,616.8349999934435,506.62999995984137,399.03500000946224,434.5949999988079,3471.0649999324232,783.5600000107661,552.5299999862909,516.6500000050291,393.67500005755574],"keys_pressed":["rightarrow","rightarrow","leftarrow","rightarrow","leftarrow","rightarrow","rightarrow","rightarrow","rightarrow","rightarrow"],"horizon":10,"forced_choices":["rightarrow","rightarrow","leftarrow","rightarrow"],"right_color":"orange","left_color":"lightblue","left_mu":40,"right_mu":60,"left_numbers":[46,41,26,47,33,37,60,34,44,43],"right_numbers":[46,63,71,61,65,62,62,60,61,75],"points_earned":549,"phase":"task","trial_type":"horizons-task","trial_index":67,"time_elapsed":1252011,"internal_node_id":"0.0-63.0","task_version":"0.2"},{"response_times":[14601.660000043921,450.0600000610575,520.1000000815839,549.68000005465,1946.585000026971,2501.230000052601,728.7250000517815,1768.4600000502542,627.7000000700355,435.36999996285886],"keys_pressed":["leftarrow","leftarrow","rightarrow","rightarrow","rightarrow","rightarrow","rightarrow","rightarrow","rightarrow","rightarrow"],"horizon":10,"forced_choices":["leftarrow","leftarrow","rightarrow","rightarrow"],"right_color":"lightblue","left_color":"orange","left_mu":40,"right_mu":48,"left_numbers":[31,40,32,38,39,36,30,42,36,38],"right_numbers":[44,52,49,43,38,62,48,51,43,54],"points_earned":459,"phase":"task","trial_type":"horizons-task","trial_index":68,"time_elapsed":1277651,"internal_node_id":"0.0-64.0","task_version":"0.2"},{"response_times":[2047.4600000306964,2789.8049999494106,512.1250000083819,2583.5350000998005,1308.7349999696016,615.5399999115616,1901.2199999997392,1073.3200000831857,724.4750000536442,623.6100000096485],"keys_pressed":["rightarrow","rightarrow","rightarrow","leftarrow","rightarrow","rightarrow","rightarrow","rightarrow","rightarrow","rightarrow"],"horizon":10,"forced_choices":["rightarrow","rightarrow","rightarrow","leftarrow"],"right_color":"lightblue","left_color":"orange","left_mu":40,"right_mu":48,"left_numbers":[28,30,28,37,36,31,42,34,36,35],"right_numbers":[49,50,52,54,52,55,42,41,43,52],"points_earned":473,"phase":"task","trial_type":"horizons-task","trial_index":69,"time_elapsed":1293342,"internal_node_id":"0.0-65.0","task_version":"0.2"},{"response_times":[875.8149999193847,877.8650000458583,777.6999999769032,973.4549999702722,2055.244999937713],"keys_pressed":["leftarrow","leftarrow","leftarrow","rightarrow","rightarrow"],"horizon":5,"forced_choices":["leftarrow","leftarrow","leftarrow","rightarrow"],"right_color":"lightblue","left_color":"orange","left_mu":60,"right_mu":72,"left_numbers":[60,66,55,66,73],"right_numbers":[67,71,59,67,75],"points_earned":323,"phase":"task","trial_type":"horizons-task","trial_index":70,"time_elapsed":1300406,"internal_node_id":"0.0-66.0","task_version":"0.2"},{"response_times":[2225.9599999524653,576.0199999203905,589.1099999425933,509.97000001370907,2234.1200000373647],"keys_pressed":["rightarrow","rightarrow","leftarrow","rightarrow","rightarrow"],"horizon":5,"forced_choices":["rightarrow","rightarrow","leftarrow","rightarrow"],"right_color":"lightblue","left_color":"orange","left_mu":40,"right_mu":70,"left_numbers":[37,38,42,35,34],"right_numbers":[57,58,76,61,81],"points_earned":299,"phase":"task","trial_type":"horizons-task","trial_index":71,"time_elapsed":1308046,"internal_node_id":"0.0-67.0","task_version":"0.2"},{"response_times":[10104.904999956489,1181.125000002794,734.085000003688,4933.98500001058,1983.4000000264496],"keys_pressed":["leftarrow","rightarrow","rightarrow","leftarrow","rightarrow"],"horizon":5,"forced_choices":["leftarrow","rightarrow","rightarrow","leftarrow"],"right_color":"orange","left_color":"lightblue","left_mu":60,"right_mu":56,"left_numbers":[53,65,72,59,67],"right_numbers":[65,52,68,48,56],"points_earned":288,"phase":"task","trial_type":"horizons-task","trial_index":72,"time_elapsed":1328492,"internal_node_id":"0.0-68.0","task_version":"0.2"},{"response_times":[30751.805000007153,687.6150000607595,1050.1049999147654,749.0900000557303,2281.4800000051036],"keys_pressed":["rightarrow","rightarrow","leftarrow","leftarrow","leftarrow"],"horizon":5,"forced_choices":["rightarrow","rightarrow","leftarrow","leftarrow"],"right_color":"orange","left_color":"lightblue","left_mu":40,"right_mu":36,"left_numbers":[41,43,49,37,39],"right_numbers":[24,35,20,48,44],"points_earned":184,"phase":"task","trial_type":"horizons-task","trial_index":73,"time_elapsed":1365517,"internal_node_id":"0.0-69.0","task_version":"0.2"},{"response_times":[1796.4399999473244,419.71000004559755,480.5149999447167,440.1550000766292,1977.8600001009181,1128.690000041388,780.8850000146776,539.4250000827014,436.39000004623085,1832.905000075698],"keys_pressed":["leftarrow","leftarrow","rightarrow","leftarrow","leftarrow","leftarrow","leftarrow","leftarrow","leftarrow","leftarrow"],"horizon":10,"forced_choices":["leftarrow","leftarrow","rightarrow","leftarrow"],"right_color":"orange","left_color":"lightblue","left_mu":40,"right_mu":28,"left_numbers":[45,34,59,39,41,45,58,33,27,36],"right_numbers":[29,20,31,26,28,20,50,33,24,21],"points_earned":389,"phase":"task","trial_type":"horizons-task","trial_index":74,"time_elapsed":1376854,"internal_node_id":"0.0-70.0","task_version":"0.2"},{"response_times":[696.0849999450147,784.0850000502542,521.4600000763312,580.9199999785051,4827.239999896847,1780.1750000799075,780.4199999663979,969.5800000336021,627.3499999660999,1157.2500000474975],"keys_pressed":["leftarrow","leftarrow","rightarrow","rightarrow","rightarrow","leftarrow","leftarrow","leftarrow","leftarrow","leftarrow"],"horizon":10,"forced_choices":["leftarrow","leftarrow","rightarrow","rightarrow"],"right_color":"lightblue","left_color":"orange","left_mu":60,"right_mu":64,"left_numbers":[65,66,75,65,51,69,64,69,53,54],"right_numbers":[68,75,69,62,57,49,72,59,78,71],"points_earned":628,"phase":"task","trial_type":"horizons-task","trial_index":75,"time_elapsed":1391084,"internal_node_id":"0.0-71.0","task_version":"0.2"},{"response_times":[736.1149999778718,1102.3750000167638,788.330000010319,1543.489999952726,1810.330000007525,1189.1950001008809,694.1799999913201,667.9200000362471,1032.50999993179,571.919999900274],"keys_pressed":["leftarrow","leftarrow","rightarrow","leftarrow","rightarrow","rightarrow","rightarrow","rightarrow","rightarrow","rightarrow"],"horizon":10,"forced_choices":["leftarrow","leftarrow","rightarrow","leftarrow"],"right_color":"orange","left_color":"lightblue","left_mu":60,"right_mu":90,"left_numbers":[69,53,55,60,54,74,69,63,50,64],"right_numbers":[84,87,98,79,87,79,77,96,82,91],"points_earned":792,"phase":"task","trial_type":"horizons-task","trial_index":76,"time_elapsed":1402725,"internal_node_id":"0.0-72.0","task_version":"0.2"},{"response_times":[861.4999999990687,621.0849999915808,731.8700000178069,725.2950000111014,2127.0500000100583,1090.2599999681115,736.5200000349432,1040.1449999772012,960.4999999282882,423.18499996326864],"keys_pressed":["rightarrow","rightarrow","leftarrow","leftarrow","leftarrow","leftarrow","leftarrow","leftarrow","leftarrow","leftarrow"],"horizon":10,"forced_choices":["rightarrow","rightarrow","leftarrow","leftarrow"],"right_color":"orange","left_color":"lightblue","left_mu":60,"right_mu":40,"left_numbers":[67,55,66,45,52,61,66,53,64,50],"right_numbers":[24,39,45,36,31,35,52,38,48,38],"points_earned":520,"phase":"task","trial_type":"horizons-task","trial_index":77,"time_elapsed":1413547,"internal_node_id":"0.0-73.0","task_version":"0.2"},{"response_times":[718.1600000476465,919.0299999900162,683.2899999571964,677.7850000653416,2834.565000026487,789.530000067316,2341.5550000499934,630.3199999965727,422.38999996334314,383.81999998819083],"keys_pressed":["rightarrow","leftarrow","leftarrow","leftarrow","rightarrow","rightarrow","rightarrow","rightarrow","rightarrow","rightarrow"],"horizon":10,"forced_choices":["rightarrow","leftarrow","leftarrow","leftarrow"],"right_color":"orange","left_color":"lightblue","left_mu":60,"right_mu":68,"left_numbers":[65,61,68,61,62,65,56,56,48,77],"right_numbers":[60,69,70,75,72,59,86,51,76,73],"points_earned":667,"phase":"task","trial_type":"horizons-task","trial_index":78,"time_elapsed":1425459,"internal_node_id":"0.0-74.0","task_version":"0.2"},{"response_times":[753.3250000560656,480.20999995060265,637.430000002496,806.3149999361485,1795.410000020638],"keys_pressed":["leftarrow","rightarrow","leftarrow","rightarrow","rightarrow"],"horizon":5,"forced_choices":["leftarrow","rightarrow","leftarrow","rightarrow"],"right_color":"lightblue","left_color":"orange","left_mu":60,"right_mu":72,"left_numbers":[54,67,68,66,72],"right_numbers":[63,74,83,56,64],"points_earned":316,"phase":"task","trial_type":"horizons-task","trial_index":79,"time_elapsed":1431450,"internal_node_id":"0.0-75.0","task_version":"0.2"},{"response_times":[769.1249999916181,624.2649999912828,1079.3099999427795,958.2999999402091,1313.9150000642985],"keys_pressed":["rightarrow","rightarrow","leftarrow","rightarrow","rightarrow"],"horizon":5,"forced_choices":["rightarrow","rightarrow","leftarrow","rightarrow"],"right_color":"orange","left_color":"lightblue","left_mu":40,"right_mu":60,"left_numbers":[47,37,36,35,29],"right_numbers":[62,50,54,52,63],"points_earned":263,"phase":"task","trial_type":"horizons-task","trial_index":80,"time_elapsed":1437700,"internal_node_id":"0.0-76.0","task_version":"0.2"},{"response_times":[691.1300000501797,427.8299999423325,435.67999999504536,542.8400000091642,1665.694999974221],"keys_pressed":["leftarrow","rightarrow","leftarrow","rightarrow","leftarrow"],"horizon":5,"forced_choices":["leftarrow","rightarrow","leftarrow","rightarrow"],"right_color":"orange","left_color":"lightblue","left_mu":40,"right_mu":10,"left_numbers":[39,36,50,47,38],"right_numbers":[8,13,11,23,0],"points_earned":163,"phase":"task","trial_type":"horizons-task","trial_index":81,"time_elapsed":1442974,"internal_node_id":"0.0-77.0","task_version":"0.2"},{"response_times":[860.9000000869855,658.545000012964,599.7750000096858,1755.4549999767914,3450.165000045672],"keys_pressed":["rightarrow","leftarrow","leftarrow","rightarrow","leftarrow"],"horizon":5,"forced_choices":["rightarrow","leftarrow","leftarrow","rightarrow"],"right_color":"lightblue","left_color":"orange","left_mu":60,"right_mu":52,"left_numbers":[50,61,67,59,83],"right_numbers":[48,48,42,50,61],"points_earned":309,"phase":"task","trial_type":"horizons-task","trial_index":82,"time_elapsed":1451803,"internal_node_id":"0.0-78.0","task_version":"0.2"},{"response_times":[907.9850000562146,665.0450000306591,530.7449999963865,1027.2649999242276,1572.649999987334],"keys_pressed":["rightarrow","leftarrow","rightarrow","leftarrow","rightarrow"],"horizon":5,"forced_choices":["rightarrow","leftarrow","rightarrow","leftarrow"],"right_color":"lightblue","left_color":"orange","left_mu":60,"right_mu":80,"left_numbers":[61,72,48,68,53],"right_numbers":[79,77,78,90,78],"points_earned":375,"phase":"task","trial_type":"horizons-task","trial_index":83,"time_elapsed":1458012,"internal_node_id":"0.0-79.0","task_version":"0.2"},{"response_times":[643.6449999455363,490.3449999401346,616.0649999510497,643.6049999902025,21444.709999952465],"keys_pressed":["rightarrow","leftarrow","leftarrow","leftarrow","rightarrow"],"horizon":5,"forced_choices":["rightarrow","leftarrow","leftarrow","leftarrow"],"right_color":"orange","left_color":"lightblue","left_mu":60,"right_mu":68,"left_numbers":[58,70,62,68,69],"right_numbers":[54,71,74,64,83],"points_earned":337,"phase":"task","trial_type":"horizons-task","trial_index":84,"time_elapsed":1483355,"internal_node_id":"0.0-80.0","task_version":"0.2"},{"response_times":[2350.1749999122694,365.2350000338629,390.00999997369945,352.8599999845028,2655.6949999649078,1135.509999934584,759.8699999507517,568.9750000601634,457.1700000669807,434.9899999797344],"keys_pressed":["rightarrow","leftarrow","rightarrow","leftarrow","rightarrow","rightarrow","rightarrow","rightarrow","rightarrow","rightarrow"],"horizon":10,"forced_choices":["rightarrow","leftarrow","rightarrow","leftarrow"],"right_color":"lightblue","left_color":"orange","left_mu":60,"right_mu":80,"left_numbers":[45,57,72,60,75,66,62,54,63,47],"right_numbers":[88,76,83,76,77,90,79,55,68,76],"points_earned":733,"phase":"task","trial_type":"horizons-task","trial_index":85,"time_elapsed":1494334,"internal_node_id":"0.0-81.0","task_version":"0.2"},{"response_times":[669.5349999936298,793.3600000105798,705.6299999821931,1380.9350000228733,16354.730000020936],"keys_pressed":["leftarrow","leftarrow","leftarrow","rightarrow","rightarrow"],"horizon":5,"forced_choices":["leftarrow","leftarrow","leftarrow","rightarrow"],"right_color":"lightblue","left_color":"orange","left_mu":60,"right_mu":64,"left_numbers":[61,57,50,67,58],"right_numbers":[75,79,55,55,66],"points_earned":289,"phase":"task","trial_type":"horizons-task","trial_index":86,"time_elapsed":1515749,"internal_node_id":"0.0-82.0","task_version":"0.2"},{"response_times":[645.5149999819696,557.9549999674782,627.8249999741092,431.540000019595,1971.7149999924004,982.6650000177324,682.9049999359995,922.069999971427,567.2300000442192,330.91000001877546],"keys_pressed":["rightarrow","rightarrow","leftarrow","leftarrow","leftarrow","leftarrow","leftarrow","leftarrow","leftarrow","leftarrow"],"horizon":10,"forced_choices":["rightarrow","rightarrow","leftarrow","leftarrow"],"right_color":"orange","left_color":"lightblue","left_mu":60,"right_mu":68,"left_numbers":[48,73,62,67,65,67,57,48,70,55],"right_numbers":[57,56,62,64,81,74,55,75,74,54],"points_earned":604,"phase":"task","trial_type":"horizons-task","trial_index":87,"time_elapsed":1524975,"internal_node_id":"0.0-83.0","task_version":"0.2"},{"response_times":[725.6700000725687,410.5549999512732,442.7099999738857,447.59499991778284,1690.7449999125674,3528.3950000302866,1473.6750000156462,459.3950000125915,338.4499999228865,250.8200000738725],"keys_pressed":["rightarrow","leftarrow","leftarrow","rightarrow","leftarrow","rightarrow","rightarrow","rightarrow","rightarrow","rightarrow"],"horizon":10,"forced_choices":["rightarrow","leftarrow","leftarrow","rightarrow"],"right_color":"lightblue","left_color":"orange","left_mu":60,"right_mu":52,"left_numbers":[50,71,62,52,44,47,54,54,58,61],"right_numbers":[55,44,40,57,60,51,52,51,50,51],"points_earned":544,"phase":"task","trial_type":"horizons-task","trial_index":88,"time_elapsed":1536253,"internal_node_id":"0.0-84.0","task_version":"0.2"},{"response_times":[20484.70000002999,567.6450000610203,735.990000073798,544.8199999518692,1321.5199999976903,1412.320000003092,725.3650000784546,2681.7949999822304,538.1550000747666,380.18999993801117],"keys_pressed":["leftarrow","rightarrow","rightarrow","leftarrow","rightarrow","rightarrow","rightarrow","leftarrow","leftarrow","leftarrow"],"horizon":10,"forced_choices":["leftarrow","rightarrow","rightarrow","leftarrow"],"right_color":"orange","left_color":"lightblue","left_mu":60,"right_mu":56,"left_numbers":[50,52,69,59,61,62,45,56,64,52],"right_numbers":[54,71,72,67,52,62,52,50,32,62],"points_earned":590,"phase":"task","trial_type":"horizons-task","trial_index":89,"time_elapsed":1567151,"internal_node_id":"0.0-85.0","task_version":"0.2"},{"response_times":[991.465000086464,435.18499995116144,404.1599999181926,425.1050000311807,1436.5400000242516,530.7349999202415,472.08500001579523,313.9650000957772,527.3599999491125,369.2700000246987],"keys_pressed":["leftarrow","rightarrow","leftarrow","rightarrow","rightarrow","rightarrow","rightarrow","rightarrow","rightarrow","rightarrow"],"horizon":10,"forced_choices":["leftarrow","rightarrow","leftarrow","rightarrow"],"right_color":"orange","left_color":"lightblue","left_mu":60,"right_mu":90,"left_numbers":[60,44,63,56,76,50,60,58,63,54],"right_numbers":[77,77,101,85,91,95,94,76,90,86],"points_earned":817,"phase":"task","trial_type":"horizons-task","trial_index":90,"time_elapsed":1574568,"internal_node_id":"0.0-86.0","task_version":"0.2"},{"response_times":[784.0650000143796,509.6300001023337,671.9550000270829,521.7050000792369,3933.919999981299,940.8250000560656,441.26500003039837,895.3050000127405,394.0650000004098,376.8649999983609],"keys_pressed":["leftarrow","leftarrow","rightarrow","rightarrow","rightarrow","rightarrow","rightarrow","leftarrow","leftarrow","leftarrow"],"horizon":10,"forced_choices":["leftarrow","leftarrow","rightarrow","rightarrow"],"right_color":"lightblue","left_color":"orange","left_mu":40,"right_mu":44,"left_numbers":[35,43,44,41,62,39,38,41,36,40],"right_numbers":[37,39,53,35,43,49,36,55,42,44],"points_earned":411,"phase":"task","trial_type":"horizons-task","trial_index":91,"time_elapsed":1585542,"internal_node_id":"0.0-87.0","task_version":"0.2"},{"rt":26727.499999920838,"responses":{"age":"36","gender-categorical":"Female","gender-free-response":"","ethnicity":"Not Hispanic or Latino","race":["White"],"language":"Yes","fluency":"Very well"},"survey":"demographics","trial_type":"survey-demo","trial_index":92,"time_elapsed":1612281,"internal_node_id":"0.0-88.0","task_version":"0.2"},{"rt":36287.18500002287,"responses":{"difficulty":"5","fun":"5","clarity":"5","strategy":"quick math in my head for an average","feedback":""},"survey":"debrief","trial_type":"survey-debrief","trial_index":93,"time_elapsed":1648577,"internal_node_id":"0.0-89.0","task_version":"0.2","interactions":"[]"}]