[{"view_history":"[{\"page_index\":0,\"viewing_time\":2263.4349999716505}]","rt":2263.730000006035,"trial_type":"instructions","trial_index":0,"time_elapsed":2269,"internal_node_id":"0.0-0.0","task_version":"0.2"},{"item_order":[15,11,9,8,14,3,16,10,13,2,1,12,5,7,6,0,4],"responses":{"Q16":"2","Q12":"1","Q10":"3","Q09":"2","Q15":"1","Q04":"1","Q17":"0","Q11":"2","Q14":"1","Q03":"3","Q02":"1","Q13":"1","Q06":"2","Q08":"1","Q07":"1","Q01":"2","Q05":"1"},"radio_events":[3478.68500003824,5728.6500000045635,8250.605000008363,12110.895000048913,13842.705000017304,15650.645000045188,17146.725000056904,18352.625000057742,23324.665000021923,25982.630000042263,27630.635000008624,28814.700000046287,31342.685000039637,33098.54500001529,35946.69500004966,38068.515000049956,40892.62000005692,44762.51500000944],"key_events":[],"mouse_events":[1.2650000280700624,3478.68500003824,5288.680000056047,5728.6500000045635,7652.755000046454,8250.605000008363,8830.73000004515,9356.55000002589,9932.590000040364,12110.895000048913,13230.725000030361,13842.705000017304,15650.645000045188,17146.725000056904,18352.625000057742,22946.62000000244,23324.665000021923,24914.665000047535,25982.630000042263,27630.635000008624,28814.700000046287,30924.575000011828,31342.685000039637,33098.54500001529,35140.745000040624,35520.510000002105,35946.69500004966,37744.59500005469,38068.515000049956,40892.62000005692,44762.51500000944,45534.735000052024],"rt":45537.19500004081,"survey":"pswq","trial_type":"survey-template","trial_index":1,"time_elapsed":47810,"internal_node_id":"0.0-1.0","task_version":"0.2"},{"item_order":[3,5,11,15,2,14,1,13,12,0,10,4,6,7,8,9],"responses":{"Q04":"3","Q06":"4","Q12":"4","Q16":"4","Q03":"3","Q15":"4","Q02":"2","Q14":"2","Q13":"4","Q01":"3","Q11":"3","Q05":"4","Q07":"4","Q08":"3","Q09":"3","Q10":"3"},"radio_events":[92845.4550000024,93895.2649999992,96259.43999999436,98481.51499999221,100959.42999998806,104037.49499999685,105756.40000001295,110397.49500004109,116117.48000001535,118613.40999999084,120925.45000003884,122309.45500003872,125585.46500001103,128763.41499999398,132591.49500000058,135299.28000003565,138005.50500000827,141653.32000004128,142293.47000003327],"key_events":[],"mouse_events":[92845.4550000024,93479.47000002023,93895.2649999992,95881.53499999316,96259.43999999436,98141.50000002701,98481.51499999221,100959.42999998806,104037.49499999685,105756.40000001295,110089.36500002164,110397.49500004109,115713.41999998549,116117.48000001535,118193.47500003641,118613.40999999084,120287.53000003053,120585.72500001173,120925.45000003884,122031.52000001865,122309.45500003872,125247.2500000149,125585.46500001103,128505.53500000387,128763.41499999398,132591.49500000058,134909.62500002934,135299.28000003565,138005.50500000827,141653.32000004128,142293.47000003327,142873.58000001404],"rt":142875.96500001382,"survey":"nfc","trial_type":"survey-template","trial_index":2,"time_elapsed":190691,"internal_node_id":"0.0-2.0","task_version":"0.2"},{"item_order":[10,2,5,11,9,7,6,8,12,3,0,1,4],"responses":{"Q11":"2","Q03":"1","Q06":"0","Q12":"1","Q10":"1","Q08":"2","Q07":"1","Q09":"1","Q13":"4","Q04":"2","Q01":"1","Q02":"2","Q05":"2"},"radio_events":[80139.70499997959,84841.80999995442,86989.75499998778,89147.73499994772,90431.74999998882,92317.67499999842,93465.76999995159,98367.75499995565,100045.74499995215,102145.75500000501,105797.72999999113,107757.71999999415,109047.7949999622],"key_events":[],"mouse_events":[79153.79499999108,80139.70499997959,84477.67999995267,84841.80999995442,86073.83499998832,86625.7049999549,86989.75499998778,89147.73499994772,90431.74999998882,92317.67499999842,93465.76999995159,96717.78999996604,97501.70999998227,98367.75499995565,100045.74499995215,102145.75500000501,104603.72999997344,104903.87999999803,105433.60999994911,105797.72999999113,107451.73499995144,107757.71999999415,109047.7949999622,109847.62999997474],"rt":109849.38499995042,"survey":"ius12","trial_type":"survey-template","trial_index":3,"time_elapsed":300543,"internal_node_id":"0.0-3.0","task_version":"0.2"},{"view_history":"[{\"page_index\":0,\"viewing_time\":2736.510000017006},{\"page_index\":1,\"viewing_time\":4763.455000007525},{\"page_index\":2,\"viewing_time\":113116.72499997076},{\"page_index\":3,\"viewing_time\":26385.195000038948},{\"page_index\":4,\"viewing_time\":5988.759999978356},{\"page_index\":5,\"viewing_time\":2907.935000024736},{\"page_index\":6,\"viewing_time\":3791.1849999800324},{\"page_index\":7,\"viewing_time\":9721.880000026431},{\"page_index\":8,\"viewing_time\":15723.134999978356},{\"page_index\":9,\"viewing_time\":4494.899999990594}]","rt":189630.11000002734,"trial_type":"instructions","trial_index":4,"time_elapsed":490174,"internal_node_id":"0.0-4.0-0.0","task_version":"0.2"},{"response_times":[665.3650000225753,421.764999977313,379.98500000685453,393.9249999821186,3113.050000043586],"keys_pressed":["rightarrow","leftarrow","rightarrow","rightarrow","leftarrow"],"horizon":5,"forced_choices":["rightarrow","leftarrow","rightarrow","rightarrow"],"right_color":"lightblue","left_color":"orange","left_mu":40,"right_mu":20,"left_numbers":[36,33,42,43,33],"right_numbers":[28,20,27,13,16],"points_earned":134,"phase":"practice","trial_type":"horizons-task","trial_index":5,"time_elapsed":496655,"internal_node_id":"0.0-4.0-1.0","task_version":"0.2"},{"response_times":[1385.0350000429899,450.78000001376495,570.9599999827333,647.0200000330806,1495.984999986831,798.9349999697879,940.085000009276,731.8650000379421,493.9850000082515,491.99000000953674],"keys_pressed":["leftarrow","leftarrow","rightarrow","rightarrow","rightarrow","rightarrow","rightarrow","rightarrow","rightarrow","rightarrow"],"horizon":10,"forced_choices":["leftarrow","leftarrow","rightarrow","rightarrow"],"right_color":"orange","left_color":"lightblue","left_mu":60,"right_mu":70,"left_numbers":[57,57,67,59,67,59,60,57,61,55],"right_numbers":[59,73,75,58,66,57,98,84,81,72],"points_earned":705,"phase":"practice","trial_type":"horizons-task","trial_index":6,"time_elapsed":506165,"internal_node_id":"0.0-4.0-2.0","task_version":"0.2"},{"view_history":"[{\"page_index\":0,\"viewing_time\":1038.7549999868497},{\"page_index\":1,\"viewing_time\":2132.1050000260584},{\"page_index\":2,\"viewing_time\":3900.839999958407},{\"page_index\":3,\"viewing_time\":1854.9800000037067}]","rt":8926.815000013448,"trial_type":"instructions","trial_index":7,"time_elapsed":515092,"internal_node_id":"0.0-4.0-3.0","task_version":"0.2"},{"responses":["true","false","true"],"num_errors":0,"rt":22880.074999993667,"trial_type":"horizons-comprehension","trial_index":8,"time_elapsed":537974,"internal_node_id":"0.0-4.0-4.0","task_version":"0.2"},{"trial_type":"call-function","trial_index":9,"time_elapsed":537976,"internal_node_id":"0.0-5.0","task_version":"0.2"},{"view_history":"[{\"page_index\":0,\"viewing_time\":1356.5400000079535},{\"page_index\":1,\"viewing_time\":3144.9499999871477}]","rt":4501.675000006799,"trial_type":"instructions","trial_index":10,"time_elapsed":542478,"internal_node_id":"0.0-6.0","task_version":"0.2"},{"response_times":[676.999999966938,462.0050000376068,458.89499998884276,603.0449999962002,1275.9399999631569,895.9999999497086,1232.1099999826401,533.835000009276,627.985000028275,527.9900000314228],"keys_pressed":["leftarrow","rightarrow","rightarrow","rightarrow","leftarrow","rightarrow","leftarrow","leftarrow","rightarrow","leftarrow"],"horizon":10,"forced_choices":["leftarrow","rightarrow","rightarrow","rightarrow"],"right_color":"lightblue","left_color":"orange","left_mu":40,"right_mu":32,"left_numbers":[38,43,46,49,36,32,48,43,45,55],"right_numbers":[29,55,32,38,24,32,38,41,34,36],"points_earned":411,"phase":"task","trial_type":"horizons-task","trial_index":11,"time_elapsed":551278,"internal_node_id":"0.0-7.0","task_version":"0.2"},{"response_times":[799.1599999950267,522.0350000308827,559.8500000196509,747.2299999790266,1069.8449999908917],"keys_pressed":["leftarrow","leftarrow","rightarrow","leftarrow","leftarrow"],"horizon":5,"forced_choices":["leftarrow","leftarrow","rightarrow","leftarrow"],"right_color":"orange","left_color":"lightblue","left_mu":40,"right_mu":36,"left_numbers":[42,32,29,62,37],"right_numbers":[41,35,41,34,42],"points_earned":214,"phase":"task","trial_type":"horizons-task","trial_index":12,"time_elapsed":556478,"internal_node_id":"0.0-8.0","task_version":"0.2"},{"response_times":[1122.0749999629334,538.074999989476,556.8599999533035,559.9449999863282,737.0200000004843,600.960000010673,580.980000027921,516.959999979008,589.2000000458211,503.7550000124611],"keys_pressed":["rightarrow","leftarrow","leftarrow","rightarrow","leftarrow","leftarrow","rightarrow","rightarrow","leftarrow","leftarrow"],"horizon":10,"forced_choices":["rightarrow","leftarrow","leftarrow","rightarrow"],"right_color":"orange","left_color":"lightblue","left_mu":40,"right_mu":28,"left_numbers":[54,39,40,33,47,39,41,32,45,26],"right_numbers":[22,30,24,26,40,32,52,27,19,39],"points_earned":363,"phase":"task","trial_type":"horizons-task","trial_index":13,"time_elapsed":564287,"internal_node_id":"0.0-9.0","task_version":"0.2"},{"response_times":[578.4400000120513,368.9499999745749,345.0249999877997,509.9000000045635,1705.0799999851733,555.0700000021607,377.9199999989942,377.8850000235252,383.9450000086799,442.0199999585748],"keys_pressed":["leftarrow","rightarrow","leftarrow","leftarrow","rightarrow","rightarrow","rightarrow","rightarrow","rightarrow","rightarrow"],"horizon":10,"forced_choices":["leftarrow","rightarrow","leftarrow","leftarrow"],"right_color":"orange","left_color":"lightblue","left_mu":60,"right_mu":90,"left_numbers":[59,58,67,44,63,62,57,51,61,61],"right_numbers":[80,86,81,76,93,75,90,105,80,88],"points_earned":787,"phase":"task","trial_type":"horizons-task","trial_index":14,"time_elapsed":571434,"internal_node_id":"0.0-10.0","task_version":"0.2"},{"response_times":[450.92500001192093,481.9400000269525,378.51000000955537,492.53999994834885,529.9000000231899],"keys_pressed":["leftarrow","leftarrow","rightarrow","leftarrow","leftarrow"],"horizon":5,"forced_choices":["leftarrow","leftarrow","rightarrow","leftarrow"],"right_color":"lightblue","left_color":"orange","left_mu":60,"right_mu":30,"left_numbers":[49,46,67,59,52],"right_numbers":[26,37,28,38,38],"points_earned":234,"phase":"task","trial_type":"horizons-task","trial_index":15,"time_elapsed":575269,"internal_node_id":"0.0-11.0","task_version":"0.2"},{"response_times":[606.3549999962561,358.9199999696575,434.9800000200048,694.9850000091828,797.9499999783002,298.14500000793487,249.94000000879169,261.9000000413507,226.92500002449378,322.9900000151247],"keys_pressed":["leftarrow","rightarrow","rightarrow","leftarrow","leftarrow","leftarrow","leftarrow","leftarrow","leftarrow","leftarrow"],"horizon":10,"forced_choices":["leftarrow","rightarrow","rightarrow","leftarrow"],"right_color":"orange","left_color":"lightblue","left_mu":40,"right_mu":10,"left_numbers":[40,52,34,38,48,34,48,39,46,43],"right_numbers":[11,0,7,9,14,0,23,4,1,5],"points_earned":343,"phase":"task","trial_type":"horizons-task","trial_index":16,"time_elapsed":581026,"internal_node_id":"0.0-12.0","task_version":"0.2"},{"response_times":[746.2350000278093,365.99000002024695,611.0099999932572,506.9150000344962,930.034999968484],"keys_pressed":["rightarrow","leftarrow","rightarrow","rightarrow","rightarrow"],"horizon":5,"forced_choices":["rightarrow","leftarrow","rightarrow","rightarrow"],"right_color":"lightblue","left_color":"orange","left_mu":40,"right_mu":44,"left_numbers":[51,40,39,48,29],"right_numbers":[59,39,48,47,34],"points_earned":228,"phase":"task","trial_type":"horizons-task","trial_index":17,"time_elapsed":585689,"internal_node_id":"0.0-13.0","task_version":"0.2"},{"response_times":[526.0999999591149,469.9949999921955,381.9350000121631,555.0100000109524,2644.15500004543],"keys_pressed":["rightarrow","rightarrow","leftarrow","rightarrow","leftarrow"],"horizon":5,"forced_choices":["rightarrow","rightarrow","leftarrow","rightarrow"],"right_color":"lightblue","left_color":"orange","left_mu":60,"right_mu":40,"left_numbers":[60,55,48,59,57],"right_numbers":[46,46,48,41,48],"points_earned":238,"phase":"task","trial_type":"horizons-task","trial_index":18,"time_elapsed":591768,"internal_node_id":"0.0-14.0","task_version":"0.2"},{"response_times":[806.5199999837205,757.9900000127964,720.9600000060163,602.9899999848567,1511.0100000165403,553.0399999697693,504.8749999841675,287.0049999910407,256.95499998982996,211.9550000061281],"keys_pressed":["rightarrow","leftarrow","leftarrow","rightarrow","leftarrow","rightarrow","leftarrow","leftarrow","leftarrow","leftarrow"],"horizon":10,"forced_choices":["rightarrow","leftarrow","leftarrow","rightarrow"],"right_color":"lightblue","left_color":"orange","left_mu":40,"right_mu":32,"left_numbers":[43,42,45,38,43,47,44,43,32,27],"right_numbers":[43,27,24,32,35,35,41,40,36,38],"points_earned":386,"phase":"task","trial_type":"horizons-task","trial_index":19,"time_elapsed":599484,"internal_node_id":"0.0-15.0","task_version":"0.2"},{"response_times":[477.16000000946224,620.1349999755621,704.8249999643303,1047.054999973625,616.9050000025891,367.9450000054203,237.96500003663823,212.04000001307577,205.00999997602776,231.91999999107793],"keys_pressed":["rightarrow","leftarrow","rightarrow","leftarrow","rightarrow","rightarrow","rightarrow","rightarrow","rightarrow","rightarrow"],"horizon":10,"forced_choices":["rightarrow","leftarrow","rightarrow","leftarrow"],"right_color":"orange","left_color":"lightblue","left_mu":60,"right_mu":72,"left_numbers":[57,54,64,56,49,49,60,53,64,59],"right_numbers":[67,83,77,69,69,77,67,78,69,69],"points_earned":683,"phase":"task","trial_type":"horizons-task","trial_index":20,"time_elapsed":605708,"internal_node_id":"0.0-16.0","task_version":"0.2"},{"response_times":[590.7749999896623,439.97999996645376,493.0199999944307,781.9100000197068,592.0350000378676,169.07999996328726,136.9399999966845,145.82499995594844,146.00000000791624,169.20000000391155],"keys_pressed":["leftarrow","leftarrow","rightarrow","rightarrow","leftarrow","leftarrow","leftarrow","leftarrow","leftarrow","leftarrow"],"horizon":10,"forced_choices":["leftarrow","leftarrow","rightarrow","rightarrow"],"right_color":"orange","left_color":"lightblue","left_mu":60,"right_mu":52,"left_numbers":[64,66,61,68,66,50,58,52,76,62],"right_numbers":[38,45,48,41,58,61,49,63,43,54],"points_earned":583,"phase":"task","trial_type":"horizons-task","trial_index":21,"time_elapsed":610876,"internal_node_id":"0.0-17.0","task_version":"0.2"},{"response_times":[497.4449999863282,497.73000000277534,396.92500000819564,646.9749999814667,1075.0799999805167],"keys_pressed":["leftarrow","leftarrow","rightarrow","leftarrow","leftarrow"],"horizon":5,"forced_choices":["leftarrow","leftarrow","rightarrow","leftarrow"],"right_color":"orange","left_color":"lightblue","left_mu":40,"right_mu":52,"left_numbers":[46,49,26,51,36],"right_numbers":[51,45,41,54,48],"points_earned":223,"phase":"task","trial_type":"horizons-task","trial_index":22,"time_elapsed":615493,"internal_node_id":"0.0-18.0","task_version":"0.2"},{"response_times":[476.16500000003725,472.9300000471994,567.0650000101887,599.869999976363,847.8950000135228,515.0100000319071,174.14499999722466,210.88000002782792,166.89500003121793,154.9850000301376],"keys_pressed":["rightarrow","leftarrow","rightarrow","rightarrow","leftarrow","rightarrow","rightarrow","rightarrow","rightarrow","rightarrow"],"horizon":10,"forced_choices":["rightarrow","leftarrow","rightarrow","rightarrow"],"right_color":"lightblue","left_color":"orange","left_mu":40,"right_mu":44,"left_numbers":[42,36,41,38,31,42,41,39,36,39],"right_numbers":[52,55,45,55,54,41,52,39,35,49],"points_earned":435,"phase":"task","trial_type":"horizons-task","trial_index":23,"time_elapsed":621181,"internal_node_id":"0.0-19.0","task_version":"0.2"},{"response_times":[555.785000033211,430.80500001087785,1077.9350000084378,782.9900000360794,1130.0049999845214,410.9499999904074,226.9949999754317,151.94499999051914,147.96500001102686,141.98999997461215],"keys_pressed":["rightarrow","rightarrow","rightarrow","leftarrow","leftarrow","leftarrow","leftarrow","leftarrow","leftarrow","leftarrow"],"horizon":10,"forced_choices":["rightarrow","rightarrow","rightarrow","leftarrow"],"right_color":"lightblue","left_color":"orange","left_mu":60,"right_mu":56,"left_numbers":[65,64,57,66,70,68,43,58,61,52],"right_numbers":[30,59,41,56,60,55,56,60,58,51],"points_earned":548,"phase":"task","trial_type":"horizons-task","trial_index":24,"time_elapsed":627741,"internal_node_id":"0.0-20.0","task_version":"0.2"},{"response_times":[504.72999998601153,415.9850000287406,430.01499999081716,728.96000003675,505.0850000116043,142.8149999701418,132.00000004144385,132.07000005058944,143.88500002678484,150.93999996315688],"keys_pressed":["leftarrow","leftarrow","rightarrow","leftarrow","leftarrow","leftarrow","leftarrow","leftarrow","leftarrow","leftarrow"],"horizon":10,"forced_choices":["leftarrow","leftarrow","rightarrow","leftarrow"],"right_color":"lightblue","left_color":"orange","left_mu":60,"right_mu":30,"left_numbers":[64,56,71,56,63,64,42,77,55,57],"right_numbers":[22,20,32,48,31,20,22,41,32,23],"points_earned":566,"phase":"task","trial_type":"horizons-task","trial_index":25,"time_elapsed":632530,"internal_node_id":"0.0-21.0","task_version":"0.2"},{"response_times":[487.6500000245869,512.6250000321306,784.0749999741092,972.8699999977835,1703.0349999549799,491.92499998025596,457.010000012815,463.0299999844283,144.09000001614913,135.84499998250976],"keys_pressed":["rightarrow","rightarrow","leftarrow","rightarrow","rightarrow","rightarrow","leftarrow","rightarrow","rightarrow","rightarrow"],"horizon":10,"forced_choices":["rightarrow","rightarrow","leftarrow","rightarrow"],"right_color":"lightblue","left_color":"orange","left_mu":60,"right_mu":68,"left_numbers":[55,49,71,59,50,41,54,63,56,53],"right_numbers":[63,82,75,72,69,65,72,74,61,68],"points_earned":679,"phase":"task","trial_type":"horizons-task","trial_index":26,"time_elapsed":640184,"internal_node_id":"0.0-22.0","task_version":"0.2"},{"response_times":[466.38500003609806,345.8649999811314,536.0050000017509,434.95500000426546,449.9599999981001],"keys_pressed":["rightarrow","leftarrow","leftarrow","rightarrow","rightarrow"],"horizon":5,"forced_choices":["rightarrow","leftarrow","leftarrow","rightarrow"],"right_color":"orange","left_color":"lightblue","left_mu":60,"right_mu":80,"left_numbers":[68,57,63,55,56],"right_numbers":[88,80,83,89,74],"points_earned":371,"phase":"task","trial_type":"horizons-task","trial_index":27,"time_elapsed":643921,"internal_node_id":"0.0-23.0","task_version":"0.2"},{"response_times":[501.95499998517334,382.8649999923073,437.9600000102073,578.9499999955297,868.9750000485219],"keys_pressed":["rightarrow","leftarrow","rightarrow","leftarrow","rightarrow"],"horizon":5,"forced_choices":["rightarrow","leftarrow","rightarrow","leftarrow"],"right_color":"lightblue","left_color":"orange","left_mu":40,"right_mu":44,"left_numbers":[41,37,13,37,47],"right_numbers":[39,31,44,36,36],"points_earned":193,"phase":"task","trial_type":"horizons-task","trial_index":28,"time_elapsed":648194,"internal_node_id":"0.0-24.0","task_version":"0.2"},{"response_times":[593.2299999985844,339.864999987185,633.9849999640137,793.9499999629334,805.019999970682],"keys_pressed":["rightarrow","leftarrow","rightarrow","leftarrow","rightarrow"],"horizon":5,"forced_choices":["rightarrow","leftarrow","rightarrow","leftarrow"],"right_color":"orange","left_color":"lightblue","left_mu":60,"right_mu":72,"left_numbers":[74,65,71,56,55],"right_numbers":[74,70,68,57,67],"points_earned":330,"phase":"task","trial_type":"horizons-task","trial_index":29,"time_elapsed":652862,"internal_node_id":"0.0-25.0","task_version":"0.2"},{"response_times":[424.059999990277,336.8849999969825,478.9699999964796,454.1449999669567,2376.9800000009127,774.875000002794,485.9600000199862,197.9999999748543,187.91000003693625,178.06500004371628],"keys_pressed":["leftarrow","rightarrow","leftarrow","rightarrow","leftarrow","rightarrow","leftarrow","leftarrow","leftarrow","leftarrow"],"horizon":10,"forced_choices":["leftarrow","rightarrow","leftarrow","rightarrow"],"right_color":"lightblue","left_color":"orange","left_mu":60,"right_mu":40,"left_numbers":[62,68,52,63,54,48,60,56,57,71],"right_numbers":[52,51,41,60,35,34,36,34,49,49],"points_earned":557,"phase":"task","trial_type":"horizons-task","trial_index":30,"time_elapsed":660261,"internal_node_id":"0.0-26.0","task_version":"0.2"},{"response_times":[461.31000004243106,413.910000002943,451.98999997228384,627.135000017006,372.92499997420236],"keys_pressed":["rightarrow","rightarrow","rightarrow","leftarrow","rightarrow"],"horizon":5,"forced_choices":["rightarrow","rightarrow","rightarrow","leftarrow"],"right_color":"orange","left_color":"lightblue","left_mu":60,"right_mu":80,"left_numbers":[62,44,64,53,68],"right_numbers":[89,77,81,79,97],"points_earned":397,"phase":"task","trial_type":"horizons-task","trial_index":31,"time_elapsed":664090,"internal_node_id":"0.0-27.0","task_version":"0.2"},{"response_times":[719.7299999534152,302.8150000027381,589.1899999696761,523.7600000109524,903.0049999710172],"keys_pressed":["rightarrow","leftarrow","rightarrow","rightarrow","rightarrow"],"horizon":5,"forced_choices":["rightarrow","leftarrow","rightarrow","rightarrow"],"right_color":"lightblue","left_color":"orange","left_mu":40,"right_mu":60,"left_numbers":[39,39,45,36,50],"right_numbers":[66,52,60,67,48],"points_earned":280,"phase":"task","trial_type":"horizons-task","trial_index":32,"time_elapsed":668631,"internal_node_id":"0.0-28.0","task_version":"0.2"},{"response_times":[576.6149999690242,362.9450000007637,519.9649999849498,608.0150000052527,1481.9850000203587,471.9850000110455,485.9599999617785,462.0949999662116,236.86499998439103,241.97500001173466],"keys_pressed":["leftarrow","rightarrow","leftarrow","rightarrow","leftarrow","leftarrow","rightarrow","leftarrow","leftarrow","leftarrow"],"horizon":10,"forced_choices":["leftarrow","rightarrow","leftarrow","rightarrow"],"right_color":"orange","left_color":"lightblue","left_mu":40,"right_mu":36,"left_numbers":[47,36,21,44,48,42,44,47,55,38],"right_numbers":[46,36,43,33,34,44,43,25,34,32],"points_earned":410,"phase":"task","trial_type":"horizons-task","trial_index":33,"time_elapsed":675582,"internal_node_id":"0.0-29.0","task_version":"0.2"},{"response_times":[478.4900000086054,458.8450000155717,629.9449999933131,477.0749999443069,424.07000000821427,203.75000004423782,164.97500002151355,201.0650000302121,195.85999997798353,192.99499999033287],"keys_pressed":["leftarrow","rightarrow","rightarrow","leftarrow","leftarrow","leftarrow","leftarrow","leftarrow","leftarrow","leftarrow"],"horizon":10,"forced_choices":["leftarrow","rightarrow","rightarrow","leftarrow"],"right_color":"lightblue","left_color":"orange","left_mu":40,"right_mu":20,"left_numbers":[38,51,47,40,37,34,49,39,35,46],"right_numbers":[7,12,18,19,13,12,25,15,32,17],"points_earned":348,"phase":"task","trial_type":"horizons-task","trial_index":34,"time_elapsed":680511,"internal_node_id":"0.0-30.0","task_version":"0.2"},{"response_times":[410.8699999633245,356.9499999866821,543.9699999988079,565.0150000001304,352.99000004306436],"keys_pressed":["leftarrow","rightarrow","leftarrow","rightarrow","leftarrow"],"horizon":5,"forced_choices":["leftarrow","rightarrow","leftarrow","rightarrow"],"right_color":"lightblue","left_color":"orange","left_mu":60,"right_mu":40,"left_numbers":[64,44,55,44,68],"right_numbers":[44,34,37,37,38],"points_earned":258,"phase":"task","trial_type":"horizons-task","trial_index":35,"time_elapsed":684244,"internal_node_id":"0.0-31.0","task_version":"0.2"},{"response_times":[521.9350000261329,459.7500000381842,373.0000000214204,544.1100000170991,842.8350000176579,697.0699999947101,615.8849999774247,317.02000001678243,443.0150000262074,203.86000000871718],"keys_pressed":["leftarrow","leftarrow","rightarrow","rightarrow","leftarrow","rightarrow","rightarrow","leftarrow","leftarrow","leftarrow"],"horizon":10,"forced_choices":["leftarrow","leftarrow","rightarrow","rightarrow"],"right_color":"lightblue","left_color":"orange","left_mu":60,"right_mu":56,"left_numbers":[55,61,49,48,51,64,69,73,66,55],"right_numbers":[44,47,51,46,55,53,53,42,53,54],"points_earned":564,"phase":"task","trial_type":"horizons-task","trial_index":36,"time_elapsed":690766,"internal_node_id":"0.0-32.0","task_version":"0.2"},{"response_times":[604.4349999865517,495.9950000047684,466.9600000488572,752.0699999877252,795.914999966044],"keys_pressed":["leftarrow","leftarrow","rightarrow","rightarrow","leftarrow"],"horizon":5,"forced_choices":["leftarrow","leftarrow","rightarrow","rightarrow"],"right_color":"orange","left_color":"lightblue","left_mu":60,"right_mu":52,"left_numbers":[50,60,53,62,60],"right_numbers":[43,47,63,50,51],"points_earned":283,"phase":"task","trial_type":"horizons-task","trial_index":37,"time_elapsed":695383,"internal_node_id":"0.0-33.0","task_version":"0.2"},{"response_times":[459.2850000481121,334.1350000118837,726.8349999794737,305.95499998889863,1194.9749999912456,700.9950000210665,283.9650000096299,383.0049999523908,392.9599999682978,232.91999998036772],"keys_pressed":["leftarrow","rightarrow","leftarrow","rightarrow","rightarrow","leftarrow","leftarrow","leftarrow","leftarrow","leftarrow"],"horizon":10,"forced_choices":["leftarrow","rightarrow","leftarrow","rightarrow"],"right_color":"orange","left_color":"lightblue","left_mu":40,"right_mu":52,"left_numbers":[36,36,51,49,34,52,52,36,31,40],"right_numbers":[56,50,58,56,40,59,45,57,44,55],"points_earned":444,"phase":"task","trial_type":"horizons-task","trial_index":38,"time_elapsed":701901,"internal_node_id":"0.0-34.0","task_version":"0.2"},{"response_times":[466.3999999756925,359.9349999567494,324.0850000292994,796.9400000292808,466.92000003531575],"keys_pressed":["leftarrow","rightarrow","leftarrow","rightarrow","rightarrow"],"horizon":5,"forced_choices":["leftarrow","rightarrow","leftarrow","rightarrow"],"right_color":"lightblue","left_color":"orange","left_mu":60,"right_mu":68,"left_numbers":[58,55,66,58,53],"right_numbers":[66,79,70,63,64],"points_earned":330,"phase":"task","trial_type":"horizons-task","trial_index":39,"time_elapsed":705817,"internal_node_id":"0.0-35.0","task_version":"0.2"},{"response_times":[364.7699999855831,750.7700000423938,653.9950000005774,679.9950000131503,550.0100000062957],"keys_pressed":["leftarrow","leftarrow","rightarrow","rightarrow","leftarrow"],"horizon":5,"forced_choices":["leftarrow","leftarrow","rightarrow","rightarrow"],"right_color":"lightblue","left_color":"orange","left_mu":60,"right_mu":56,"left_numbers":[66,62,63,57,47],"right_numbers":[60,62,60,43,46],"points_earned":278,"phase":"task","trial_type":"horizons-task","trial_index":40,"time_elapsed":710320,"internal_node_id":"0.0-36.0","task_version":"0.2"},{"response_times":[506.76999997813255,506.9050000165589,744.974999979604,364.000000001397,397.0050000352785,162.93500002939254,142.95000000856817,152.06499997293577,135.87500003632158,136.9900000281632],"keys_pressed":["rightarrow","leftarrow","rightarrow","leftarrow","leftarrow","leftarrow","leftarrow","leftarrow","leftarrow","leftarrow"],"horizon":10,"forced_choices":["rightarrow","leftarrow","rightarrow","leftarrow"],"right_color":"lightblue","left_color":"orange","left_mu":60,"right_mu":30,"left_numbers":[72,69,77,59,51,51,62,65,61,63],"right_numbers":[27,35,41,41,17,43,25,33,33,30],"points_earned":549,"phase":"task","trial_type":"horizons-task","trial_index":41,"time_elapsed":715072,"internal_node_id":"0.0-37.0","task_version":"0.2"},{"response_times":[448.4499999671243,478.01500000059605,592.1499999822117,527.7950000017881,507.00000004144385],"keys_pressed":["leftarrow","leftarrow","leftarrow","rightarrow","leftarrow"],"horizon":5,"forced_choices":["leftarrow","leftarrow","leftarrow","rightarrow"],"right_color":"orange","left_color":"lightblue","left_mu":60,"right_mu":72,"left_numbers":[65,49,69,53,60],"right_numbers":[63,72,75,64,58],"points_earned":307,"phase":"task","trial_type":"horizons-task","trial_index":42,"time_elapsed":719128,"internal_node_id":"0.0-38.0","task_version":"0.2"},{"response_times":[420.8050000015646,353.9800000144169,707.9249999951571,811.0049999668263,1136.0049999784678],"keys_pressed":["leftarrow","rightarrow","leftarrow","leftarrow","rightarrow"],"horizon":5,"forced_choices":["leftarrow","rightarrow","leftarrow","leftarrow"],"right_color":"orange","left_color":"lightblue","left_mu":60,"right_mu":90,"left_numbers":[56,57,60,64,52],"right_numbers":[88,91,81,85,88],"points_earned":359,"phase":"task","trial_type":"horizons-task","trial_index":43,"time_elapsed":724059,"internal_node_id":"0.0-39.0","task_version":"0.2"},{"response_times":[544.129999994766,369.9149999883957,672.9400000185706,1195.145000005141,1178.8200000301003,1419.0100000123493,612.9450000007637,402.9449999798089,366.0200000158511,460.0649999920279],"keys_pressed":["rightarrow","leftarrow","leftarrow","leftarrow","rightarrow","rightarrow","leftarrow","leftarrow","leftarrow","leftarrow"],"horizon":10,"forced_choices":["rightarrow","leftarrow","leftarrow","leftarrow"],"right_color":"orange","left_color":"lightblue","left_mu":60,"right_mu":48,"left_numbers":[64,58,52,49,59,52,55,54,72,58],"right_numbers":[59,39,49,47,53,37,45,45,46,45],"points_earned":547,"phase":"task","trial_type":"horizons-task","trial_index":44,"time_elapsed":732784,"internal_node_id":"0.0-40.0","task_version":"0.2"},{"response_times":[667.2900000121444,466.0450000083074,483.86999999638647,741.9900000095367,718.0599999846891],"keys_pressed":["rightarrow","rightarrow","leftarrow","rightarrow","rightarrow"],"horizon":5,"forced_choices":["rightarrow","rightarrow","leftarrow","rightarrow"],"right_color":"lightblue","left_color":"orange","left_mu":60,"right_mu":68,"left_numbers":[67,62,72,56,62],"right_numbers":[48,76,69,74,64],"points_earned":334,"phase":"task","trial_type":"horizons-task","trial_index":45,"time_elapsed":737365,"internal_node_id":"0.0-41.0","task_version":"0.2"},{"response_times":[412.33500000089407,430.8749999618158,513.0150000331923,988.8400000054389,1133.109999995213,494.9100000085309,368.91999997897074,164.02000002563,157.92000002693385,148.990000016056],"keys_pressed":["rightarrow","leftarrow","leftarrow","leftarrow","rightarrow","rightarrow","rightarrow","rightarrow","rightarrow","rightarrow"],"horizon":10,"forced_choices":["rightarrow","leftarrow","leftarrow","leftarrow"],"right_color":"lightblue","left_color":"orange","left_mu":40,"right_mu":70,"left_numbers":[40,39,40,34,47,31,33,48,36,33],"right_numbers":[63,64,63,65,57,72,64,86,79,63],"points_earned":597,"phase":"task","trial_type":"horizons-task","trial_index":46,"time_elapsed":743680,"internal_node_id":"0.0-42.0","task_version":"0.2"},{"response_times":[614.3949999823235,411.03499999735504,668.0300000007264,1078.845000010915,1332.1750000468455],"keys_pressed":["leftarrow","rightarrow","rightarrow","rightarrow","rightarrow"],"horizon":5,"forced_choices":["leftarrow","rightarrow","rightarrow","rightarrow"],"right_color":"lightblue","left_color":"orange","left_mu":60,"right_mu":64,"left_numbers":[73,74,58,67,66],"right_numbers":[65,52,71,73,60],"points_earned":329,"phase":"task","trial_type":"horizons-task","trial_index":47,"time_elapsed":749286,"internal_node_id":"0.0-43.0","task_version":"0.2"},{"response_times":[480.12500000186265,363.0350000457838,374.8949999571778,480.0299999769777,1301.949999993667,407.94499998446554,289.9599999655038,204.02000000467524,190.04000001586974,171.90000001573935],"keys_pressed":["rightarrow","leftarrow","leftarrow","rightarrow","rightarrow","rightarrow","rightarrow","rightarrow","rightarrow","rightarrow"],"horizon":10,"forced_choices":["rightarrow","leftarrow","leftarrow","rightarrow"],"right_color":"lightblue","left_color":"orange","left_mu":40,"right_mu":70,"left_numbers":[35,49,31,49,50,44,53,30,34,32],"right_numbers":[70,83,67,56,69,78,66,73,66,68],"points_earned":626,"phase":"task","trial_type":"horizons-task","trial_index":48,"time_elapsed":755053,"internal_node_id":"0.0-44.0","task_version":"0.2"},{"response_times":[392.04000000609085,405.0799999968149,463.0349999642931,553.9999999455176,687.789999996312],"keys_pressed":["rightarrow","leftarrow","leftarrow","leftarrow","leftarrow"],"horizon":5,"forced_choices":["rightarrow","leftarrow","leftarrow","leftarrow"],"right_color":"orange","left_color":"lightblue","left_mu":60,"right_mu":48,"left_numbers":[47,74,58,63,69],"right_numbers":[48,53,61,50,35],"points_earned":312,"phase":"task","trial_type":"horizons-task","trial_index":49,"time_elapsed":759056,"internal_node_id":"0.0-45.0","task_version":"0.2"},{"response_times":[536.6650000214577,392.76000001700595,540.9649999928661,569.9749999912456,1829.0399999823421],"keys_pressed":["rightarrow","rightarrow","leftarrow","rightarrow","rightarrow"],"horizon":5,"forced_choices":["rightarrow","rightarrow","leftarrow","rightarrow"],"right_color":"lightblue","left_color":"orange","left_mu":40,"right_mu":20,"left_numbers":[40,34,35,33,26],"right_numbers":[29,21,10,33,21],"points_earned":139,"phase":"task","trial_type":"horizons-task","trial_index":50,"time_elapsed":764428,"internal_node_id":"0.0-46.0","task_version":"0.2"},{"view_history":"[{\"page_index\":0,\"viewing_time\":107020.09500004351},{\"page_index\":1,\"viewing_time\":1499.855000001844}]","rt":108520.27500001714,"trial_type":"instructions","trial_index":51,"time_elapsed":872949,"internal_node_id":"0.0-47.0","task_version":"0.2"},{"response_times":[694.0399999730289,460.9550000168383,463.09000003384426,407.0449999999255,1644.8400000226684],"keys_pressed":["leftarrow","leftarrow","leftarrow","rightarrow","leftarrow"],"horizon":5,"forced_choices":["leftarrow","leftarrow","leftarrow","rightarrow"],"right_color":"orange","left_color":"lightblue","left_mu":40,"right_mu":48,"left_numbers":[44,28,28,41,36],"right_numbers":[43,55,50,40,42],"points_earned":176,"phase":"task","trial_type":"horizons-task","trial_index":52,"time_elapsed":878124,"internal_node_id":"0.0-48.0","task_version":"0.2"},{"response_times":[390.24999999674037,396.98499999940395,664.1400000080466,698.8150000106543,515.9799999673851,138.91499995952472,134.00999997975305,127.96499999240041,98.05000002961606,99.95500004151836],"keys_pressed":["rightarrow","rightarrow","leftarrow","leftarrow","rightarrow","rightarrow","rightarrow","rightarrow","rightarrow","rightarrow"],"horizon":10,"forced_choices":["rightarrow","rightarrow","leftarrow","leftarrow"],"right_color":"orange","left_color":"lightblue","left_mu":60,"right_mu":90,"left_numbers":[63,69,73,62,63,46,58,71,68,57],"right_numbers":[100,109,79,96,85,102,80,100,93,89],"points_earned":893,"phase":"task","trial_type":"horizons-task","trial_index":53,"time_elapsed":882891,"internal_node_id":"0.0-49.0","task_version":"0.2"},{"response_times":[413.6150000267662,396.9799999613315,340.94000002369285,746.9750000163913,432.1099999942817],"keys_pressed":["rightarrow","rightarrow","leftarrow","leftarrow","rightarrow"],"horizon":5,"forced_choices":["rightarrow","rightarrow","leftarrow","leftarrow"],"right_color":"orange","left_color":"lightblue","left_mu":60,"right_mu":90,"left_numbers":[63,53,68,52,58],"right_numbers":[85,102,82,89,91],"points_earned":398,"phase":"task","trial_type":"horizons-task","trial_index":54,"time_elapsed":886724,"internal_node_id":"0.0-50.0","task_version":"0.2"},{"response_times":[468.3350000414066,329.00999998673797,357.97499999171123,368.964999972377,773.9600000204518,1337.009999959264,547.0299999578856,229.8900000168942,223.00500003620982,239.960000035353],"keys_pressed":["rightarrow","leftarrow","rightarrow","rightarrow","rightarrow","leftarrow","rightarrow","rightarrow","rightarrow","rightarrow"],"horizon":10,"forced_choices":["rightarrow","leftarrow","rightarrow","rightarrow"],"right_color":"lightblue","left_color":"orange","left_mu":40,"right_mu":60,"left_numbers":[47,49,37,40,57,42,35,33,41,36],"right_numbers":[56,62,41,59,58,64,65,61,72,65],"points_earned":568,"phase":"task","trial_type":"horizons-task","trial_index":55,"time_elapsed":893100,"internal_node_id":"0.0-51.0","task_version":"0.2"},{"response_times":[440.56499999715015,320.9350000252016,428.0600000056438,394.9850000208244,970.0699999812059],"keys_pressed":["rightarrow","leftarrow","leftarrow","rightarrow","leftarrow"],"horizon":5,"forced_choices":["rightarrow","leftarrow","leftarrow","rightarrow"],"right_color":"lightblue","left_color":"orange","left_mu":40,"right_mu":32,"left_numbers":[58,36,26,41,49],"right_numbers":[29,30,32,35,32],"points_earned":175,"phase":"task","trial_type":"horizons-task","trial_index":56,"time_elapsed":897157,"internal_node_id":"0.0-52.0","task_version":"0.2"},{"response_times":[385.89999999385327,370.9749999688938,438.0349999992177,793.9650000189431,273.95000000251457],"keys_pressed":["rightarrow","leftarrow","leftarrow","leftarrow","rightarrow"],"horizon":5,"forced_choices":["rightarrow","leftarrow","leftarrow","leftarrow"],"right_color":"lightblue","left_color":"orange","left_mu":40,"right_mu":70,"left_numbers":[42,28,34,48,35],"right_numbers":[60,58,70,66,60],"points_earned":230,"phase":"task","trial_type":"horizons-task","trial_index":57,"time_elapsed":900922,"internal_node_id":"0.0-53.0","task_version":"0.2"},{"response_times":[462.1599999954924,576.9449999788776,403.97500002291054,388.99500004481524,1003.9799999794923,494.0249999635853,306.93500000052154,208.96499999798834,149.9100000364706,142.97500002430752],"keys_pressed":["leftarrow","leftarrow","leftarrow","rightarrow","leftarrow","leftarrow","leftarrow","leftarrow","leftarrow","leftarrow"],"horizon":10,"forced_choices":["leftarrow","leftarrow","leftarrow","rightarrow"],"right_color":"orange","left_color":"lightblue","left_mu":60,"right_mu":72,"left_numbers":[48,50,58,65,60,54,73,56,51,57],"right_numbers":[77,54,71,55,74,59,75,58,75,75],"points_earned":562,"phase":"task","trial_type":"horizons-task","trial_index":58,"time_elapsed":906564,"internal_node_id":"0.0-54.0","task_version":"0.2"},{"response_times":[454.39500000793487,381.8450000253506,430.9650000068359,441.9099999940954,565.0550000136718,333.87500001117587,175.0300000421703,151.00499999243766,175.01499998616055,156.9199999794364],"keys_pressed":["leftarrow","leftarrow","rightarrow","rightarrow","leftarrow","leftarrow","leftarrow","leftarrow","leftarrow","leftarrow"],"horizon":10,"forced_choices":["leftarrow","leftarrow","rightarrow","rightarrow"],"right_color":"lightblue","left_color":"orange","left_mu":60,"right_mu":64,"left_numbers":[76,61,68,61,58,48,51,57,62,61],"right_numbers":[48,72,67,50,63,55,60,51,60,61],"points_earned":591,"phase":"task","trial_type":"horizons-task","trial_index":59,"time_elapsed":911332,"internal_node_id":"0.0-55.0","task_version":"0.2"},{"response_times":[402.05999999307096,393.83499999530613,440.1100000250153,728.8700000499375,376.9800000009127,244.94500004220754,163.00000000046566,160.96500004641712,161.0050000017509,179.984999995213],"keys_pressed":["leftarrow","rightarrow","rightarrow","rightarrow","leftarrow","leftarrow","leftarrow","leftarrow","leftarrow","leftarrow"],"horizon":10,"forced_choices":["leftarrow","rightarrow","rightarrow","rightarrow"],"right_color":"orange","left_color":"lightblue","left_mu":60,"right_mu":52,"left_numbers":[71,66,61,68,59,60,60,58,65,53],"right_numbers":[51,50,39,53,62,69,48,47,39,55],"points_earned":568,"phase":"task","trial_type":"horizons-task","trial_index":60,"time_elapsed":916086,"internal_node_id":"0.0-56.0","task_version":"0.2"},{"response_times":[706.6849999828264,451.10000000568107,388.89000000199303,524.875000002794,1047.9700000141747],"keys_pressed":["leftarrow","rightarrow","leftarrow","leftarrow","leftarrow"],"horizon":5,"forced_choices":["leftarrow","rightarrow","leftarrow","leftarrow"],"right_color":"orange","left_color":"lightblue","left_mu":40,"right_mu":28,"left_numbers":[41,56,45,36,42],"right_numbers":[12,22,38,24,27],"points_earned":186,"phase":"task","trial_type":"horizons-task","trial_index":61,"time_elapsed":920708,"internal_node_id":"0.0-57.0","task_version":"0.2"},{"response_times":[424.1650000330992,342.0299999997951,441.94500002777204,683.980000030715,1308.0900000059046,528.8949999958277,308.9499999769032,268.08000000892207,281.8649999680929,206.9599999813363],"keys_pressed":["leftarrow","rightarrow","rightarrow","rightarrow","rightarrow","rightarrow","rightarrow","rightarrow","rightarrow","rightarrow"],"horizon":10,"forced_choices":["leftarrow","rightarrow","rightarrow","rightarrow"],"right_color":"lightblue","left_color":"orange","left_mu":60,"right_mu":64,"left_numbers":[61,55,55,69,53,54,51,75,56,64],"right_numbers":[65,74,53,72,64,62,60,56,62,64],"points_earned":628,"phase":"task","trial_type":"horizons-task","trial_index":62,"time_elapsed":927005,"internal_node_id":"0.0-58.0","task_version":"0.2"},{"response_times":[448.7399999634363,356.8799999775365,392.9599999682978,539.9849999812432,612.105000007432,197.88499997230247,172.92499996256083,152.99500001128763,150.94000002136454,146.96500002173707],"keys_pressed":["rightarrow","rightarrow","leftarrow","leftarrow","rightarrow","rightarrow","rightarrow","rightarrow","rightarrow","rightarrow"],"horizon":10,"forced_choices":["rightarrow","rightarrow","leftarrow","leftarrow"],"right_color":"lightblue","left_color":"orange","left_mu":40,"right_mu":60,"left_numbers":[41,33,48,33,39,53,42,45,25,43],"right_numbers":[68,67,67,64,54,61,72,59,47,62],"points_earned":571,"phase":"task","trial_type":"horizons-task","trial_index":63,"time_elapsed":931680,"internal_node_id":"0.0-59.0","task_version":"0.2"},{"response_times":[400.4399999976158,365.93500000890344,480.0449999747798,504.9099999596365,705.0750000053085,97.08500001579523,148.82499998202547,131.9299999740906,228.41500001959503,349.564999982249],"keys_pressed":["rightarrow","leftarrow","leftarrow","rightarrow","rightarrow","rightarrow","rightarrow","rightarrow","rightarrow","rightarrow"],"horizon":10,"forced_choices":["rightarrow","leftarrow","leftarrow","rightarrow"],"right_color":"orange","left_color":"lightblue","left_mu":60,"right_mu":80,"left_numbers":[53,64,69,65,45,69,63,66,73,47],"right_numbers":[78,66,74,83,82,92,85,85,73,84],"points_earned":795,"phase":"task","trial_type":"horizons-task","trial_index":64,"time_elapsed":936595,"internal_node_id":"0.0-60.0","task_version":"0.2"},{"response_times":[388.779999979306,330.98500000778586,434.1800000402145,622.8899999987334,401.85500000370666,142.96000002650544,128.97999997949228,143.9949999912642,131.98500004364178,141.98499999474734],"keys_pressed":["rightarrow","rightarrow","rightarrow","leftarrow","rightarrow","rightarrow","rightarrow","rightarrow","rightarrow","rightarrow"],"horizon":10,"forced_choices":["rightarrow","rightarrow","rightarrow","leftarrow"],"right_color":"orange","left_color":"lightblue","left_mu":60,"right_mu":80,"left_numbers":[59,59,61,65,47,70,65,56,58,60],"right_numbers":[82,78,77,69,82,77,79,90,70,87],"points_earned":787,"phase":"task","trial_type":"horizons-task","trial_index":65,"time_elapsed":940966,"internal_node_id":"0.0-61.0","task_version":"0.2"},{"response_times":[408.8099999935366,369.9400000041351,483.95999998319894,507.0599999744445,437.98000004608184],"keys_pressed":["rightarrow","leftarrow","rightarrow","leftarrow","leftarrow"],"horizon":5,"forced_choices":["rightarrow","leftarrow","rightarrow","leftarrow"],"right_color":"lightblue","left_color":"orange","left_mu":60,"right_mu":30,"left_numbers":[62,61,69,68,58],"right_numbers":[45,40,24,50,44],"points_earned":256,"phase":"task","trial_type":"horizons-task","trial_index":66,"time_elapsed":944676,"internal_node_id":"0.0-62.0","task_version":"0.2"},{"response_times":[350.6799999740906,396.85499999905005,468.9599999692291,586.089999997057,1325.9950000210665,403.91499997349456,165.9549999749288,174.90499996347353,116.99999996926636,139.93499998468906],"keys_pressed":["rightarrow","leftarrow","leftarrow","leftarrow","rightarrow","leftarrow","leftarrow","leftarrow","leftarrow","leftarrow"],"horizon":10,"forced_choices":["rightarrow","leftarrow","leftarrow","leftarrow"],"right_color":"orange","left_color":"lightblue","left_mu":40,"right_mu":10,"left_numbers":[31,32,52,32,46,36,54,25,35,38],"right_numbers":[11,1,22,30,10,15,21,22,0,10],"points_earned":325,"phase":"task","trial_type":"horizons-task","trial_index":67,"time_elapsed":950308,"internal_node_id":"0.0-63.0","task_version":"0.2"},{"response_times":[481.6550000105053,369.9400000041351,405.9849999612197,549.9699999927543,531.0450000106357],"keys_pressed":["leftarrow","rightarrow","rightarrow","leftarrow","rightarrow"],"horizon":5,"forced_choices":["leftarrow","rightarrow","rightarrow","leftarrow"],"right_color":"orange","left_color":"lightblue","left_mu":40,"right_mu":48,"left_numbers":[44,37,32,42,43],"right_numbers":[44,54,61,48,54],"points_earned":255,"phase":"task","trial_type":"horizons-task","trial_index":68,"time_elapsed":954149,"internal_node_id":"0.0-64.0","task_version":"0.2"},{"response_times":[592.1400000224821,421.97999998461455,407.9649999621324,594.0100000007078,577.9249999905005,666.9799999799579,523.1250000069849,123.90000000596046,115.98500004038215,109.0900000417605],"keys_pressed":["leftarrow","leftarrow","rightarrow","leftarrow","rightarrow","leftarrow","rightarrow","rightarrow","rightarrow","rightarrow"],"horizon":10,"forced_choices":["leftarrow","leftarrow","rightarrow","leftarrow"],"right_color":"orange","left_color":"lightblue","left_mu":40,"right_mu":52,"left_numbers":[28,31,40,41,31,31,35,37,42,46],"right_numbers":[56,52,52,57,40,48,45,46,48,48],"points_earned":410,"phase":"task","trial_type":"horizons-task","trial_index":69,"time_elapsed":959784,"internal_node_id":"0.0-65.0","task_version":"0.2"},{"response_times":[771.3600000133738,552.8449999983422,589.9949999875389,823.0900000198744,208.85999995516613],"keys_pressed":["rightarrow","rightarrow","leftarrow","leftarrow","rightarrow"],"horizon":5,"forced_choices":["rightarrow","rightarrow","leftarrow","leftarrow"],"right_color":"lightblue","left_color":"orange","left_mu":40,"right_mu":60,"left_numbers":[37,51,38,33,54],"right_numbers":[57,62,60,46,49],"points_earned":239,"phase":"task","trial_type":"horizons-task","trial_index":70,"time_elapsed":964233,"internal_node_id":"0.0-66.0","task_version":"0.2"},{"response_times":[431.80000002030283,338.94500002497807,697.9649999993853,586.9599999859929,601.0750000132248,1070.0399999623187,449.80000000214204,144.9750000028871,131.00999995367602,119.95000002207235],"keys_pressed":["rightarrow","leftarrow","rightarrow","leftarrow","leftarrow","rightarrow","rightarrow","rightarrow","rightarrow","rightarrow"],"horizon":10,"forced_choices":["rightarrow","leftarrow","rightarrow","leftarrow"],"right_color":"lightblue","left_color":"orange","left_mu":40,"right_mu":44,"left_numbers":[58,49,43,33,41,42,26,36,33,45],"right_numbers":[40,35,45,30,41,62,54,44,34,50],"points_earned":452,"phase":"task","trial_type":"horizons-task","trial_index":71,"time_elapsed":970308,"internal_node_id":"0.0-67.0","task_version":"0.2"},{"response_times":[509.4000000390224,436.93000002531335,746.0950000095181,733.8699999963865,227.94999997131526],"keys_pressed":["leftarrow","leftarrow","rightarrow","rightarrow","leftarrow"],"horizon":5,"forced_choices":["leftarrow","leftarrow","rightarrow","rightarrow"],"right_color":"lightblue","left_color":"orange","left_mu":60,"right_mu":64,"left_numbers":[62,67,60,65,61],"right_numbers":[75,57,58,66,74],"points_earned":314,"phase":"task","trial_type":"horizons-task","trial_index":72,"time_elapsed":974465,"internal_node_id":"0.0-68.0","task_version":"0.2"},{"response_times":[621.4649999747053,363.9299999922514,569.019999995362,644.9550000252202,461.99500001966953],"keys_pressed":["rightarrow","rightarrow","leftarrow","leftarrow","rightarrow"],"horizon":5,"forced_choices":["rightarrow","rightarrow","leftarrow","leftarrow"],"right_color":"orange","left_color":"lightblue","left_mu":60,"right_mu":48,"left_numbers":[64,70,50,67,65],"right_numbers":[35,62,47,40,49],"points_earned":263,"phase":"task","trial_type":"horizons-task","trial_index":73,"time_elapsed":978629,"internal_node_id":"0.0-69.0","task_version":"0.2"},{"response_times":[718.204999982845,506.1100000166334,436.91500002751127,582.8699999838136,1168.3199999970384,536.6550000035204,472.9700000025332,525.0249999808148,164.94999994756654,205.99499996751547],"keys_pressed":["leftarrow","rightarrow","rightarrow","leftarrow","rightarrow","rightarrow","rightarrow","rightarrow","rightarrow","rightarrow"],"horizon":10,"forced_choices":["leftarrow","rightarrow","rightarrow","leftarrow"],"right_color":"orange","left_color":"lightblue","left_mu":40,"right_mu":48,"left_numbers":[33,30,38,22,42,45,39,43,41,34],"right_numbers":[45,46,35,43,37,50,49,61,51,54],"points_earned":438,"phase":"task","trial_type":"horizons-task","trial_index":74,"time_elapsed":985449,"internal_node_id":"0.0-70.0","task_version":"0.2"},{"response_times":[440.6500000040978,408.9149999781512,539.0050000278279,667.9499999736436,1340.0100000435486],"keys_pressed":["leftarrow","rightarrow","rightarrow","rightarrow","rightarrow"],"horizon":5,"forced_choices":["leftarrow","rightarrow","rightarrow","rightarrow"],"right_color":"orange","left_color":"lightblue","left_mu":60,"right_mu":52,"left_numbers":[51,52,49,56,67],"right_numbers":[58,56,46,50,50],"points_earned":253,"phase":"task","trial_type":"horizons-task","trial_index":75,"time_elapsed":990348,"internal_node_id":"0.0-71.0","task_version":"0.2"},{"response_times":[655.2849999861792,404.7499999869615,515.9550000098534,438.9849999570288,222.00499998871237],"keys_pressed":["leftarrow","rightarrow","rightarrow","leftarrow","leftarrow"],"horizon":5,"forced_choices":["leftarrow","rightarrow","rightarrow","leftarrow"],"right_color":"lightblue","left_color":"orange","left_mu":40,"right_mu":20,"left_numbers":[45,58,31,45,42],"right_numbers":[18,28,34,23,23],"points_earned":194,"phase":"task","trial_type":"horizons-task","trial_index":76,"time_elapsed":994088,"internal_node_id":"0.0-72.0","task_version":"0.2"},{"response_times":[568.7550000147894,424.93999999715015,533.9650000096299,782.9800000181422,548.9950000192039,354.93999999016523,184.97000000206754,143.175000033807,129.80999995488673,136.97499997215346],"keys_pressed":["rightarrow","rightarrow","leftarrow","rightarrow","leftarrow","leftarrow","leftarrow","leftarrow","leftarrow","leftarrow"],"horizon":10,"forced_choices":["rightarrow","rightarrow","leftarrow","rightarrow"],"right_color":"lightblue","left_color":"orange","left_mu":60,"right_mu":40,"left_numbers":[49,63,63,62,63,57,51,40,59,54],"right_numbers":[44,34,34,34,44,44,37,37,41,45],"points_earned":499,"phase":"task","trial_type":"horizons-task","trial_index":77,"time_elapsed":999399,"internal_node_id":"0.0-73.0","task_version":"0.2"},{"response_times":[465.7050000387244,433.9599999948405,502.9750000103377,379.24000003840774,545.6899999990128],"keys_pressed":["rightarrow","rightarrow","rightarrow","leftarrow","rightarrow"],"horizon":5,"forced_choices":["rightarrow","rightarrow","rightarrow","leftarrow"],"right_color":"lightblue","left_color":"orange","left_mu":60,"right_mu":56,"left_numbers":[65,63,58,46,57],"right_numbers":[61,49,48,52,56],"points_earned":260,"phase":"task","trial_type":"horizons-task","trial_index":78,"time_elapsed":1003230,"internal_node_id":"0.0-74.0","task_version":"0.2"},{"response_times":[385.3300000191666,347.94999996665865,434.97499998193234,486.97999998694286,403.98499998264015],"keys_pressed":["rightarrow","leftarrow","leftarrow","leftarrow","leftarrow"],"horizon":5,"forced_choices":["rightarrow","leftarrow","leftarrow","leftarrow"],"right_color":"orange","left_color":"lightblue","left_mu":40,"right_mu":10,"left_numbers":[40,24,47,40,35],"right_numbers":[10,3,26,0,13],"points_earned":156,"phase":"task","trial_type":"horizons-task","trial_index":79,"time_elapsed":1006792,"internal_node_id":"0.0-75.0","task_version":"0.2"},{"response_times":[454.1650000028312,398.9750000182539,572.9400000418536,603.0500000342727,885.999999998603,525.9700000169687,608.9600000414066,358.1349999876693,68.76499997451901,378.0750000150874],"keys_pressed":["leftarrow","rightarrow","leftarrow","rightarrow","rightarrow","leftarrow","rightarrow","leftarrow","rightarrow","rightarrow"],"horizon":10,"forced_choices":["leftarrow","rightarrow","leftarrow","rightarrow"],"right_color":"lightblue","left_color":"orange","left_mu":60,"right_mu":68,"left_numbers":[60,49,62,62,64,59,64,59,65,47],"right_numbers":[66,60,69,63,60,73,66,62,66,86],"points_earned":641,"phase":"task","trial_type":"horizons-task","trial_index":80,"time_elapsed":1013150,"internal_node_id":"0.0-76.0","task_version":"0.2"},{"response_times":[605.3900000406429,340.97500005736947,527.0100000197999,381.95499998982996,293.92500000540167],"keys_pressed":["rightarrow","leftarrow","leftarrow","rightarrow","rightarrow"],"horizon":5,"forced_choices":["rightarrow","leftarrow","leftarrow","rightarrow"],"right_color":"lightblue","left_color":"orange","left_mu":40,"right_mu":70,"left_numbers":[49,35,48,44,36],"right_numbers":[70,68,61,61,72],"points_earned":286,"phase":"task","trial_type":"horizons-task","trial_index":81,"time_elapsed":1016802,"internal_node_id":"0.0-77.0","task_version":"0.2"},{"response_times":[355.8099999791011,879.9799999687821,553.0799999833107,646.8950000125915,1158.980000007432,541.9649999821559,406.139999977313,162.79000003123656,155.994999979157,131.96500000776723],"keys_pressed":["rightarrow","rightarrow","leftarrow","rightarrow","leftarrow","leftarrow","leftarrow","leftarrow","leftarrow","leftarrow"],"horizon":10,"forced_choices":["rightarrow","rightarrow","leftarrow","rightarrow"],"right_color":"lightblue","left_color":"orange","left_mu":40,"right_mu":20,"left_numbers":[37,34,44,21,46,43,39,46,41,43],"right_numbers":[1,28,11,32,24,24,8,6,18,27],"points_earned":363,"phase":"task","trial_type":"horizons-task","trial_index":82,"time_elapsed":1023298,"internal_node_id":"0.0-78.0","task_version":"0.2"},{"response_times":[444.17000003159046,379.9499999731779,614.9750000331551,399.9700000276789,342.960000038147],"keys_pressed":["leftarrow","rightarrow","leftarrow","rightarrow","rightarrow"],"horizon":5,"forced_choices":["leftarrow","rightarrow","leftarrow","rightarrow"],"right_color":"orange","left_color":"lightblue","left_mu":40,"right_mu":52,"left_numbers":[41,36,36,40,31],"right_numbers":[42,53,49,58,40],"points_earned":228,"phase":"task","trial_type":"horizons-task","trial_index":83,"time_elapsed":1026983,"internal_node_id":"0.0-79.0","task_version":"0.2"},{"response_times":[515.6900000292808,391.96999999694526,351.9800000358373,629.0049999952316,1055.0099999527447,779.949999996461,412.00000001117587,181.92000000271946,165.12999997939914,149.82499997131526],"keys_pressed":["leftarrow","leftarrow","rightarrow","leftarrow","rightarrow","rightarrow","leftarrow","leftarrow","leftarrow","leftarrow"],"horizon":10,"forced_choices":["leftarrow","leftarrow","rightarrow","leftarrow"],"right_color":"orange","left_color":"lightblue","left_mu":40,"right_mu":36,"left_numbers":[38,49,44,30,47,33,27,37,46,51],"right_numbers":[27,22,41,44,48,28,34,40,31,30],"points_earned":395,"phase":"task","trial_type":"horizons-task","trial_index":84,"time_elapsed":1033118,"internal_node_id":"0.0-80.0","task_version":"0.2"},{"response_times":[452.23499997518957,348.99999998742715,478.92999998293817,623.0900000082329,976.9000000087544,519.0249999868684,180.9099999954924,148.0349999619648,148.9300000248477,155.00500000780448],"keys_pressed":["leftarrow","rightarrow","leftarrow","leftarrow","rightarrow","leftarrow","leftarrow","leftarrow","leftarrow","leftarrow"],"horizon":10,"forced_choices":["leftarrow","rightarrow","leftarrow","leftarrow"],"right_color":"orange","left_color":"lightblue","left_mu":40,"right_mu":28,"left_numbers":[50,50,39,40,35,23,37,44,23,36],"right_numbers":[35,32,27,29,20,25,15,29,37,22],"points_earned":344,"phase":"task","trial_type":"horizons-task","trial_index":85,"time_elapsed":1038652,"internal_node_id":"0.0-81.0","task_version":"0.2"},{"response_times":[369.88499999279156,362.9899999941699,456.9999999948777,546.9600000069477,324.945000000298],"keys_pressed":["rightarrow","leftarrow","leftarrow","rightarrow","leftarrow"],"horizon":5,"forced_choices":["rightarrow","leftarrow","leftarrow","rightarrow"],"right_color":"orange","left_color":"lightblue","left_mu":40,"right_mu":28,"left_numbers":[40,34,51,54,45],"right_numbers":[19,26,26,10,37],"points_earned":159,"phase":"task","trial_type":"horizons-task","trial_index":86,"time_elapsed":1042216,"internal_node_id":"0.0-82.0","task_version":"0.2"},{"response_times":[504.11999999778345,371.80500000249594,420.9899999550544,756.9950000033714,626.1500000255182],"keys_pressed":["leftarrow","rightarrow","rightarrow","rightarrow","leftarrow"],"horizon":5,"forced_choices":["leftarrow","rightarrow","rightarrow","rightarrow"],"right_color":"lightblue","left_color":"orange","left_mu":40,"right_mu":32,"left_numbers":[36,42,42,39,38],"right_numbers":[22,20,31,27,27],"points_earned":152,"phase":"task","trial_type":"horizons-task","trial_index":87,"time_elapsed":1046399,"internal_node_id":"0.0-83.0","task_version":"0.2"},{"response_times":[461.93499997025356,526.9400000106543,573.9449999528006,590.9899999969639,977.0249999710359,527.8999999864027,450.00000001164153,226.97000001790002,229.98499998357147,389.02000000234693],"keys_pressed":["leftarrow","leftarrow","leftarrow","rightarrow","rightarrow","rightarrow","rightarrow","rightarrow","rightarrow","rightarrow"],"horizon":10,"forced_choices":["leftarrow","leftarrow","leftarrow","rightarrow"],"right_color":"orange","left_color":"lightblue","left_mu":40,"right_mu":48,"left_numbers":[30,40,43,55,39,42,30,33,34,48],"right_numbers":[49,63,43,32,54,49,47,46,55,49],"points_earned":445,"phase":"task","trial_type":"horizons-task","trial_index":88,"time_elapsed":1052856,"internal_node_id":"0.0-84.0","task_version":"0.2"},{"response_times":[723.3250000281259,423.01500000758097,574.930000002496,563.9649999793619,335.95499995863065],"keys_pressed":["leftarrow","rightarrow","rightarrow","leftarrow","leftarrow"],"horizon":5,"forced_choices":["leftarrow","rightarrow","rightarrow","leftarrow"],"right_color":"orange","left_color":"lightblue","left_mu":40,"right_mu":10,"left_numbers":[28,39,36,33,29],"right_numbers":[19,0,3,4,5],"points_earned":93,"phase":"task","trial_type":"horizons-task","trial_index":89,"time_elapsed":1056980,"internal_node_id":"0.0-85.0","task_version":"0.2"},{"response_times":[577.3049999843352,412.94999996898696,427.9699999606237,416.97999997995794,922.0850000274368,524.9900000053458,462.9399999976158,228.03499997826293,205.85999998729676,186.02999998256564],"keys_pressed":["rightarrow","rightarrow","leftarrow","leftarrow","leftarrow","leftarrow","leftarrow","leftarrow","leftarrow","leftarrow"],"horizon":10,"forced_choices":["rightarrow","rightarrow","leftarrow","leftarrow"],"right_color":"orange","left_color":"lightblue","left_mu":60,"right_mu":48,"left_numbers":[65,59,48,68,61,71,60,68,40,69],"right_numbers":[30,64,32,38,59,41,48,41,48,50],"points_earned":579,"phase":"task","trial_type":"horizons-task","trial_index":90,"time_elapsed":1062848,"internal_node_id":"0.0-86.0","task_version":"0.2"},{"response_times":[459.340000001248,380.8899999712594,589.864999987185,699.0200000000186,1103.0449999962002],"keys_pressed":["leftarrow","rightarrow","leftarrow","rightarrow","leftarrow"],"horizon":5,"forced_choices":["leftarrow","rightarrow","leftarrow","rightarrow"],"right_color":"orange","left_color":"lightblue","left_mu":40,"right_mu":36,"left_numbers":[44,40,45,58,39],"right_numbers":[37,27,34,48,29],"points_earned":203,"phase":"task","trial_type":"horizons-task","trial_index":91,"time_elapsed":1067583,"internal_node_id":"0.0-87.0","task_version":"0.2"},{"rt":13428.889999981038,"responses":{"age":"30","gender-categorical":"Male","gender-free-response":"","ethnicity":"Not Hispanic or Latino","race":["Asian"],"language":"Yes","fluency":"Very well"},"survey":"demographics","trial_type":"survey-demo","trial_index":92,"time_elapsed":1081014,"internal_node_id":"0.0-88.0","task_version":"0.2"},{"rt":16823.63500003703,"responses":{"difficulty":"4","fun":"4","clarity":"5","strategy":"No","feedback":"No"},"survey":"debrief","trial_type":"survey-debrief","trial_index":93,"time_elapsed":1097840,"internal_node_id":"0.0-89.0","task_version":"0.2","interactions":"[{\"event\":\"blur\",\"trial\":2,\"time\":62833},{\"event\":\"focus\",\"trial\":2,\"time\":136548},{\"event\":\"blur\",\"trial\":3,\"time\":194031},{\"event\":\"focus\",\"trial\":3,\"time\":266855},{\"event\":\"blur\",\"trial\":3,\"time\":271466},{\"event\":\"focus\",\"trial\":3,\"time\":272942},{\"event\":\"blur\",\"trial\":4,\"time\":314441},{\"event\":\"focus\",\"trial\":4,\"time\":413104},{\"event\":\"blur\",\"trial\":51,\"time\":768011},{\"event\":\"focus\",\"trial\":51,\"time\":769866},{\"event\":\"blur\",\"trial\":51,\"time\":770620},{\"event\":\"focus\",\"trial\":51,\"time\":869586}]"}]