[{"view_history":"[{\"page_index\":0,\"viewing_time\":3609.9900000117486}]","rt":3611.81500001112,"trial_type":"instructions","trial_index":0,"time_elapsed":3637,"internal_node_id":"0.0-0.0","task_version":"0.2"},{"item_order":[5,7,6,8,1,0,12,2,4,3,11,9,10],"responses":{"Q06":"0","Q08":"3","Q07":"0","Q09":"3","Q02":"4","Q01":"1","Q13":"4","Q03":"0","Q05":"1","Q04":"3","Q12":"0","Q10":"0","Q11":"3"},"radio_events":[8738.779999999679,11849.179999990156,14720.059999992372,16836.98499998718,20278.94999999262,22268.654999992577,25315.539999995963,29488.059999988764,33821.66999999026,37565.21499999508,40153.37999998883,42521.18499999051,45553.3349999896,47783.10999998939],"key_events":[],"mouse_events":[0.40499999886378646,4282.094999987748,6360.625000001164,7622.814999995171,8738.779999999679,11849.179999990156,14720.059999992372,16836.98499998718,20278.94999999262,22268.654999992577,25315.539999995963,29488.059999988764,33821.66999999026,37565.21499999508,40153.37999998883,42521.18499999051,45553.3349999896,47783.10999998939,48768.9199999877],"rt":48774.379999988014,"survey":"ius12","trial_type":"survey-template","trial_index":1,"time_elapsed":52423,"internal_node_id":"0.0-1.0","task_version":"0.2"},{"item_order":[4,16,2,13,5,12,14,15,10,0,6,8,7,11,9,3,1],"responses":{"Q05":"0","Q17":"0","Q03":"0","Q14":"0","Q06":"1","Q13":"0","Q15":"0","Q16":"1","Q11":"2","Q01":"3","Q07":"0","Q09":"0","Q08":"1","Q12":"0","Q10":"2","Q04":"0","Q02":"0"},"radio_events":[3481.65999999037,5450.219999998808,7835.859999991953,9948.134999998729,11878.584999998566,13812.384999997448,14860.554999992019,17648.319999992964,24731.984999991255,30726.15999999107,32677.419999992708,35253.79000000248,38712.9350000032,41307.45500000194,45374.59999999555,47683.95999999484,48917.124999992666],"key_events":[],"mouse_events":[3481.65999999037,5450.219999998808,7835.859999991953,9948.134999998729,11878.584999998566,13812.384999997448,14860.554999992019,17648.319999992964,24731.984999991255,30726.15999999107,32677.419999992708,35253.79000000248,38712.9350000032,41307.45500000194,45374.59999999555,47683.95999999484,48917.124999992666,50134.14500000363],"rt":50141.61999999487,"survey":"pswq","trial_type":"survey-template","trial_index":2,"time_elapsed":102574,"internal_node_id":"0.0-2.0","task_version":"0.2"},{"item_order":[7,9,10,6,3,0,4,5,11,12,14,8,13,1,2,15],"responses":{"Q08":"3","Q10":"5","Q11":"4","Q07":"4","Q04":"1","Q01":"3","Q05":"1","Q06":"4","Q12":"1","Q13":"1","Q15":"4","Q09":"3","Q14":"0","Q02":"2","Q03":"1","Q16":"5"},"radio_events":[6828.719999990426,11194.459999998799,13732.399999993504,18637.000000002445,24089.87499999057,26953.750000000582,31390.91999999073,35914.22999999486,39474.70500000054,41102.444999996806,43516.52999999351,47620.839999988675,50867.224999994505,55522.64499999001,58315.01999999455,61705.61499999894],"key_events":[],"mouse_events":[6828.719999990426,11194.459999998799,13732.399999993504,18637.000000002445,24089.87499999057,26953.750000000582,31390.91999999073,35914.22999999486,39474.70500000054,41102.444999996806,43516.52999999351,47620.839999988675,50867.224999994505,55522.64499999001,58315.01999999455,61705.61499999894,63069.60000000254],"rt":63079.75999999326,"survey":"nfc","trial_type":"survey-template","trial_index":3,"time_elapsed":165668,"internal_node_id":"0.0-3.0","task_version":"0.2"},{"view_history":"[{\"page_index\":0,\"viewing_time\":5232.81999999017},{\"page_index\":1,\"viewing_time\":5102.230000004056},{\"page_index\":2,\"viewing_time\":9646.404999992228},{\"page_index\":3,\"viewing_time\":23658.49000000162},{\"page_index\":4,\"viewing_time\":11193.025000000489},{\"page_index\":5,\"viewing_time\":23256.35000001057},{\"page_index\":6,\"viewing_time\":5162.1999999915715},{\"page_index\":7,\"viewing_time\":8743.205000006128},{\"page_index\":8,\"viewing_time\":16227.524999994785},{\"page_index\":9,\"viewing_time\":9264.884999996866}]","rt":117487.72999999346,"trial_type":"instructions","trial_index":4,"time_elapsed":283162,"internal_node_id":"0.0-4.0-0.0","task_version":"0.2"},{"response_times":[1769.3600000056904,1113.3200000040233,940.2100000006612,1246.1750000074971,3474.9249999877065],"keys_pressed":["rightarrow","leftarrow","rightarrow","rightarrow","leftarrow"],"horizon":5,"forced_choices":["rightarrow","leftarrow","rightarrow","rightarrow"],"right_color":"lightblue","left_color":"orange","left_mu":40,"right_mu":20,"left_numbers":[38,57,41,51,29],"right_numbers":[25,13,11,23,16],"points_earned":145,"phase":"practice","trial_type":"horizons-task","trial_index":5,"time_elapsed":293235,"internal_node_id":"0.0-4.0-1.0","task_version":"0.2"},{"response_times":[1046.780000004219,1381.9899999944028,792.2400000097696,816.080000004149,5538.394999995944,2613.339999996242,1829.8500000091735,926.3249999930849,934.4500000006519,950.7599999924423],"keys_pressed":["leftarrow","leftarrow","rightarrow","rightarrow","rightarrow","leftarrow","rightarrow","rightarrow","rightarrow","rightarrow"],"horizon":10,"forced_choices":["leftarrow","leftarrow","rightarrow","rightarrow"],"right_color":"orange","left_color":"lightblue","left_mu":60,"right_mu":70,"left_numbers":[63,71,66,59,64,69,55,42,46,60],"right_numbers":[71,65,71,77,69,52,67,73,77,57],"points_earned":694,"phase":"practice","trial_type":"horizons-task","trial_index":6,"time_elapsed":311573,"internal_node_id":"0.0-4.0-2.0","task_version":"0.2"},{"view_history":"[{\"page_index\":0,\"viewing_time\":2460.884999993141},{\"page_index\":1,\"viewing_time\":3671.7200000130106},{\"page_index\":2,\"viewing_time\":4058.209999988321},{\"page_index\":3,\"viewing_time\":3673.3950000052573}]","rt":13864.774999994552,"trial_type":"instructions","trial_index":7,"time_elapsed":325439,"internal_node_id":"0.0-4.0-3.0","task_version":"0.2"},{"responses":["true","false","true"],"num_errors":0,"rt":10689.8199999996,"trial_type":"horizons-comprehension","trial_index":8,"time_elapsed":336134,"internal_node_id":"0.0-4.0-4.0","task_version":"0.2"},{"trial_type":"call-function","trial_index":9,"time_elapsed":336141,"internal_node_id":"0.0-5.0","task_version":"0.2"},{"view_history":"[{\"page_index\":0,\"viewing_time\":2151.4449999958742},{\"page_index\":1,\"viewing_time\":5568.155000000843}]","rt":7720.170000000508,"trial_type":"instructions","trial_index":10,"time_elapsed":343862,"internal_node_id":"0.0-6.0","task_version":"0.2"},{"response_times":[1429.9800000007963,2443.2899999956135,1921.6850000084378,1820.9350000106497,6869.72999999125,2631.5449999965494,1251.5000000130385,1917.1750000095926,1296.9799999991665,1135.695000004489],"keys_pressed":["rightarrow","rightarrow","rightarrow","leftarrow","rightarrow","rightarrow","rightarrow","rightarrow","rightarrow","rightarrow"],"horizon":10,"forced_choices":["rightarrow","rightarrow","rightarrow","leftarrow"],"right_color":"lightblue","left_color":"orange","left_mu":60,"right_mu":68,"left_numbers":[49,55,59,56,66,72,60,66,51,52],"right_numbers":[77,67,77,79,66,63,59,54,58,72],"points_earned":649,"phase":"task","trial_type":"horizons-task","trial_index":11,"time_elapsed":368095,"internal_node_id":"0.0-7.0","task_version":"0.2"},{"response_times":[802.270000000135,849.1799999901559,822.070000009262,1473.505000001751,2452.0600000105333,2552.7250000013737,717.1399999933783,686.0500000038883,657.3050000006333,620.8199999964563],"keys_pressed":["rightarrow","leftarrow","rightarrow","rightarrow","leftarrow","rightarrow","leftarrow","leftarrow","leftarrow","leftarrow"],"horizon":10,"forced_choices":["rightarrow","leftarrow","rightarrow","rightarrow"],"right_color":"orange","left_color":"lightblue","left_mu":40,"right_mu":28,"left_numbers":[43,42,42,24,36,45,40,49,31,33],"right_numbers":[23,31,31,38,15,35,28,30,21,36],"points_earned":358,"phase":"task","trial_type":"horizons-task","trial_index":12,"time_elapsed":381238,"internal_node_id":"0.0-8.0","task_version":"0.2"},{"response_times":[804.4149999914225,615.7950000051642,690.0849999947241,770.5100000021048,892.6749999955064,712.7049999980954,823.1599999999162,699.8800000001211,676.1850000038976,624.0649999963352],"keys_pressed":["leftarrow","rightarrow","rightarrow","rightarrow","leftarrow","leftarrow","leftarrow","leftarrow","leftarrow","leftarrow"],"horizon":10,"forced_choices":["leftarrow","rightarrow","rightarrow","rightarrow"],"right_color":"orange","left_color":"lightblue","left_mu":40,"right_mu":36,"left_numbers":[50,31,52,36,39,28,59,40,45,44],"right_numbers":[43,30,38,45,41,45,27,42,34,38],"points_earned":418,"phase":"task","trial_type":"horizons-task","trial_index":13,"time_elapsed":390056,"internal_node_id":"0.0-9.0","task_version":"0.2"},{"response_times":[678.3950000099139,719.0100000007078,2942.079999993439,698.4950000041863,4699.860000007902,718.3349999977509,780.8599999989383,722.9949999891687,765.7250000047497,655.2749999973457],"keys_pressed":["rightarrow","rightarrow","leftarrow","leftarrow","leftarrow","leftarrow","leftarrow","leftarrow","leftarrow","leftarrow"],"horizon":10,"forced_choices":["rightarrow","rightarrow","leftarrow","leftarrow"],"right_color":"lightblue","left_color":"orange","left_mu":60,"right_mu":56,"left_numbers":[38,58,67,58,53,55,57,61,58,49],"right_numbers":[45,59,53,59,53,44,49,44,44,58],"points_earned":562,"phase":"task","trial_type":"horizons-task","trial_index":14,"time_elapsed":404944,"internal_node_id":"0.0-10.0","task_version":"0.2"},{"response_times":[901.5700000018114,733.2650000025751,794.979999991483,898.3699999953387,1774.6899999910966],"keys_pressed":["leftarrow","rightarrow","rightarrow","rightarrow","rightarrow"],"horizon":5,"forced_choices":["leftarrow","rightarrow","rightarrow","rightarrow"],"right_color":"orange","left_color":"lightblue","left_mu":40,"right_mu":36,"left_numbers":[26,50,48,42,47],"right_numbers":[40,45,34,25,33],"points_earned":163,"phase":"task","trial_type":"horizons-task","trial_index":15,"time_elapsed":411566,"internal_node_id":"0.0-11.0","task_version":"0.2"},{"response_times":[664.8049999930663,795.479999986128,1140.7800000015413,853.5350000020117,2167.1900000073947,635.2800000022398,519.5850000018254,538.459999996121,603.4050000016578,637.9949999973178],"keys_pressed":["rightarrow","leftarrow","leftarrow","rightarrow","rightarrow","rightarrow","leftarrow","leftarrow","leftarrow","leftarrow"],"horizon":10,"forced_choices":["rightarrow","leftarrow","leftarrow","rightarrow"],"right_color":"orange","left_color":"lightblue","left_mu":40,"right_mu":28,"left_numbers":[27,39,52,39,42,41,37,32,45,40],"right_numbers":[31,37,27,39,28,21,34,20,26,33],"points_earned":364,"phase":"task","trial_type":"horizons-task","trial_index":16,"time_elapsed":421631,"internal_node_id":"0.0-12.0","task_version":"0.2"},{"response_times":[528.1300000060583,702.0550000015646,607.0399999880465,617.164999988745,1575.249999994412,523.879999993369,543.7650000094436,561.3650000013877,556.6499999986263,584.1800000052899],"keys_pressed":["leftarrow","rightarrow","leftarrow","rightarrow","rightarrow","rightarrow","rightarrow","rightarrow","rightarrow","rightarrow"],"horizon":10,"forced_choices":["leftarrow","rightarrow","leftarrow","rightarrow"],"right_color":"lightblue","left_color":"orange","left_mu":60,"right_mu":72,"left_numbers":[62,62,55,62,65,66,58,48,57,66],"right_numbers":[73,79,71,60,67,78,65,84,54,73],"points_earned":677,"phase":"task","trial_type":"horizons-task","trial_index":17,"time_elapsed":429944,"internal_node_id":"0.0-13.0","task_version":"0.2"},{"response_times":[650.5350000079488,533.4949999960372,803.9699999935692,1092.3949999996694,1379.4249999918975],"keys_pressed":["rightarrow","rightarrow","leftarrow","rightarrow","leftarrow"],"horizon":5,"forced_choices":["rightarrow","rightarrow","leftarrow","rightarrow"],"right_color":"lightblue","left_color":"orange","left_mu":60,"right_mu":30,"left_numbers":[50,66,57,42,69],"right_numbers":[44,29,39,32,40],"points_earned":231,"phase":"task","trial_type":"horizons-task","trial_index":18,"time_elapsed":435913,"internal_node_id":"0.0-14.0","task_version":"0.2"},{"response_times":[606.8450000020675,561.969999995199,595.9350000048289,722.025000010035,3726.7100000026403,656.8399999960093,589.9400000052992,586.7999999900348,600.044999999227,576.5150000079302],"keys_pressed":["leftarrow","rightarrow","leftarrow","rightarrow","leftarrow","leftarrow","leftarrow","leftarrow","leftarrow","leftarrow"],"horizon":10,"forced_choices":["leftarrow","rightarrow","leftarrow","rightarrow"],"right_color":"lightblue","left_color":"orange","left_mu":40,"right_mu":32,"left_numbers":[38,51,24,38,49,40,35,35,43,32],"right_numbers":[31,43,17,21,31,30,31,38,28,18],"points_earned":360,"phase":"task","trial_type":"horizons-task","trial_index":19,"time_elapsed":446656,"internal_node_id":"0.0-15.0","task_version":"0.2"},{"response_times":[561.4000000059605,595.0550000125077,641.1649999936344,947.599999999511,4644.560000000638],"keys_pressed":["leftarrow","rightarrow","leftarrow","leftarrow","leftarrow"],"horizon":5,"forced_choices":["leftarrow","rightarrow","leftarrow","leftarrow"],"right_color":"lightblue","left_color":"orange","left_mu":60,"right_mu":56,"left_numbers":[49,70,55,73,65],"right_numbers":[50,54,64,54,58],"points_earned":296,"phase":"task","trial_type":"horizons-task","trial_index":20,"time_elapsed":455554,"internal_node_id":"0.0-16.0","task_version":"0.2"},{"response_times":[594.9699999910081,618.4050000010757,598.0500000005122,1011.3899999996647,1824.3649999931222],"keys_pressed":["rightarrow","leftarrow","rightarrow","rightarrow","leftarrow"],"horizon":5,"forced_choices":["rightarrow","leftarrow","rightarrow","rightarrow"],"right_color":"orange","left_color":"lightblue","left_mu":40,"right_mu":28,"left_numbers":[28,36,22,36,52],"right_numbers":[20,4,31,24,49],"points_earned":163,"phase":"task","trial_type":"horizons-task","trial_index":21,"time_elapsed":461705,"internal_node_id":"0.0-17.0","task_version":"0.2"},{"response_times":[773.2800000085263,688.8199999957578,687.4649999954272,642.359999998007,2011.1349999933736,562.6500000071246,498.95000000833534,511.1800000013318,550.2899999992223,537.1099999902071],"keys_pressed":["leftarrow","rightarrow","leftarrow","rightarrow","rightarrow","rightarrow","rightarrow","rightarrow","rightarrow","rightarrow"],"horizon":10,"forced_choices":["leftarrow","rightarrow","leftarrow","rightarrow"],"right_color":"orange","left_color":"lightblue","left_mu":60,"right_mu":80,"left_numbers":[52,52,69,72,55,55,70,76,49,70],"right_numbers":[87,82,78,89,88,76,93,73,84,85],"points_earned":791,"phase":"task","trial_type":"horizons-task","trial_index":22,"time_elapsed":470672,"internal_node_id":"0.0-18.0","task_version":"0.2"},{"response_times":[631.3799999916228,555.819999994128,727.0900000003166,774.2949999956181,721.5900000010151],"keys_pressed":["leftarrow","rightarrow","rightarrow","leftarrow","rightarrow"],"horizon":5,"forced_choices":["leftarrow","rightarrow","rightarrow","leftarrow"],"right_color":"orange","left_color":"lightblue","left_mu":60,"right_mu":90,"left_numbers":[71,77,60,53,56],"right_numbers":[90,98,93,80,87],"points_earned":402,"phase":"task","trial_type":"horizons-task","trial_index":23,"time_elapsed":475589,"internal_node_id":"0.0-19.0","task_version":"0.2"},{"response_times":[707.7600000047823,689.9449999909848,707.2299999999814,759.7300000052201,1339.1799999953946],"keys_pressed":["rightarrow","rightarrow","leftarrow","leftarrow","rightarrow"],"horizon":5,"forced_choices":["rightarrow","rightarrow","leftarrow","leftarrow"],"right_color":"lightblue","left_color":"orange","left_mu":60,"right_mu":56,"left_numbers":[70,58,50,58,42],"right_numbers":[60,62,48,73,56],"points_earned":286,"phase":"task","trial_type":"horizons-task","trial_index":24,"time_elapsed":481298,"internal_node_id":"0.0-20.0","task_version":"0.2"},{"response_times":[475.3049999999348,506.4799999963725,446.49000000208616,606.1899999913294,992.7150000003166],"keys_pressed":["rightarrow","leftarrow","rightarrow","leftarrow","rightarrow"],"horizon":5,"forced_choices":["rightarrow","leftarrow","rightarrow","leftarrow"],"right_color":"lightblue","left_color":"orange","left_mu":40,"right_mu":44,"left_numbers":[45,35,23,42,31],"right_numbers":[60,42,44,34,58],"points_earned":239,"phase":"task","trial_type":"horizons-task","trial_index":25,"time_elapsed":485836,"internal_node_id":"0.0-21.0","task_version":"0.2"},{"response_times":[424.77499999222346,451.43000000098255,714.6899999934249,675.9299999976065,1383.1150000041816],"keys_pressed":["rightarrow","leftarrow","leftarrow","leftarrow","rightarrow"],"horizon":5,"forced_choices":["rightarrow","leftarrow","leftarrow","leftarrow"],"right_color":"lightblue","left_color":"orange","left_mu":60,"right_mu":72,"left_numbers":[64,53,56,65,75],"right_numbers":[87,74,58,94,57],"points_earned":318,"phase":"task","trial_type":"horizons-task","trial_index":26,"time_elapsed":490990,"internal_node_id":"0.0-22.0","task_version":"0.2"},{"response_times":[551.9550000026356,530.0800000113668,599.2499999993015,572.4399999890011,1703.5350000078324],"keys_pressed":["rightarrow","rightarrow","leftarrow","rightarrow","rightarrow"],"horizon":5,"forced_choices":["rightarrow","rightarrow","leftarrow","rightarrow"],"right_color":"lightblue","left_color":"orange","left_mu":40,"right_mu":70,"left_numbers":[54,33,30,33,39],"right_numbers":[59,46,77,77,79],"points_earned":291,"phase":"task","trial_type":"horizons-task","trial_index":27,"time_elapsed":496456,"internal_node_id":"0.0-23.0","task_version":"0.2"},{"response_times":[599.36999999627,519.3200000067009,720.9849999926519,745.0349999999162,1759.0399999899091,1944.2549999948824,479.5449999946868,552.7549999969779,562.1499999979278,533.7199999921722],"keys_pressed":["rightarrow","leftarrow","leftarrow","leftarrow","leftarrow","leftarrow","leftarrow","leftarrow","leftarrow","leftarrow"],"horizon":10,"forced_choices":["rightarrow","leftarrow","leftarrow","leftarrow"],"right_color":"orange","left_color":"lightblue","left_mu":60,"right_mu":40,"left_numbers":[52,49,66,62,58,63,65,70,55,72],"right_numbers":[30,42,42,30,38,29,50,32,39,26],"points_earned":590,"phase":"task","trial_type":"horizons-task","trial_index":28,"time_elapsed":506383,"internal_node_id":"0.0-24.0","task_version":"0.2"},{"response_times":[537.914999993518,500.7400000031339,776.5099999960512,811.5300000063144,771.2649999884889],"keys_pressed":["leftarrow","rightarrow","rightarrow","rightarrow","rightarrow"],"horizon":5,"forced_choices":["leftarrow","rightarrow","rightarrow","rightarrow"],"right_color":"orange","left_color":"lightblue","left_mu":60,"right_mu":90,"left_numbers":[63,51,44,76,52],"right_numbers":[89,109,110,90,97],"points_earned":469,"phase":"task","trial_type":"horizons-task","trial_index":29,"time_elapsed":511290,"internal_node_id":"0.0-25.0","task_version":"0.2"},{"response_times":[707.4099999881582,658.899999994901,743.319999994128,651.1499999905936,2468.2000000029802,639.4299999956274,462.36999999382533,473.615000009886,528.2150000130059,509.4450000033248],"keys_pressed":["rightarrow","leftarrow","leftarrow","rightarrow","rightarrow","rightarrow","rightarrow","rightarrow","rightarrow","rightarrow"],"horizon":10,"forced_choices":["rightarrow","leftarrow","leftarrow","rightarrow"],"right_color":"lightblue","left_color":"orange","left_mu":60,"right_mu":68,"left_numbers":[33,72,40,64,63,61,57,46,66,75],"right_numbers":[68,50,71,60,69,65,66,70,68,65],"points_earned":643,"phase":"task","trial_type":"horizons-task","trial_index":30,"time_elapsed":520639,"internal_node_id":"0.0-26.0","task_version":"0.2"},{"response_times":[442.68999999621883,501.5399999974761,683.9900000049965,676.5050000103656,599.1400000057183],"keys_pressed":["rightarrow","rightarrow","leftarrow","rightarrow","leftarrow"],"horizon":5,"forced_choices":["rightarrow","rightarrow","leftarrow","rightarrow"],"right_color":"lightblue","left_color":"orange","left_mu":40,"right_mu":10,"left_numbers":[43,43,52,42,49],"right_numbers":[12,6,8,8,4],"points_earned":127,"phase":"task","trial_type":"horizons-task","trial_index":31,"time_elapsed":525048,"internal_node_id":"0.0-27.0","task_version":"0.2"},{"response_times":[595.0949999969453,1049.7299999988172,1206.5799999982119,815.8499999990454,1679.0599999949336,636.8150000052992,471.35000000707805,484.9700000049779,468.73999999661464,690.0949999981094],"keys_pressed":["rightarrow","leftarrow","rightarrow","rightarrow","rightarrow","rightarrow","rightarrow","rightarrow","rightarrow","rightarrow"],"horizon":10,"forced_choices":["rightarrow","leftarrow","rightarrow","rightarrow"],"right_color":"orange","left_color":"lightblue","left_mu":60,"right_mu":80,"left_numbers":[63,71,64,59,62,52,44,50,57,63],"right_numbers":[91,76,86,86,70,76,88,85,73,72],"points_earned":798,"phase":"task","trial_type":"horizons-task","trial_index":32,"time_elapsed":534659,"internal_node_id":"0.0-28.0","task_version":"0.2"},{"response_times":[426.4850000035949,609.1449999948964,546.6549999982817,686.1950000020443,1204.5599999983096],"keys_pressed":["rightarrow","rightarrow","leftarrow","leftarrow","leftarrow"],"horizon":5,"forced_choices":["rightarrow","rightarrow","leftarrow","leftarrow"],"right_color":"lightblue","left_color":"orange","left_mu":60,"right_mu":30,"left_numbers":[72,74,62,63,63],"right_numbers":[29,17,28,35,21],"points_earned":234,"phase":"task","trial_type":"horizons-task","trial_index":33,"time_elapsed":539640,"internal_node_id":"0.0-29.0","task_version":"0.2"},{"response_times":[599.9600000068313,696.2599999969825,610.7349999947473,598.0449999915436,1877.4849999899743,585.0349999964237,564.5850000000792,628.1199999939417,532.6149999891641,505.7949999900302],"keys_pressed":["leftarrow","leftarrow","rightarrow","leftarrow","leftarrow","leftarrow","leftarrow","leftarrow","leftarrow","leftarrow"],"horizon":10,"forced_choices":["leftarrow","leftarrow","rightarrow","leftarrow"],"right_color":"orange","left_color":"lightblue","left_mu":60,"right_mu":52,"left_numbers":[63,56,54,50,58,74,46,58,61,50],"right_numbers":[70,55,46,48,48,49,51,54,52,39],"points_earned":562,"phase":"task","trial_type":"horizons-task","trial_index":34,"time_elapsed":548344,"internal_node_id":"0.0-30.0","task_version":"0.2"},{"response_times":[417.6000000006752,538.8049999892246,543.9850000111619,818.9549999951851,566.0149999894202],"keys_pressed":["leftarrow","rightarrow","leftarrow","leftarrow","rightarrow"],"horizon":5,"forced_choices":["leftarrow","rightarrow","leftarrow","leftarrow"],"right_color":"lightblue","left_color":"orange","left_mu":40,"right_mu":60,"left_numbers":[45,35,30,36,32],"right_numbers":[65,65,54,65,74],"points_earned":250,"phase":"task","trial_type":"horizons-task","trial_index":35,"time_elapsed":552740,"internal_node_id":"0.0-31.0","task_version":"0.2"},{"response_times":[556.0100000002421,429.0000000037253,626.9500000053085,796.0950000124285,1510.4450000071665,540.0850000005448,609.295000002021,575.3350000013597,561.4550000027521,617.3100000014529],"keys_pressed":["leftarrow","rightarrow","leftarrow","leftarrow","leftarrow","leftarrow","leftarrow","leftarrow","leftarrow","leftarrow"],"horizon":10,"forced_choices":["leftarrow","rightarrow","leftarrow","leftarrow"],"right_color":"lightblue","left_color":"orange","left_mu":60,"right_mu":56,"left_numbers":[70,53,72,72,69,48,60,78,52,50],"right_numbers":[49,62,51,63,56,53,68,56,54,65],"points_earned":633,"phase":"task","trial_type":"horizons-task","trial_index":36,"time_elapsed":561073,"internal_node_id":"0.0-32.0","task_version":"0.2"},{"response_times":[618.0400000012014,528.6699999996927,517.7350000012666,512.6350000064122,1224.9400000000605],"keys_pressed":["leftarrow","rightarrow","leftarrow","rightarrow","rightarrow"],"horizon":5,"forced_choices":["leftarrow","rightarrow","leftarrow","rightarrow"],"right_color":"orange","left_color":"lightblue","left_mu":60,"right_mu":80,"left_numbers":[58,62,64,63,52],"right_numbers":[81,86,95,82,80],"points_earned":370,"phase":"task","trial_type":"horizons-task","trial_index":37,"time_elapsed":565982,"internal_node_id":"0.0-33.0","task_version":"0.2"},{"response_times":[645.7550000050105,512.510000000475,524.714999992284,543.390000006184,1970.6200000073295,487.7850000048056,521.5250000037486,507.93000000703614,505.8900000003632,474.19999999692664],"keys_pressed":["rightarrow","leftarrow","rightarrow","leftarrow","leftarrow","leftarrow","leftarrow","leftarrow","leftarrow","leftarrow"],"horizon":10,"forced_choices":["rightarrow","leftarrow","rightarrow","leftarrow"],"right_color":"orange","left_color":"lightblue","left_mu":40,"right_mu":20,"left_numbers":[36,36,42,45,44,36,42,44,45,30],"right_numbers":[9,21,18,28,22,30,19,21,15,14],"points_earned":349,"phase":"task","trial_type":"horizons-task","trial_index":38,"time_elapsed":574187,"internal_node_id":"0.0-34.0","task_version":"0.2"},{"response_times":[582.299999994575,597.8949999989709,1530.5850000004284,590.6250000116415,1321.844999998575,676.0700000013458,551.2000000016997,582.8400000027614,498.54999998933636,498.17999999504536],"keys_pressed":["rightarrow","leftarrow","leftarrow","rightarrow","leftarrow","leftarrow","leftarrow","leftarrow","leftarrow","leftarrow"],"horizon":10,"forced_choices":["rightarrow","leftarrow","leftarrow","rightarrow"],"right_color":"orange","left_color":"lightblue","left_mu":40,"right_mu":36,"left_numbers":[51,38,37,43,49,32,26,37,47,37],"right_numbers":[32,32,46,33,52,39,28,47,43,21],"points_earned":368,"phase":"task","trial_type":"horizons-task","trial_index":39,"time_elapsed":583127,"internal_node_id":"0.0-35.0","task_version":"0.2"},{"response_times":[442.0700000046054,418.2600000058301,584.9849999940488,504.67500000377186,1899.8299999948358,480.60999999870546,460.3300000017043,451.71000000846107,488.3000000118045,475.94499999831896],"keys_pressed":["leftarrow","rightarrow","rightarrow","leftarrow","rightarrow","rightarrow","rightarrow","rightarrow","rightarrow","rightarrow"],"horizon":10,"forced_choices":["leftarrow","rightarrow","rightarrow","leftarrow"],"right_color":"orange","left_color":"lightblue","left_mu":60,"right_mu":90,"left_numbers":[69,63,56,54,59,61,64,54,53,54],"right_numbers":[73,79,89,95,79,84,93,102,86,82],"points_earned":817,"phase":"task","trial_type":"horizons-task","trial_index":40,"time_elapsed":590838,"internal_node_id":"0.0-36.0","task_version":"0.2"},{"response_times":[684.7899999993388,420.67999999562744,634.5849999925122,560.5650000070455,2026.865000007092,551.5149999991991,490.9099999931641,506.905000002007,476.51999999652617,412.94500000367407],"keys_pressed":["leftarrow","rightarrow","rightarrow","leftarrow","leftarrow","leftarrow","leftarrow","leftarrow","leftarrow","leftarrow"],"horizon":10,"forced_choices":["leftarrow","rightarrow","rightarrow","leftarrow"],"right_color":"orange","left_color":"lightblue","left_mu":60,"right_mu":52,"left_numbers":[66,74,61,58,62,71,69,59,68,59],"right_numbers":[39,50,48,59,61,60,60,51,57,37],"points_earned":610,"phase":"task","trial_type":"horizons-task","trial_index":41,"time_elapsed":599114,"internal_node_id":"0.0-37.0","task_version":"0.2"},{"response_times":[610.8949999907054,584.195000003092,532.9349999956321,554.9599999940256,850.574999989476,297.3000000056345,388.3700000005774,414.31000000739004,356.3949999952456,363.1299999979092],"keys_pressed":["rightarrow","rightarrow","leftarrow","rightarrow","rightarrow","rightarrow","rightarrow","rightarrow","rightarrow","rightarrow"],"horizon":10,"forced_choices":["rightarrow","rightarrow","leftarrow","rightarrow"],"right_color":"lightblue","left_color":"orange","left_mu":40,"right_mu":70,"left_numbers":[46,28,38,53,26,41,39,39,42,47],"right_numbers":[73,71,59,74,63,73,87,74,78,61],"points_earned":692,"phase":"task","trial_type":"horizons-task","trial_index":42,"time_elapsed":605570,"internal_node_id":"0.0-38.0","task_version":"0.2"},{"response_times":[527.1499999944353,637.6350000064122,478.08500000974163,644.6549999964191,1379.7749999939697,435.18000000040047,449.5699999970384,481.1300000001211,425.92000000877306,392.6599999977043],"keys_pressed":["leftarrow","leftarrow","rightarrow","rightarrow","leftarrow","leftarrow","leftarrow","leftarrow","leftarrow","leftarrow"],"horizon":10,"forced_choices":["leftarrow","leftarrow","rightarrow","rightarrow"],"right_color":"orange","left_color":"lightblue","left_mu":60,"right_mu":40,"left_numbers":[60,63,66,60,68,59,68,66,59,63],"right_numbers":[48,47,47,46,29,42,44,42,44,30],"points_earned":599,"phase":"task","trial_type":"horizons-task","trial_index":43,"time_elapsed":612923,"internal_node_id":"0.0-39.0","task_version":"0.2"},{"response_times":[508.60000000102445,652.6149999990594,535.4849999857834,868.4599999978673,4684.139999997569],"keys_pressed":["leftarrow","leftarrow","rightarrow","leftarrow","rightarrow"],"horizon":5,"forced_choices":["leftarrow","leftarrow","rightarrow","leftarrow"],"right_color":"orange","left_color":"lightblue","left_mu":60,"right_mu":64,"left_numbers":[58,62,59,50,65],"right_numbers":[66,59,72,60,61],"points_earned":303,"phase":"task","trial_type":"horizons-task","trial_index":44,"time_elapsed":621681,"internal_node_id":"0.0-40.0","task_version":"0.2"},{"response_times":[559.8200000094948,562.8399999986868,571.9249999965541,535.0299999990966,3426.755000007688,551.0749999957625,533.739999998943,515.1049999985844,516.0299999988638,501.3550000003306],"keys_pressed":["rightarrow","rightarrow","leftarrow","rightarrow","leftarrow","leftarrow","leftarrow","leftarrow","leftarrow","leftarrow"],"horizon":10,"forced_choices":["rightarrow","rightarrow","leftarrow","rightarrow"],"right_color":"lightblue","left_color":"orange","left_mu":60,"right_mu":30,"left_numbers":[56,50,61,54,55,78,58,54,66,47],"right_numbers":[25,40,29,18,41,17,32,29,24,35],"points_earned":502,"phase":"task","trial_type":"horizons-task","trial_index":45,"time_elapsed":631464,"internal_node_id":"0.0-41.0","task_version":"0.2"},{"response_times":[483.1350000022212,454.33500000217464,622.7699999872129,487.0599999994738,1435.4800000000978],"keys_pressed":["rightarrow","leftarrow","leftarrow","rightarrow","rightarrow"],"horizon":5,"forced_choices":["rightarrow","leftarrow","leftarrow","rightarrow"],"right_color":"orange","left_color":"lightblue","left_mu":40,"right_mu":36,"left_numbers":[40,29,32,46,43],"right_numbers":[44,39,48,36,29],"points_earned":170,"phase":"task","trial_type":"horizons-task","trial_index":46,"time_elapsed":636459,"internal_node_id":"0.0-42.0","task_version":"0.2"},{"response_times":[509.6849999972619,623.4850000037113,560.4399999865564,601.2300000002142,1725.720000002184,819.9600000079954,536.0250000085216,533.240000004298,666.479999999865,450.4549999983283],"keys_pressed":["rightarrow","rightarrow","rightarrow","leftarrow","rightarrow","rightarrow","rightarrow","rightarrow","rightarrow","rightarrow"],"horizon":10,"forced_choices":["rightarrow","rightarrow","rightarrow","leftarrow"],"right_color":"orange","left_color":"lightblue","left_mu":40,"right_mu":52,"left_numbers":[42,58,38,47,49,22,45,48,37,40],"right_numbers":[64,57,52,54,61,50,48,39,52,45],"points_earned":515,"phase":"task","trial_type":"horizons-task","trial_index":47,"time_elapsed":644994,"internal_node_id":"0.0-43.0","task_version":"0.2"},{"response_times":[592.0100000075763,557.6399999990826,556.3600000023143,598.6800000100629,1252.330000002985,565.1100000104634,482.8200000047218,516.1999999982072,466.74499999789987,382.76500000210945],"keys_pressed":["rightarrow","rightarrow","leftarrow","leftarrow","leftarrow","leftarrow","leftarrow","leftarrow","leftarrow","leftarrow"],"horizon":10,"forced_choices":["rightarrow","rightarrow","leftarrow","leftarrow"],"right_color":"lightblue","left_color":"orange","left_mu":60,"right_mu":30,"left_numbers":[51,56,66,57,69,66,67,57,59,48],"right_numbers":[30,26,44,24,37,30,29,30,30,16],"points_earned":545,"phase":"task","trial_type":"horizons-task","trial_index":48,"time_elapsed":652473,"internal_node_id":"0.0-44.0","task_version":"0.2"},{"response_times":[486.77000000316184,514.0550000069197,671.3250000029802,563.8350000081118,2000.4950000002282,504.8099999985425,1027.2449999902165,558.1200000015087,446.6950000060024,361.4250000100583],"keys_pressed":["leftarrow","leftarrow","leftarrow","rightarrow","leftarrow","leftarrow","leftarrow","leftarrow","leftarrow","leftarrow"],"horizon":10,"forced_choices":["leftarrow","leftarrow","leftarrow","rightarrow"],"right_color":"lightblue","left_color":"orange","left_mu":60,"right_mu":48,"left_numbers":[67,46,65,54,64,70,46,54,70,73],"right_numbers":[61,40,34,46,40,43,59,49,46,43],"points_earned":601,"phase":"task","trial_type":"horizons-task","trial_index":49,"time_elapsed":661115,"internal_node_id":"0.0-45.0","task_version":"0.2"},{"response_times":[531.7050000012387,616.7399999976624,512.1350000117673,644.4750000082422,627.9300000023795],"keys_pressed":["leftarrow","leftarrow","rightarrow","leftarrow","rightarrow"],"horizon":5,"forced_choices":["leftarrow","leftarrow","rightarrow","leftarrow"],"right_color":"orange","left_color":"lightblue","left_mu":40,"right_mu":48,"left_numbers":[31,33,36,45,34],"right_numbers":[63,62,58,53,38],"points_earned":205,"phase":"task","trial_type":"horizons-task","trial_index":50,"time_elapsed":665559,"internal_node_id":"0.0-46.0","task_version":"0.2"},{"view_history":"[{\"page_index\":0,\"viewing_time\":4872.000000003027},{\"page_index\":1,\"viewing_time\":10265.704999997979}]","rt":15138.590000002296,"trial_type":"instructions","trial_index":51,"time_elapsed":680698,"internal_node_id":"0.0-47.0","task_version":"0.2"},{"response_times":[688.9200000005076,579.6300000074552,611.414999992121,606.274999998277,1307.1349999954691],"keys_pressed":["rightarrow","rightarrow","leftarrow","leftarrow","rightarrow"],"horizon":5,"forced_choices":["rightarrow","rightarrow","leftarrow","leftarrow"],"right_color":"orange","left_color":"lightblue","left_mu":40,"right_mu":52,"left_numbers":[40,47,33,42,31],"right_numbers":[52,64,52,56,60],"points_earned":251,"phase":"task","trial_type":"horizons-task","trial_index":52,"time_elapsed":686023,"internal_node_id":"0.0-48.0","task_version":"0.2"},{"response_times":[473.95999998843763,559.1799999965588,558.709999997518,562.114999993355,1124.5150000031572],"keys_pressed":["rightarrow","leftarrow","leftarrow","rightarrow","leftarrow"],"horizon":5,"forced_choices":["rightarrow","leftarrow","leftarrow","rightarrow"],"right_color":"orange","left_color":"lightblue","left_mu":40,"right_mu":28,"left_numbers":[50,45,40,35,52],"right_numbers":[11,33,36,17,20],"points_earned":165,"phase":"task","trial_type":"horizons-task","trial_index":53,"time_elapsed":690809,"internal_node_id":"0.0-49.0","task_version":"0.2"},{"response_times":[747.4350000120467,548.9549999911105,556.4850000082515,496.75000000570435,1527.5200000032783,561.9250000017928,465.85500000219326,407.1549999935087,487.0649999938905,359.8199999978533],"keys_pressed":["rightarrow","leftarrow","leftarrow","rightarrow","rightarrow","rightarrow","rightarrow","rightarrow","rightarrow","rightarrow"],"horizon":10,"forced_choices":["rightarrow","leftarrow","leftarrow","rightarrow"],"right_color":"lightblue","left_color":"orange","left_mu":40,"right_mu":60,"left_numbers":[21,39,27,47,50,47,52,35,33,43],"right_numbers":[45,65,61,42,51,52,77,58,60,50],"points_earned":501,"phase":"task","trial_type":"horizons-task","trial_index":54,"time_elapsed":698473,"internal_node_id":"0.0-50.0","task_version":"0.2"},{"response_times":[524.9899999907939,573.3900000050198,594.6850000036648,583.6600000038743,617.2749999968801,501.4999999984866,495.49499999557156,511.1299999989569,490.4649999953108,469.55000000889413],"keys_pressed":["rightarrow","rightarrow","leftarrow","rightarrow","leftarrow","leftarrow","leftarrow","leftarrow","leftarrow","leftarrow"],"horizon":10,"forced_choices":["rightarrow","rightarrow","leftarrow","rightarrow"],"right_color":"lightblue","left_color":"orange","left_mu":40,"right_mu":10,"left_numbers":[53,43,33,49,23,35,32,44,38,33],"right_numbers":[2,17,15,15,5,10,0,18,10,5],"points_earned":272,"phase":"task","trial_type":"horizons-task","trial_index":55,"time_elapsed":705346,"internal_node_id":"0.0-51.0","task_version":"0.2"},{"response_times":[518.4949999966193,696.2800000037532,571.0600000020349,690.7300000020768,577.3200000112411,527.010000005248,509.4600000011269,506.72999999369495,489.2449999897508,447.2400000086054],"keys_pressed":["leftarrow","leftarrow","rightarrow","rightarrow","rightarrow","rightarrow","rightarrow","rightarrow","rightarrow","rightarrow"],"horizon":10,"forced_choices":["leftarrow","leftarrow","rightarrow","rightarrow"],"right_color":"lightblue","left_color":"orange","left_mu":40,"right_mu":70,"left_numbers":[47,38,32,30,26,59,37,48,38,36],"right_numbers":[70,73,74,63,70,61,54,50,61,70],"points_earned":588,"phase":"task","trial_type":"horizons-task","trial_index":56,"time_elapsed":712390,"internal_node_id":"0.0-52.0","task_version":"0.2"},{"response_times":[472.83499999321066,452.2949999955017,650.1450000068871,884.3599999963772,848.2450000010431],"keys_pressed":["rightarrow","leftarrow","leftarrow","leftarrow","leftarrow"],"horizon":5,"forced_choices":["rightarrow","leftarrow","leftarrow","leftarrow"],"right_color":"orange","left_color":"lightblue","left_mu":60,"right_mu":40,"left_numbers":[58,59,55,51,62],"right_numbers":[40,36,36,36,40],"points_earned":267,"phase":"task","trial_type":"horizons-task","trial_index":57,"time_elapsed":717209,"internal_node_id":"0.0-53.0","task_version":"0.2"},{"response_times":[612.7500000002328,456.61000000836793,630.0650000048336,632.3749999864958,1779.9899999954505,418.855000010808,477.9549999948358,456.304999999702,1129.4550000020536,937.484999987646],"keys_pressed":["rightarrow","leftarrow","leftarrow","leftarrow","rightarrow","rightarrow","rightarrow","rightarrow","rightarrow","rightarrow"],"horizon":10,"forced_choices":["rightarrow","leftarrow","leftarrow","leftarrow"],"right_color":"lightblue","left_color":"orange","left_mu":60,"right_mu":72,"left_numbers":[66,65,53,50,61,59,66,64,60,62],"right_numbers":[79,82,80,76,83,63,64,79,73,70],"points_earned":679,"phase":"task","trial_type":"horizons-task","trial_index":58,"time_elapsed":726244,"internal_node_id":"0.0-54.0","task_version":"0.2"},{"response_times":[517.8699999960372,639.7949999955017,528.2199999928707,578.4750000020722,660.200000012992,460.8799999987241,483.90500000095926,471.7549999913899,482.66500000318047,530.1399999880232],"keys_pressed":["leftarrow","leftarrow","rightarrow","leftarrow","rightarrow","rightarrow","rightarrow","rightarrow","rightarrow","rightarrow"],"horizon":10,"forced_choices":["leftarrow","leftarrow","rightarrow","leftarrow"],"right_color":"orange","left_color":"lightblue","left_mu":60,"right_mu":64,"left_numbers":[50,56,53,52,61,56,50,58,59,74],"right_numbers":[82,47,80,52,61,62,61,75,64,71],"points_earned":632,"phase":"task","trial_type":"horizons-task","trial_index":59,"time_elapsed":733108,"internal_node_id":"0.0-55.0","task_version":"0.2"},{"response_times":[535.9449999959907,450.6649999966612,532.7899999974761,924.234999998589,1190.7999999966705],"keys_pressed":["leftarrow","rightarrow","leftarrow","rightarrow","rightarrow"],"horizon":5,"forced_choices":["leftarrow","rightarrow","leftarrow","rightarrow"],"right_color":"lightblue","left_color":"orange","left_mu":60,"right_mu":72,"left_numbers":[49,71,73,65,50],"right_numbers":[73,60,67,74,71],"points_earned":327,"phase":"task","trial_type":"horizons-task","trial_index":60,"time_elapsed":738250,"internal_node_id":"0.0-56.0","task_version":"0.2"},{"response_times":[654.6249999955762,568.6699999932898,567.0399999944493,478.9350000064587,1563.5650000040187],"keys_pressed":["leftarrow","leftarrow","leftarrow","rightarrow","rightarrow"],"horizon":5,"forced_choices":["leftarrow","leftarrow","leftarrow","rightarrow"],"right_color":"lightblue","left_color":"orange","left_mu":40,"right_mu":44,"left_numbers":[33,27,41,27,43],"right_numbers":[41,28,54,47,43],"points_earned":191,"phase":"task","trial_type":"horizons-task","trial_index":61,"time_elapsed":743588,"internal_node_id":"0.0-57.0","task_version":"0.2"},{"response_times":[435.39999998756684,455.2599999879021,444.96999999682885,470.2700000052573,1778.6100000084843],"keys_pressed":["rightarrow","leftarrow","rightarrow","leftarrow","rightarrow"],"horizon":5,"forced_choices":["rightarrow","leftarrow","rightarrow","leftarrow"],"right_color":"orange","left_color":"lightblue","left_mu":60,"right_mu":64,"left_numbers":[61,52,49,69,59],"right_numbers":[63,71,61,73,59],"points_earned":304,"phase":"task","trial_type":"horizons-task","trial_index":62,"time_elapsed":748683,"internal_node_id":"0.0-58.0","task_version":"0.2"},{"response_times":[590.1449999946635,508.2199999887962,787.9850000026636,697.0100000035018,964.719999989029,528.3049999998184,499.614999993355,506.294999999227,448.89499999408145,391.9800000003306],"keys_pressed":["leftarrow","rightarrow","rightarrow","rightarrow","rightarrow","rightarrow","rightarrow","rightarrow","rightarrow","rightarrow"],"horizon":10,"forced_choices":["leftarrow","rightarrow","rightarrow","rightarrow"],"right_color":"orange","left_color":"lightblue","left_mu":60,"right_mu":90,"left_numbers":[64,52,60,61,67,52,68,63,53,56],"right_numbers":[91,100,77,91,91,81,87,84,93,85],"points_earned":853,"phase":"task","trial_type":"horizons-task","trial_index":63,"time_elapsed":756114,"internal_node_id":"0.0-59.0","task_version":"0.2"},{"response_times":[594.0050000062911,365.8549999963725,497.51000000105705,544.7899999999208,2142.2899999888614,516.0000000032596,472.12500000023283,488.8700000010431,502.2549999994226,446.9400000089081],"keys_pressed":["leftarrow","rightarrow","leftarrow","leftarrow","rightarrow","rightarrow","rightarrow","rightarrow","rightarrow","rightarrow"],"horizon":10,"forced_choices":["leftarrow","rightarrow","leftarrow","leftarrow"],"right_color":"lightblue","left_color":"orange","left_mu":40,"right_mu":60,"left_numbers":[46,49,51,41,34,33,38,50,51,40],"right_numbers":[36,59,66,52,72,64,64,75,61,48],"points_earned":581,"phase":"task","trial_type":"horizons-task","trial_index":64,"time_elapsed":764192,"internal_node_id":"0.0-60.0","task_version":"0.2"},{"response_times":[563.0399999936344,544.8650000034831,665.2150000008987,868.77000000095,6822.339999998803],"keys_pressed":["leftarrow","leftarrow","leftarrow","rightarrow","rightarrow"],"horizon":5,"forced_choices":["leftarrow","leftarrow","leftarrow","rightarrow"],"right_color":"lightblue","left_color":"orange","left_mu":60,"right_mu":48,"left_numbers":[50,51,48,56,62],"right_numbers":[48,58,51,56,55],"points_earned":260,"phase":"task","trial_type":"horizons-task","trial_index":65,"time_elapsed":775167,"internal_node_id":"0.0-61.0","task_version":"0.2"},{"response_times":[482.58500000520144,490.4499999975087,651.0899999993853,567.6150000072084,594.9300000065705],"keys_pressed":["rightarrow","leftarrow","leftarrow","rightarrow","rightarrow"],"horizon":5,"forced_choices":["rightarrow","leftarrow","leftarrow","rightarrow"],"right_color":"lightblue","left_color":"orange","left_mu":60,"right_mu":68,"left_numbers":[64,59,61,49,73],"right_numbers":[70,56,70,67,69],"points_earned":326,"phase":"task","trial_type":"horizons-task","trial_index":66,"time_elapsed":779464,"internal_node_id":"0.0-62.0","task_version":"0.2"},{"response_times":[566.7949999915436,563.0650000093738,473.9550000085728,576.2200000026496,574.1149999957997],"keys_pressed":["leftarrow","leftarrow","rightarrow","rightarrow","leftarrow"],"horizon":5,"forced_choices":["leftarrow","leftarrow","rightarrow","rightarrow"],"right_color":"orange","left_color":"lightblue","left_mu":60,"right_mu":40,"left_numbers":[53,64,44,53,59],"right_numbers":[47,45,41,30,42],"points_earned":247,"phase":"task","trial_type":"horizons-task","trial_index":67,"time_elapsed":783725,"internal_node_id":"0.0-63.0","task_version":"0.2"},{"response_times":[587.6450000068871,528.0499999935273,588.5050000069896,645.2700000081677,2530.8100000111153,484.66499999631196,445.8749999903375,467.9699999978766,485.01000000396743,484.0200000035111],"keys_pressed":["leftarrow","rightarrow","rightarrow","rightarrow","leftarrow","leftarrow","leftarrow","leftarrow","leftarrow","leftarrow"],"horizon":10,"forced_choices":["leftarrow","rightarrow","rightarrow","rightarrow"],"right_color":"lightblue","left_color":"orange","left_mu":40,"right_mu":32,"left_numbers":[34,37,29,38,31,41,42,53,48,41],"right_numbers":[38,31,23,37,31,30,34,27,22,31],"points_earned":381,"phase":"task","trial_type":"horizons-task","trial_index":68,"time_elapsed":792479,"internal_node_id":"0.0-64.0","task_version":"0.2"},{"response_times":[764.2000000050757,427.2800000035204,604.0349999966566,662.4899999878835,620.6499999971129],"keys_pressed":["leftarrow","rightarrow","rightarrow","leftarrow","leftarrow"],"horizon":5,"forced_choices":["leftarrow","rightarrow","rightarrow","leftarrow"],"right_color":"orange","left_color":"lightblue","left_mu":60,"right_mu":52,"left_numbers":[73,65,66,60,79],"right_numbers":[69,59,48,45,54],"points_earned":319,"phase":"task","trial_type":"horizons-task","trial_index":69,"time_elapsed":797062,"internal_node_id":"0.0-65.0","task_version":"0.2"},{"response_times":[602.3350000032224,616.9200000003912,638.5650000011083,959.6500000043306,2823.980000001029],"keys_pressed":["rightarrow","leftarrow","leftarrow","rightarrow","rightarrow"],"horizon":5,"forced_choices":["rightarrow","leftarrow","leftarrow","rightarrow"],"right_color":"lightblue","left_color":"orange","left_mu":40,"right_mu":60,"left_numbers":[42,49,47,44,48],"right_numbers":[63,56,53,51,67],"points_earned":277,"phase":"task","trial_type":"horizons-task","trial_index":70,"time_elapsed":804210,"internal_node_id":"0.0-66.0","task_version":"0.2"},{"response_times":[504.04999998863786,430.9050000010757,454.06000000366475,445.7949999923585,1652.6550000126008,1395.3900000051362,1724.3799999996554,2071.3550000073155,7164.070000013453,409.96000000450294],"keys_pressed":["rightarrow","leftarrow","rightarrow","leftarrow","rightarrow","leftarrow","rightarrow","leftarrow","rightarrow","rightarrow"],"horizon":10,"forced_choices":["rightarrow","leftarrow","rightarrow","leftarrow"],"right_color":"lightblue","left_color":"orange","left_mu":40,"right_mu":44,"left_numbers":[40,41,38,34,30,38,56,39,38,43],"right_numbers":[59,54,44,46,34,45,36,48,51,37],"points_earned":413,"phase":"task","trial_type":"horizons-task","trial_index":71,"time_elapsed":821980,"internal_node_id":"0.0-67.0","task_version":"0.2"},{"response_times":[514.0249999967637,441.370000000461,554.8050000070361,558.4700000035809,1857.5249999994412,790.3450000012526,531.909999990603,477.9100000014296,448.65000000572763,398.72500000637956],"keys_pressed":["rightarrow","leftarrow","leftarrow","leftarrow","leftarrow","leftarrow","leftarrow","leftarrow","leftarrow","leftarrow"],"horizon":10,"forced_choices":["rightarrow","leftarrow","leftarrow","leftarrow"],"right_color":"orange","left_color":"lightblue","left_mu":40,"right_mu":20,"left_numbers":[41,53,31,48,32,44,39,54,35,33],"right_numbers":[7,22,15,21,24,14,23,4,31,13],"points_earned":376,"phase":"task","trial_type":"horizons-task","trial_index":72,"time_elapsed":830061,"internal_node_id":"0.0-68.0","task_version":"0.2"},{"response_times":[678.604999993695,451.9399999990128,451.67499998933636,843.3199999999488,715.1949999970384],"keys_pressed":["rightarrow","leftarrow","rightarrow","rightarrow","rightarrow"],"horizon":5,"forced_choices":["rightarrow","leftarrow","rightarrow","rightarrow"],"right_color":"orange","left_color":"lightblue","left_mu":60,"right_mu":80,"left_numbers":[61,61,68,49,61],"right_numbers":[79,77,77,87,84],"points_earned":388,"phase":"task","trial_type":"horizons-task","trial_index":73,"time_elapsed":834714,"internal_node_id":"0.0-69.0","task_version":"0.2"},{"response_times":[574.1200000047684,458.68500000506174,455.43000000179745,494.67999998887535,1505.0300000002608,491.17999999725726,464.2650000023423,512.2899999987567,461.37499999895226,412.3400000098627],"keys_pressed":["rightarrow","rightarrow","leftarrow","leftarrow","rightarrow","rightarrow","rightarrow","rightarrow","rightarrow","rightarrow"],"horizon":10,"forced_choices":["rightarrow","rightarrow","leftarrow","leftarrow"],"right_color":"orange","left_color":"lightblue","left_mu":40,"right_mu":52,"left_numbers":[30,36,32,46,45,37,43,48,42,45],"right_numbers":[59,50,44,53,52,49,64,56,41,43],"points_earned":492,"phase":"task","trial_type":"horizons-task","trial_index":74,"time_elapsed":842055,"internal_node_id":"0.0-70.0","task_version":"0.2"},{"response_times":[462.06000000529457,478.770000001532,689.2799999914132,578.1299999944167,1188.3300000044983],"keys_pressed":["leftarrow","rightarrow","rightarrow","rightarrow","leftarrow"],"horizon":5,"forced_choices":["leftarrow","rightarrow","rightarrow","rightarrow"],"right_color":"lightblue","left_color":"orange","left_mu":40,"right_mu":32,"left_numbers":[33,43,35,36,43],"right_numbers":[43,22,29,32,34],"points_earned":159,"phase":"task","trial_type":"horizons-task","trial_index":75,"time_elapsed":846954,"internal_node_id":"0.0-71.0","task_version":"0.2"},{"response_times":[427.1349999908125,531.8050000059884,520.3249999904074,597.5349999935133,5427.880000002915],"keys_pressed":["rightarrow","rightarrow","rightarrow","leftarrow","rightarrow"],"horizon":5,"forced_choices":["rightarrow","rightarrow","rightarrow","leftarrow"],"right_color":"lightblue","left_color":"orange","left_mu":60,"right_mu":68,"left_numbers":[70,59,63,65,60],"right_numbers":[66,62,53,71,71],"points_earned":317,"phase":"task","trial_type":"horizons-task","trial_index":76,"time_elapsed":855973,"internal_node_id":"0.0-72.0","task_version":"0.2"},{"response_times":[727.2700000030454,481.60499999357853,485.73499999474734,524.5350000041071,1523.3900000021094],"keys_pressed":["rightarrow","leftarrow","rightarrow","leftarrow","leftarrow"],"horizon":5,"forced_choices":["rightarrow","leftarrow","rightarrow","leftarrow"],"right_color":"orange","left_color":"lightblue","left_mu":40,"right_mu":20,"left_numbers":[32,60,32,51,39],"right_numbers":[2,13,17,14,25],"points_earned":169,"phase":"task","trial_type":"horizons-task","trial_index":77,"time_elapsed":861223,"internal_node_id":"0.0-73.0","task_version":"0.2"},{"response_times":[594.2450000002282,452.87500000267755,645.9449999965727,647.1000000019558,1530.6149999960326],"keys_pressed":["rightarrow","leftarrow","leftarrow","leftarrow","leftarrow"],"horizon":5,"forced_choices":["rightarrow","leftarrow","leftarrow","leftarrow"],"right_color":"orange","left_color":"lightblue","left_mu":40,"right_mu":20,"left_numbers":[48,35,35,52,45],"right_numbers":[25,19,35,25,17],"points_earned":192,"phase":"task","trial_type":"horizons-task","trial_index":78,"time_elapsed":866600,"internal_node_id":"0.0-74.0","task_version":"0.2"},{"response_times":[590.6250000116415,560.0149999954738,562.1399999945424,553.6399999982677,2980.8150000026217,525.099999998929,717.1300000045449,556.735000005574,456.9249999913154,422.1399999951245],"keys_pressed":["leftarrow","leftarrow","rightarrow","leftarrow","rightarrow","rightarrow","rightarrow","rightarrow","rightarrow","rightarrow"],"horizon":10,"forced_choices":["leftarrow","leftarrow","rightarrow","leftarrow"],"right_color":"orange","left_color":"lightblue","left_mu":40,"right_mu":48,"left_numbers":[33,56,33,27,34,34,38,48,46,43],"right_numbers":[38,41,39,44,47,39,53,41,50,44],"points_earned":429,"phase":"task","trial_type":"horizons-task","trial_index":79,"time_elapsed":876033,"internal_node_id":"0.0-75.0","task_version":"0.2"},{"response_times":[451.2600000016391,502.46999999217223,509.96500000474043,549.7449999966193,913.9250000007451],"keys_pressed":["rightarrow","rightarrow","rightarrow","leftarrow","rightarrow"],"horizon":5,"forced_choices":["rightarrow","rightarrow","rightarrow","leftarrow"],"right_color":"orange","left_color":"lightblue","left_mu":40,"right_mu":52,"left_numbers":[42,43,33,42,37],"right_numbers":[53,37,48,66,56],"points_earned":236,"phase":"task","trial_type":"horizons-task","trial_index":80,"time_elapsed":880468,"internal_node_id":"0.0-76.0","task_version":"0.2"},{"response_times":[525.8200000098441,505.35999999556225,488.96000000240747,514.0899999969406,3761.740000001737],"keys_pressed":["leftarrow","leftarrow","rightarrow","leftarrow","leftarrow"],"horizon":5,"forced_choices":["leftarrow","leftarrow","rightarrow","leftarrow"],"right_color":"orange","left_color":"lightblue","left_mu":60,"right_mu":52,"left_numbers":[59,78,56,56,60],"right_numbers":[45,48,67,51,42],"points_earned":320,"phase":"task","trial_type":"horizons-task","trial_index":81,"time_elapsed":887770,"internal_node_id":"0.0-77.0","task_version":"0.2"},{"response_times":[490.05000000761356,458.83499999763444,482.0049999980256,499.5350000099279,2084.434999997029,590.7250000018394,471.88500000629574,464.2900000035297,451.83999999426305,374.3850000028033],"keys_pressed":["leftarrow","rightarrow","leftarrow","rightarrow","rightarrow","rightarrow","rightarrow","rightarrow","rightarrow","rightarrow"],"horizon":10,"forced_choices":["leftarrow","rightarrow","leftarrow","rightarrow"],"right_color":"orange","left_color":"lightblue","left_mu":40,"right_mu":48,"left_numbers":[42,31,29,51,43,45,44,44,23,44],"right_numbers":[49,44,47,60,33,49,42,48,45,50],"points_earned":442,"phase":"task","trial_type":"horizons-task","trial_index":82,"time_elapsed":895642,"internal_node_id":"0.0-78.0","task_version":"0.2"},{"response_times":[475.57500000402797,440.4950000025565,416.72000000835396,449.47499998670537,1053.0199999921024,661.9849999988219,647.3450000048615,588.6049999971874,511.4750000066124,479.88500000792556],"keys_pressed":["rightarrow","leftarrow","rightarrow","leftarrow","rightarrow","leftarrow","rightarrow","rightarrow","rightarrow","rightarrow"],"horizon":10,"forced_choices":["rightarrow","leftarrow","rightarrow","leftarrow"],"right_color":"orange","left_color":"lightblue","left_mu":60,"right_mu":64,"left_numbers":[66,56,50,66,42,50,36,51,63,60],"right_numbers":[66,51,68,65,57,69,82,57,64,69],"points_earned":635,"phase":"task","trial_type":"horizons-task","trial_index":83,"time_elapsed":902871,"internal_node_id":"0.0-79.0","task_version":"0.2"},{"response_times":[1353.4399999916786,740.2750000037486,928.6100000026636,920.0850000052014,1140.369999993709],"keys_pressed":["leftarrow","leftarrow","rightarrow","rightarrow","rightarrow"],"horizon":5,"forced_choices":["leftarrow","leftarrow","rightarrow","rightarrow"],"right_color":"lightblue","left_color":"orange","left_mu":40,"right_mu":70,"left_numbers":[38,36,40,48,41],"right_numbers":[63,73,76,77,77],"points_earned":304,"phase":"task","trial_type":"horizons-task","trial_index":84,"time_elapsed":909463,"internal_node_id":"0.0-80.0","task_version":"0.2"},{"response_times":[625.2349999995204,408.47999999823514,417.35000000335276,505.7949999900302,1723.0299999937415],"keys_pressed":["leftarrow","rightarrow","leftarrow","rightarrow","leftarrow"],"horizon":5,"forced_choices":["leftarrow","rightarrow","leftarrow","rightarrow"],"right_color":"lightblue","left_color":"orange","left_mu":40,"right_mu":32,"left_numbers":[43,47,46,32,33],"right_numbers":[21,45,24,23,36],"points_earned":190,"phase":"task","trial_type":"horizons-task","trial_index":85,"time_elapsed":914653,"internal_node_id":"0.0-81.0","task_version":"0.2"},{"response_times":[472.51999999571126,373.4650000114925,615.6750000081956,572.134999994887,1331.995000000461],"keys_pressed":["leftarrow","rightarrow","rightarrow","leftarrow","leftarrow"],"horizon":5,"forced_choices":["leftarrow","rightarrow","rightarrow","leftarrow"],"right_color":"lightblue","left_color":"orange","left_mu":60,"right_mu":48,"left_numbers":[68,64,70,57,49],"right_numbers":[43,45,47,44,48],"points_earned":266,"phase":"task","trial_type":"horizons-task","trial_index":86,"time_elapsed":919526,"internal_node_id":"0.0-82.0","task_version":"0.2"},{"response_times":[462.57499999774154,491.23999998846557,491.17500000284053,522.3100000002887,2768.534999995609,591.019999992568,560.2399999916088,460.7749999995576,455.6400000001304,433.4800000069663],"keys_pressed":["leftarrow","leftarrow","leftarrow","rightarrow","rightarrow","rightarrow","rightarrow","rightarrow","rightarrow","rightarrow"],"horizon":10,"forced_choices":["leftarrow","leftarrow","leftarrow","rightarrow"],"right_color":"lightblue","left_color":"orange","left_mu":40,"right_mu":44,"left_numbers":[44,36,29,45,38,45,37,54,56,47],"right_numbers":[45,63,61,43,48,36,57,23,52,50],"points_earned":418,"phase":"task","trial_type":"horizons-task","trial_index":87,"time_elapsed":928273,"internal_node_id":"0.0-83.0","task_version":"0.2"},{"response_times":[617.7299999981187,889.8250000056578,597.4100000021281,639.7699999943143,461.48499999253545],"keys_pressed":["leftarrow","leftarrow","rightarrow","rightarrow","leftarrow"],"horizon":5,"forced_choices":["leftarrow","leftarrow","rightarrow","rightarrow"],"right_color":"lightblue","left_color":"orange","left_mu":40,"right_mu":10,"left_numbers":[43,46,32,38,31],"right_numbers":[8,13,18,13,12],"points_earned":151,"phase":"task","trial_type":"horizons-task","trial_index":88,"time_elapsed":932983,"internal_node_id":"0.0-84.0","task_version":"0.2"},{"response_times":[523.7099999940256,426.6849999985425,498.30999999539927,477.6549999951385,1734.165000001667,755.7099999976344,631.5749999921536,491.6349999984959,454.07999999588355,436.4449999993667],"keys_pressed":["leftarrow","rightarrow","rightarrow","leftarrow","leftarrow","leftarrow","leftarrow","leftarrow","leftarrow","leftarrow"],"horizon":10,"forced_choices":["leftarrow","rightarrow","rightarrow","leftarrow"],"right_color":"lightblue","left_color":"orange","left_mu":60,"right_mu":48,"left_numbers":[78,63,62,44,60,50,57,71,57,67],"right_numbers":[57,46,51,63,52,40,40,61,44,50],"points_earned":581,"phase":"task","trial_type":"horizons-task","trial_index":89,"time_elapsed":940924,"internal_node_id":"0.0-85.0","task_version":"0.2"},{"response_times":[590.5099999945378,369.93499999516644,560.1150000002235,503.7799999990966,2059.580000001006],"keys_pressed":["leftarrow","rightarrow","leftarrow","rightarrow","leftarrow"],"horizon":5,"forced_choices":["leftarrow","rightarrow","leftarrow","rightarrow"],"right_color":"orange","left_color":"lightblue","left_mu":40,"right_mu":48,"left_numbers":[53,39,41,39,34],"right_numbers":[35,44,46,45,47],"points_earned":217,"phase":"task","trial_type":"horizons-task","trial_index":90,"time_elapsed":946514,"internal_node_id":"0.0-86.0","task_version":"0.2"},{"response_times":[499.4600000063656,550.2699999924516,550.199999997858,684.4850000052247,963.595000008354,1543.2199999922886,496.46999999822583,409.429999999702,399.6750000078464,393.4050000098068],"keys_pressed":["leftarrow","leftarrow","rightarrow","rightarrow","leftarrow","leftarrow","leftarrow","leftarrow","leftarrow","leftarrow"],"horizon":10,"forced_choices":["leftarrow","leftarrow","rightarrow","rightarrow"],"right_color":"lightblue","left_color":"orange","left_mu":40,"right_mu":10,"left_numbers":[36,60,35,27,37,46,42,20,25,49],"right_numbers":[4,7,11,35,2,9,12,6,24,0],"points_earned":361,"phase":"task","trial_type":"horizons-task","trial_index":91,"time_elapsed":954515,"internal_node_id":"0.0-87.0","task_version":"0.2"},{"rt":12634.695000000647,"responses":{"age":"24","gender-categorical":"Female","gender-free-response":"","ethnicity":"Not Hispanic or Latino","race":["White"],"language":"Yes","fluency":"Very well"},"survey":"demographics","trial_type":"survey-demo","trial_index":92,"time_elapsed":967156,"internal_node_id":"0.0-88.0","task_version":"0.2"},{"rt":31868.470000001253,"responses":{"difficulty":"5","fun":"4","clarity":"5","strategy":"I tried to determine the spread and possible average of each number.","feedback":""},"survey":"debrief","trial_type":"survey-debrief","trial_index":93,"time_elapsed":999027,"internal_node_id":"0.0-89.0","task_version":"0.2","interactions":"[]"}]