[{"view_history":"[{\"page_index\":0,\"viewing_time\":1933.0099999788217}]","rt":1933.7799999630079,"trial_type":"instructions","trial_index":0,"time_elapsed":1949,"internal_node_id":"0.0-0.0","task_version":"0.2"},{"item_order":[8,5,12,4,13,16,10,3,7,0,1,11,2,6,15,14,9],"responses":{"Q09":"2","Q06":"4","Q13":"3","Q05":"4","Q14":"3","Q17":"0","Q11":"3","Q04":"3","Q08":"3","Q01":"3","Q02":"2","Q12":"4","Q03":"4","Q07":"2","Q16":"2","Q15":"2","Q10":"4"},"radio_events":[3563.029999961145,8815.234999987297,9577.579999982845,10709.099999978207,12165.424999955576,14188.020000001416,19054.910000006203,22083.31499999622,22733.039999962784,26596.885000006296,29939.710000006016,30959.349999960978,32508.174999966286,34414.36999995494,36155.67499998724,37270.96499997424,40211.99499996146,42498.58499999391],"key_events":[],"mouse_events":[0.4949999856762588,3563.029999961145,5336.320000002161,6881.774999957997,8309.999999997672,8815.234999987297,9577.579999982845,10709.099999978207,12165.424999955576,14188.020000001416,19054.910000006203,20919.929999974556,22083.31499999622,22733.039999962784,26596.885000006296,29214.00999999605,29939.710000006016,30959.349999960978,32508.174999966286,34414.36999995494,36155.67499998724,37270.96499997424,40211.99499996146,41993.450000009034,42498.58499999391,43409.219999972265],"rt":43414.86999997869,"survey":"pswq","trial_type":"survey-template","trial_index":1,"time_elapsed":45370,"internal_node_id":"0.0-1.0","task_version":"0.2"},{"item_order":[6,12,11,5,15,7,4,3,8,13,2,1,9,14,0,10],"responses":{"Q07":"4","Q13":"3","Q12":"2","Q06":"3","Q16":"5","Q08":"4","Q05":"4","Q04":"2","Q09":"4","Q14":"3","Q03":"2","Q02":"4","Q10":"2","Q15":"2","Q01":"2","Q11":"4"},"radio_events":[2114.895000006072,4281.640000001062,7427.815000002738,10665.615000005346,13161.484999989625,16062.630000000354,19316.904999956023,23690.969999996014,26532.894999952987,29273.474999994505,31982.4849999859,35281.220000004396,38672.15999995824,40465.70000000065,42279.34999996796,44699.00500000222],"key_events":[],"mouse_events":[2114.895000006072,4281.640000001062,7427.815000002738,10665.615000005346,13161.484999989625,16062.630000000354,19316.904999956023,23690.969999996014,26532.894999952987,29273.474999994505,31982.4849999859,34912.3649999965,35281.220000004396,38672.15999995824,40465.70000000065,42279.34999996796,44699.00500000222,45430.95999996876],"rt":45435.70999999065,"survey":"nfc","trial_type":"survey-template","trial_index":2,"time_elapsed":90813,"internal_node_id":"0.0-2.0","task_version":"0.2"},{"item_order":[4,8,5,6,1,10,2,9,12,7,3,0,11],"responses":{"Q05":"2","Q09":"1","Q06":"1","Q07":"1","Q02":"3","Q11":"2","Q03":"2","Q10":"1","Q13":"4","Q08":"3","Q04":"2","Q01":"2","Q12":"1"},"radio_events":[5385.9100000117905,7946.560000011232,11851.024999981746,13524.310000007972,15755.174999998417,19305.200000002515,27704.90000001155,30374.094999977387,31971.045000012964,34417.93499997584,36942.84500001231,40032.61499997461,42027.20000001136],"key_events":[],"mouse_events":[5385.9100000117905,7946.560000011232,11851.024999981746,13524.310000007972,15755.174999998417,18158.1400000141,19305.200000002515,26806.41999997897,27704.90000001155,30374.094999977387,31971.045000012964,34417.93499997584,36942.84500001231,39125.58499997249,40032.61499997461,42027.20000001136,42950.69999998668],"rt":42954.544999985956,"survey":"ius12","trial_type":"survey-template","trial_index":3,"time_elapsed":133774,"internal_node_id":"0.0-3.0","task_version":"0.2"},{"view_history":"[{\"page_index\":0,\"viewing_time\":1820.2549999696203},{\"page_index\":1,\"viewing_time\":2901.365000056103},{\"page_index\":2,\"viewing_time\":5359.394999977667},{\"page_index\":3,\"viewing_time\":4021.0450000013225},{\"page_index\":4,\"viewing_time\":3685.1000000024214},{\"page_index\":5,\"viewing_time\":3202.7999999700114},{\"page_index\":6,\"viewing_time\":4365.840000042226},{\"page_index\":7,\"viewing_time\":6611.279999953695},{\"page_index\":8,\"viewing_time\":180349.2650000262},{\"page_index\":9,\"viewing_time\":1447.4850000115111}]","rt":213765.06499998504,"trial_type":"instructions","trial_index":4,"time_elapsed":4176404,"internal_node_id":"0.0-4.0-0.0","task_version":"0.2"},{"response_times":[1727.7749999775551,947.954999981448,459.8699999623932,458.08999997098,2400.659999984782],"keys_pressed":["rightarrow","leftarrow","rightarrow","rightarrow","leftarrow"],"horizon":5,"forced_choices":["rightarrow","leftarrow","rightarrow","rightarrow"],"right_color":"lightblue","left_color":"orange","left_mu":40,"right_mu":20,"left_numbers":[20,38,32,40,54],"right_numbers":[8,25,20,28,25],"points_earned":148,"phase":"practice","trial_type":"horizons-task","trial_index":5,"time_elapsed":4183909,"internal_node_id":"0.0-4.0-1.0","task_version":"0.2"},{"response_times":[1044.8949999990873,572.5200000451878,478.415000019595,625.7149999728426,2111.6049999836832,1686.9849999784492,1060.8699999866076,644.9250000296161,1233.2249999744818,1473.9049999625422],"keys_pressed":["leftarrow","leftarrow","rightarrow","rightarrow","rightarrow","rightarrow","rightarrow","rightarrow","rightarrow","leftarrow"],"horizon":10,"forced_choices":["leftarrow","leftarrow","rightarrow","rightarrow"],"right_color":"orange","left_color":"lightblue","left_mu":60,"right_mu":70,"left_numbers":[38,67,60,63,59,59,53,57,72,54],"right_numbers":[79,53,72,65,75,90,85,69,69,71],"points_earned":684,"phase":"practice","trial_type":"horizons-task","trial_index":6,"time_elapsed":4196347,"internal_node_id":"0.0-4.0-2.0","task_version":"0.2"},{"view_history":"[{\"page_index\":0,\"viewing_time\":3033.7300000246614},{\"page_index\":1,\"viewing_time\":1772.919999959413},{\"page_index\":2,\"viewing_time\":2072.7650000480935},{\"page_index\":3,\"viewing_time\":1909.0250000008382}]","rt":8788.905000023078,"trial_type":"instructions","trial_index":7,"time_elapsed":4205137,"internal_node_id":"0.0-4.0-3.0","task_version":"0.2"},{"responses":["true","false","true"],"num_errors":0,"rt":6584.514999995008,"trial_type":"horizons-comprehension","trial_index":8,"time_elapsed":4211725,"internal_node_id":"0.0-4.0-4.0","task_version":"0.2"},{"trial_type":"call-function","trial_index":9,"time_elapsed":4211732,"internal_node_id":"0.0-5.0","task_version":"0.2"},{"view_history":"[{\"page_index\":0,\"viewing_time\":888.6500000371598},{\"page_index\":1,\"viewing_time\":1933.4249999956228}]","rt":2822.585000016261,"trial_type":"instructions","trial_index":10,"time_elapsed":4214555,"internal_node_id":"0.0-6.0","task_version":"0.2"},{"response_times":[1032.8049999661744,452.77999999234453,407.98499999800697,479.98000000370666,1391.9349999632686],"keys_pressed":["rightarrow","rightarrow","rightarrow","leftarrow","leftarrow"],"horizon":5,"forced_choices":["rightarrow","rightarrow","rightarrow","leftarrow"],"right_color":"lightblue","left_color":"orange","left_mu":40,"right_mu":10,"left_numbers":[45,45,51,35,37],"right_numbers":[18,12,0,0,9],"points_earned":102,"phase":"task","trial_type":"horizons-task","trial_index":11,"time_elapsed":4219831,"internal_node_id":"0.0-7.0","task_version":"0.2"},{"response_times":[564.3550000386313,367.65999998897314,414.1649999655783,553.5349999554455,1803.0949999811128,952.3099999642,824.5349999633618,767.9299999726936,1062.9300000146031,690.935000020545],"keys_pressed":["leftarrow","rightarrow","rightarrow","leftarrow","rightarrow","leftarrow","rightarrow","rightarrow","rightarrow","rightarrow"],"horizon":10,"forced_choices":["leftarrow","rightarrow","rightarrow","leftarrow"],"right_color":"orange","left_color":"lightblue","left_mu":40,"right_mu":44,"left_numbers":[44,48,27,48,30,29,40,40,50,34],"right_numbers":[43,44,47,51,41,40,49,46,38,45],"points_earned":431,"phase":"task","trial_type":"horizons-task","trial_index":12,"time_elapsed":4229339,"internal_node_id":"0.0-8.0","task_version":"0.2"},{"response_times":[494.7249999968335,740.4000000096858,687.6700000138953,437.80000001424924,1443.8700000173412],"keys_pressed":["rightarrow","leftarrow","leftarrow","rightarrow","leftarrow"],"horizon":5,"forced_choices":["rightarrow","leftarrow","leftarrow","rightarrow"],"right_color":"lightblue","left_color":"orange","left_mu":40,"right_mu":36,"left_numbers":[42,39,42,42,48],"right_numbers":[17,49,50,37,30],"points_earned":183,"phase":"task","trial_type":"horizons-task","trial_index":13,"time_elapsed":4234651,"internal_node_id":"0.0-9.0","task_version":"0.2"},{"response_times":[680.2049999823794,371.9450000207871,445.0249999645166,495.84999994840473,838.8600000180304,719.0249999985099,442.0300000347197,422.6599999819882,1132.949999999255,710.2650000015274],"keys_pressed":["leftarrow","rightarrow","rightarrow","leftarrow","leftarrow","leftarrow","leftarrow","leftarrow","rightarrow","rightarrow"],"horizon":10,"forced_choices":["leftarrow","rightarrow","rightarrow","leftarrow"],"right_color":"lightblue","left_color":"orange","left_mu":60,"right_mu":80,"left_numbers":[57,65,73,69,52,65,53,52,58,66],"right_numbers":[85,93,81,79,82,79,89,87,86,70],"points_earned":678,"phase":"task","trial_type":"horizons-task","trial_index":14,"time_elapsed":4242417,"internal_node_id":"0.0-10.0","task_version":"0.2"},{"response_times":[471.445000031963,518.4599999920465,933.3449999685399,446.9050000188872,909.9200000055134,606.8350000423379,466.0699999658391,558.8449999922886,543.935000023339,498.955000017304],"keys_pressed":["rightarrow","rightarrow","leftarrow","rightarrow","rightarrow","rightarrow","rightarrow","leftarrow","rightarrow","rightarrow"],"horizon":10,"forced_choices":["rightarrow","rightarrow","leftarrow","rightarrow"],"right_color":"orange","left_color":"lightblue","left_mu":60,"right_mu":90,"left_numbers":[69,51,53,43,58,59,57,57,67,64],"right_numbers":[78,91,78,92,81,89,72,91,93,83],"points_earned":789,"phase":"task","trial_type":"horizons-task","trial_index":15,"time_elapsed":4249878,"internal_node_id":"0.0-11.0","task_version":"0.2"},{"response_times":[660.9750000061467,460.02499997848645,447.82999996095896,374.9250000109896,1602.930000051856,746.8499999959022,905.9950000373647,360.8949999907054,768.0350000155158,571.5849999687634],"keys_pressed":["leftarrow","rightarrow","leftarrow","rightarrow","rightarrow","leftarrow","leftarrow","rightarrow","rightarrow","rightarrow"],"horizon":10,"forced_choices":["leftarrow","rightarrow","leftarrow","rightarrow"],"right_color":"orange","left_color":"lightblue","left_mu":60,"right_mu":68,"left_numbers":[76,67,63,63,51,62,70,60,74,48],"right_numbers":[67,78,69,73,63,65,71,68,74,76],"points_earned":703,"phase":"task","trial_type":"horizons-task","trial_index":16,"time_elapsed":4258283,"internal_node_id":"0.0-12.0","task_version":"0.2"},{"response_times":[489.0350000350736,557.730000000447,635.2499999920838,797.7649999666028,957.3250000248663,646.6150000342168,637.7649999922141,517.6099999807775,489.40500000026077,504.97000000905246],"keys_pressed":["rightarrow","rightarrow","leftarrow","leftarrow","rightarrow","leftarrow","leftarrow","leftarrow","leftarrow","leftarrow"],"horizon":10,"forced_choices":["rightarrow","rightarrow","leftarrow","leftarrow"],"right_color":"lightblue","left_color":"orange","left_mu":40,"right_mu":10,"left_numbers":[47,19,37,35,48,48,39,40,20,34],"right_numbers":[2,7,14,7,7,10,15,13,0,19],"points_earned":269,"phase":"task","trial_type":"horizons-task","trial_index":17,"time_elapsed":4266022,"internal_node_id":"0.0-13.0","task_version":"0.2"},{"response_times":[520.7250000094064,465.74000001419336,447.88499997230247,370.3300000051968,1432.4899999774061,544.7949999943376,922.0300000160933,427.8099999646656,351.1350000044331,496.02500000037253],"keys_pressed":["rightarrow","leftarrow","leftarrow","leftarrow","rightarrow","leftarrow","leftarrow","leftarrow","leftarrow","leftarrow"],"horizon":10,"forced_choices":["rightarrow","leftarrow","leftarrow","leftarrow"],"right_color":"lightblue","left_color":"orange","left_mu":40,"right_mu":32,"left_numbers":[44,34,37,40,55,48,40,34,38,27],"right_numbers":[34,26,35,49,29,38,24,37,27,28],"points_earned":361,"phase":"task","trial_type":"horizons-task","trial_index":18,"time_elapsed":4273504,"internal_node_id":"0.0-14.0","task_version":"0.2"},{"response_times":[533.3300000056624,543.0599999963306,478.1249999650754,602.7200000244193,1541.8900000513531,724.8350000008941,469.9350000009872,426.7600000021048,413.02499995799735,488.1399999721907],"keys_pressed":["rightarrow","leftarrow","leftarrow","rightarrow","leftarrow","rightarrow","leftarrow","leftarrow","leftarrow","leftarrow"],"horizon":10,"forced_choices":["rightarrow","leftarrow","leftarrow","rightarrow"],"right_color":"orange","left_color":"lightblue","left_mu":60,"right_mu":48,"left_numbers":[48,62,61,50,53,71,70,62,42,60],"right_numbers":[45,47,56,46,59,49,38,35,47,49],"points_earned":550,"phase":"task","trial_type":"horizons-task","trial_index":19,"time_elapsed":4281231,"internal_node_id":"0.0-15.0","task_version":"0.2"},{"response_times":[1063.300000037998,533.739999984391,524.7499999823049,825.1100000343286,1053.7799999583513],"keys_pressed":["rightarrow","rightarrow","leftarrow","leftarrow","rightarrow"],"horizon":5,"forced_choices":["rightarrow","rightarrow","leftarrow","leftarrow"],"right_color":"orange","left_color":"lightblue","left_mu":60,"right_mu":90,"left_numbers":[53,52,63,61,52],"right_numbers":[89,94,80,77,90],"points_earned":397,"phase":"task","trial_type":"horizons-task","trial_index":20,"time_elapsed":4286740,"internal_node_id":"0.0-16.0","task_version":"0.2"},{"response_times":[533.2699999562465,422.9400000185706,698.1449999730103,422.69500001566485,941.0499999648891],"keys_pressed":["leftarrow","rightarrow","leftarrow","rightarrow","rightarrow"],"horizon":5,"forced_choices":["leftarrow","rightarrow","leftarrow","rightarrow"],"right_color":"orange","left_color":"lightblue","left_mu":60,"right_mu":68,"left_numbers":[55,68,71,50,71],"right_numbers":[72,79,68,66,62],"points_earned":333,"phase":"task","trial_type":"horizons-task","trial_index":21,"time_elapsed":4291261,"internal_node_id":"0.0-17.0","task_version":"0.2"},{"response_times":[486.06999998446554,599.3149999994785,459.62999999755993,520.8800000254996,1564.075000002049],"keys_pressed":["leftarrow","leftarrow","leftarrow","rightarrow","rightarrow"],"horizon":5,"forced_choices":["leftarrow","leftarrow","leftarrow","rightarrow"],"right_color":"orange","left_color":"lightblue","left_mu":40,"right_mu":60,"left_numbers":[36,39,56,25,43],"right_numbers":[62,61,64,59,31],"points_earned":221,"phase":"task","trial_type":"horizons-task","trial_index":22,"time_elapsed":4296394,"internal_node_id":"0.0-18.0","task_version":"0.2"},{"response_times":[518.8649999909103,383.00500001059845,357.90000000270084,516.8899999698624,1613.6649999534711,574.2350000073202,964.7500000428408,471.02999995695427,540.9950000466779,382.28000001981854],"keys_pressed":["rightarrow","leftarrow","rightarrow","rightarrow","leftarrow","leftarrow","leftarrow","rightarrow","leftarrow","leftarrow"],"horizon":10,"forced_choices":["rightarrow","leftarrow","rightarrow","rightarrow"],"right_color":"orange","left_color":"lightblue","left_mu":60,"right_mu":64,"left_numbers":[65,61,58,57,70,63,72,65,72,56],"right_numbers":[53,66,47,58,71,54,71,57,80,68],"points_earned":609,"phase":"task","trial_type":"horizons-task","trial_index":23,"time_elapsed":4304225,"internal_node_id":"0.0-19.0","task_version":"0.2"},{"response_times":[711.8349999655038,410.924999974668,452.95000000623986,434.7850000485778,516.025000018999,1746.0149999824353,483.8400000007823,423.01500000758097,406.8699999479577,811.0999999917112],"keys_pressed":["leftarrow","rightarrow","rightarrow","rightarrow","leftarrow","rightarrow","leftarrow","leftarrow","leftarrow","rightarrow"],"horizon":10,"forced_choices":["leftarrow","rightarrow","rightarrow","rightarrow"],"right_color":"orange","left_color":"lightblue","left_mu":60,"right_mu":48,"left_numbers":[57,46,45,54,63,54,67,72,53,62],"right_numbers":[39,36,31,46,76,55,39,38,55,43],"points_earned":523,"phase":"task","trial_type":"horizons-task","trial_index":24,"time_elapsed":4312126,"internal_node_id":"0.0-20.0","task_version":"0.2"},{"response_times":[590.9399999654852,339.16999999200925,507.72500003222376,1431.815000018105,988.8000000501052],"keys_pressed":["rightarrow","rightarrow","leftarrow","leftarrow","rightarrow"],"horizon":5,"forced_choices":["rightarrow","rightarrow","leftarrow","leftarrow"],"right_color":"orange","left_color":"lightblue","left_mu":40,"right_mu":60,"left_numbers":[26,36,46,44,32],"right_numbers":[50,71,56,67,61],"points_earned":272,"phase":"task","trial_type":"horizons-task","trial_index":25,"time_elapsed":4317490,"internal_node_id":"0.0-21.0","task_version":"0.2"},{"response_times":[559.0850000153296,366.2649999605492,545.7099999766797,463.8649999978952,1312.94999999227,598.0499999714084,538.7050000135787,381.9950000033714,469.9300000211224,418.3650000486523],"keys_pressed":["rightarrow","leftarrow","leftarrow","rightarrow","leftarrow","leftarrow","rightarrow","rightarrow","leftarrow","leftarrow"],"horizon":10,"forced_choices":["rightarrow","leftarrow","leftarrow","rightarrow"],"right_color":"lightblue","left_color":"orange","left_mu":40,"right_mu":36,"left_numbers":[31,35,49,47,44,39,39,34,44,51],"right_numbers":[33,33,29,37,26,35,36,31,29,33],"points_earned":399,"phase":"task","trial_type":"horizons-task","trial_index":26,"time_elapsed":4324653,"internal_node_id":"0.0-22.0","task_version":"0.2"},{"response_times":[633.994999981951,580.8499999693595,486.1350000137463,494.8450000374578,868.979999970179],"keys_pressed":["rightarrow","leftarrow","leftarrow","rightarrow","rightarrow"],"horizon":5,"forced_choices":["rightarrow","leftarrow","leftarrow","rightarrow"],"right_color":"lightblue","left_color":"orange","left_mu":40,"right_mu":70,"left_numbers":[31,45,33,42,33],"right_numbers":[72,76,76,72,66],"points_earned":288,"phase":"task","trial_type":"horizons-task","trial_index":27,"time_elapsed":4329223,"internal_node_id":"0.0-23.0","task_version":"0.2"},{"response_times":[463.7949999887496,395.6499999621883,603.739999991376,584.3350000213832,1089.7400000249036],"keys_pressed":["rightarrow","rightarrow","rightarrow","leftarrow","leftarrow"],"horizon":5,"forced_choices":["rightarrow","rightarrow","rightarrow","leftarrow"],"right_color":"lightblue","left_color":"orange","left_mu":60,"right_mu":30,"left_numbers":[73,50,57,61,63],"right_numbers":[37,37,42,31,27],"points_earned":240,"phase":"task","trial_type":"horizons-task","trial_index":28,"time_elapsed":4333868,"internal_node_id":"0.0-24.0","task_version":"0.2"},{"response_times":[668.7249999959022,614.7049999563023,399.9349999940023,767.8249999880791,929.1599999996834],"keys_pressed":["leftarrow","rightarrow","rightarrow","rightarrow","leftarrow"],"horizon":5,"forced_choices":["leftarrow","rightarrow","rightarrow","rightarrow"],"right_color":"lightblue","left_color":"orange","left_mu":40,"right_mu":36,"left_numbers":[35,42,40,37,37],"right_numbers":[26,33,40,32,20],"points_earned":177,"phase":"task","trial_type":"horizons-task","trial_index":29,"time_elapsed":4338754,"internal_node_id":"0.0-25.0","task_version":"0.2"},{"response_times":[500.8649999508634,470.94999998807907,528.9650000049733,523.9450000226498,2384.8800000268966,972.9350000270642,562.270000053104,551.6400000196882,941.8949999962933,416.12499998882413],"keys_pressed":["rightarrow","leftarrow","rightarrow","rightarrow","leftarrow","leftarrow","rightarrow","rightarrow","leftarrow","rightarrow"],"horizon":10,"forced_choices":["rightarrow","leftarrow","rightarrow","rightarrow"],"right_color":"orange","left_color":"lightblue","left_mu":60,"right_mu":68,"left_numbers":[73,56,56,68,64,59,55,63,51,61],"right_numbers":[58,72,71,64,59,67,61,60,77,66],"points_earned":610,"phase":"task","trial_type":"horizons-task","trial_index":30,"time_elapsed":4348112,"internal_node_id":"0.0-26.0","task_version":"0.2"},{"response_times":[483.2600000081584,390.84000000730157,500.8549999911338,702.0550000015646,1364.9949999526143,740.9750000224449,574.7199999750592,492.9350000456907,681.9450000184588,634.9300000001676],"keys_pressed":["rightarrow","rightarrow","leftarrow","leftarrow","rightarrow","rightarrow","leftarrow","rightarrow","rightarrow","rightarrow"],"horizon":10,"forced_choices":["rightarrow","rightarrow","leftarrow","leftarrow"],"right_color":"orange","left_color":"lightblue","left_mu":60,"right_mu":90,"left_numbers":[65,71,56,68,46,53,63,57,58,59],"right_numbers":[88,88,82,101,101,89,86,95,101,87],"points_earned":836,"phase":"task","trial_type":"horizons-task","trial_index":31,"time_elapsed":4356187,"internal_node_id":"0.0-27.0","task_version":"0.2"},{"response_times":[666.5500000235625,394.75999999558553,393.96999997552484,559.8899999749847,1363.0899999989197,1011.5250000380911,555.1049999776296,850.9700000286102,608.9650000212714,803.8300000480376],"keys_pressed":["leftarrow","leftarrow","leftarrow","rightarrow","rightarrow","rightarrow","rightarrow","leftarrow","rightarrow","rightarrow"],"horizon":10,"forced_choices":["leftarrow","leftarrow","leftarrow","rightarrow"],"right_color":"orange","left_color":"lightblue","left_mu":40,"right_mu":60,"left_numbers":[32,38,43,36,48,23,29,61,34,47],"right_numbers":[59,67,69,65,67,63,45,51,65,50],"points_earned":529,"phase":"task","trial_type":"horizons-task","trial_index":32,"time_elapsed":4364902,"internal_node_id":"0.0-28.0","task_version":"0.2"},{"response_times":[513.745000003837,495.54999999236315,597.8950000135228,902.2500000428408,1190.9100000048056],"keys_pressed":["rightarrow","leftarrow","leftarrow","leftarrow","rightarrow"],"horizon":5,"forced_choices":["rightarrow","leftarrow","leftarrow","leftarrow"],"right_color":"orange","left_color":"lightblue","left_mu":40,"right_mu":52,"left_numbers":[43,33,46,31,31],"right_numbers":[69,48,47,37,51],"points_earned":230,"phase":"task","trial_type":"horizons-task","trial_index":33,"time_elapsed":4370107,"internal_node_id":"0.0-29.0","task_version":"0.2"},{"response_times":[480.49000004539266,519.7299999999814,539.954999985639,771.9599999836646,1167.0349999913014],"keys_pressed":["leftarrow","rightarrow","rightarrow","rightarrow","leftarrow"],"horizon":5,"forced_choices":["leftarrow","rightarrow","rightarrow","rightarrow"],"right_color":"orange","left_color":"lightblue","left_mu":60,"right_mu":48,"left_numbers":[56,72,66,84,63],"right_numbers":[47,66,44,46,51],"points_earned":275,"phase":"task","trial_type":"horizons-task","trial_index":34,"time_elapsed":4375090,"internal_node_id":"0.0-30.0","task_version":"0.2"},{"response_times":[515.8149999915622,448.67999997222796,376.02500000502914,907.7650000108406,1494.5000000298023,839.5149999996647,481.9900000002235,456.98999997694045,721.834999974817,489.8950000060722],"keys_pressed":["rightarrow","leftarrow","rightarrow","leftarrow","rightarrow","rightarrow","leftarrow","rightarrow","leftarrow","rightarrow"],"horizon":10,"forced_choices":["rightarrow","leftarrow","rightarrow","leftarrow"],"right_color":"lightblue","left_color":"orange","left_mu":40,"right_mu":48,"left_numbers":[27,34,48,39,16,48,41,35,49,30],"right_numbers":[45,40,56,45,47,57,64,26,54,33],"points_earned":427,"phase":"task","trial_type":"horizons-task","trial_index":35,"time_elapsed":4383326,"internal_node_id":"0.0-31.0","task_version":"0.2"},{"response_times":[896.0050000459887,468.894999998156,454.0500000002794,338.94000004511327,1578.8199999951757,672.9850000119768,473.92999997828156,400.0099999830127,600.0299999723211,375.9149999823421],"keys_pressed":["leftarrow","rightarrow","leftarrow","rightarrow","leftarrow","leftarrow","leftarrow","leftarrow","leftarrow","leftarrow"],"horizon":10,"forced_choices":["leftarrow","rightarrow","leftarrow","rightarrow"],"right_color":"lightblue","left_color":"orange","left_mu":60,"right_mu":40,"left_numbers":[66,68,78,60,70,51,61,67,69,44],"right_numbers":[39,35,48,44,51,39,32,51,44,31],"points_earned":585,"phase":"task","trial_type":"horizons-task","trial_index":36,"time_elapsed":4391093,"internal_node_id":"0.0-32.0","task_version":"0.2"},{"response_times":[548.1800000416115,431.9649999961257,382.9099999857135,400.8400000166148,1052.800000004936],"keys_pressed":["rightarrow","leftarrow","rightarrow","leftarrow","leftarrow"],"horizon":5,"forced_choices":["rightarrow","leftarrow","rightarrow","leftarrow"],"right_color":"lightblue","left_color":"orange","left_mu":60,"right_mu":56,"left_numbers":[60,51,54,77,58],"right_numbers":[48,68,47,64,49],"points_earned":281,"phase":"task","trial_type":"horizons-task","trial_index":37,"time_elapsed":4395417,"internal_node_id":"0.0-33.0","task_version":"0.2"},{"response_times":[468.45499996561557,403.79999997094274,480.97000003326684,664.0400000032969,356.7800000309944],"keys_pressed":["leftarrow","rightarrow","rightarrow","leftarrow","rightarrow"],"horizon":5,"forced_choices":["leftarrow","rightarrow","rightarrow","leftarrow"],"right_color":"lightblue","left_color":"orange","left_mu":60,"right_mu":80,"left_numbers":[67,58,52,67,59],"right_numbers":[78,88,73,88,62],"points_earned":357,"phase":"task","trial_type":"horizons-task","trial_index":38,"time_elapsed":4399296,"internal_node_id":"0.0-34.0","task_version":"0.2"},{"response_times":[444.164999993518,388.7150000082329,623.0799999902956,327.7300000190735,1160.9949999838136,561.0500000184402,489.8449999745935,884.8349999752827,592.7099999971688,475.29999999096617],"keys_pressed":["rightarrow","leftarrow","leftarrow","rightarrow","rightarrow","rightarrow","rightarrow","leftarrow","leftarrow","rightarrow"],"horizon":10,"forced_choices":["rightarrow","leftarrow","leftarrow","rightarrow"],"right_color":"orange","left_color":"lightblue","left_mu":60,"right_mu":64,"left_numbers":[65,49,54,60,62,67,69,60,60,45],"right_numbers":[73,62,56,68,54,64,66,55,61,70],"points_earned":618,"phase":"task","trial_type":"horizons-task","trial_index":39,"time_elapsed":4406749,"internal_node_id":"0.0-35.0","task_version":"0.2"},{"response_times":[566.3449999992736,348.8800000050105,438.91999998595566,571.8750000232831,1349.1099999519065,484.6949999919161,399.96499998960644,450.8499999647029,492.11500003002584,1303.82999998983],"keys_pressed":["leftarrow","rightarrow","rightarrow","rightarrow","rightarrow","leftarrow","leftarrow","leftarrow","rightarrow","leftarrow"],"horizon":10,"forced_choices":["leftarrow","rightarrow","rightarrow","rightarrow"],"right_color":"lightblue","left_color":"orange","left_mu":40,"right_mu":36,"left_numbers":[42,42,26,42,35,52,44,40,36,27],"right_numbers":[31,40,26,29,37,39,43,37,38,46],"points_earned":375,"phase":"task","trial_type":"horizons-task","trial_index":40,"time_elapsed":4414659,"internal_node_id":"0.0-36.0","task_version":"0.2"},{"response_times":[524.8950000386685,311.8950000498444,301.0350000113249,527.8800000087358,1348.2100000255741,856.6550000105053,438.0200000014156,378.824999963399,831.0899999924004,474.9500000034459],"keys_pressed":["rightarrow","leftarrow","rightarrow","leftarrow","rightarrow","rightarrow","leftarrow","rightarrow","rightarrow","rightarrow"],"horizon":10,"forced_choices":["rightarrow","leftarrow","rightarrow","leftarrow"],"right_color":"orange","left_color":"lightblue","left_mu":40,"right_mu":52,"left_numbers":[42,41,36,40,32,48,46,36,37,34],"right_numbers":[49,58,57,51,70,52,47,47,51,47],"points_earned":500,"phase":"task","trial_type":"horizons-task","trial_index":41,"time_elapsed":4422157,"internal_node_id":"0.0-37.0","task_version":"0.2"},{"response_times":[585.5350000201724,385.99499996053055,435.9200000180863,686.0049999668263,1280.834999983199],"keys_pressed":["leftarrow","leftarrow","rightarrow","rightarrow","leftarrow"],"horizon":5,"forced_choices":["leftarrow","leftarrow","rightarrow","rightarrow"],"right_color":"lightblue","left_color":"orange","left_mu":40,"right_mu":20,"left_numbers":[40,41,37,42,46],"right_numbers":[1,14,34,11,20],"points_earned":172,"phase":"task","trial_type":"horizons-task","trial_index":42,"time_elapsed":4427038,"internal_node_id":"0.0-38.0","task_version":"0.2"},{"response_times":[596.27499995986,437.610000022687,331.8250000011176,678.989999985788,1615.0049999705516,830.7749999803491,890.9550000098534,436.8100000428967,386.09500002348796,355.99999997066334],"keys_pressed":["leftarrow","rightarrow","leftarrow","leftarrow","leftarrow","rightarrow","rightarrow","leftarrow","leftarrow","leftarrow"],"horizon":10,"forced_choices":["leftarrow","rightarrow","leftarrow","leftarrow"],"right_color":"orange","left_color":"lightblue","left_mu":60,"right_mu":52,"left_numbers":[53,69,64,56,46,63,58,61,60,54],"right_numbers":[29,57,67,61,56,42,43,60,44,45],"points_earned":536,"phase":"task","trial_type":"horizons-task","trial_index":43,"time_elapsed":4435101,"internal_node_id":"0.0-39.0","task_version":"0.2"},{"response_times":[551.270000054501,349.0149999852292,382.8499999945052,749.0950000355951,1405.7449999963865],"keys_pressed":["rightarrow","leftarrow","rightarrow","rightarrow","rightarrow"],"horizon":5,"forced_choices":["rightarrow","leftarrow","rightarrow","rightarrow"],"right_color":"orange","left_color":"lightblue","left_mu":60,"right_mu":68,"left_numbers":[66,53,61,59,66],"right_numbers":[61,64,83,68,61],"points_earned":326,"phase":"task","trial_type":"horizons-task","trial_index":44,"time_elapsed":4440047,"internal_node_id":"0.0-40.0","task_version":"0.2"},{"response_times":[527.7200000127777,328.7899999995716,337.8900000243448,475.7300000055693,2783.7799999979325],"keys_pressed":["rightarrow","leftarrow","rightarrow","leftarrow","rightarrow"],"horizon":5,"forced_choices":["rightarrow","leftarrow","rightarrow","leftarrow"],"right_color":"lightblue","left_color":"orange","left_mu":40,"right_mu":48,"left_numbers":[44,39,58,52,45],"right_numbers":[50,53,42,63,41],"points_earned":224,"phase":"task","trial_type":"horizons-task","trial_index":45,"time_elapsed":4446003,"internal_node_id":"0.0-41.0","task_version":"0.2"},{"response_times":[558.164999994915,418.4450000175275,480.1549999974668,682.8349999850616,1781.9049999816343,797.9200000409037,652.170000015758,442.8499999921769,439.89500001771376,414.71500002080575],"keys_pressed":["leftarrow","leftarrow","rightarrow","leftarrow","rightarrow","leftarrow","leftarrow","leftarrow","rightarrow","leftarrow"],"horizon":10,"forced_choices":["leftarrow","leftarrow","rightarrow","leftarrow"],"right_color":"lightblue","left_color":"orange","left_mu":60,"right_mu":40,"left_numbers":[66,55,50,50,69,55,65,50,67,55],"right_numbers":[33,49,39,45,32,40,38,36,37,35],"points_earned":504,"phase":"task","trial_type":"horizons-task","trial_index":46,"time_elapsed":4454177,"internal_node_id":"0.0-42.0","task_version":"0.2"},{"response_times":[575.8149999892339,407.99000003607944,493.89500002143905,714.9949999875389,1209.1749999672174],"keys_pressed":["leftarrow","rightarrow","rightarrow","rightarrow","rightarrow"],"horizon":5,"forced_choices":["leftarrow","rightarrow","rightarrow","rightarrow"],"right_color":"lightblue","left_color":"orange","left_mu":40,"right_mu":70,"left_numbers":[30,37,43,48,35],"right_numbers":[82,76,66,72,72],"points_earned":316,"phase":"task","trial_type":"horizons-task","trial_index":47,"time_elapsed":4459082,"internal_node_id":"0.0-43.0","task_version":"0.2"},{"response_times":[568.7200000393204,442.00999999884516,456.67499996488914,445.96500002080575,1623.2399999862537,563.4800000116229,437.1099999989383,500.9000000427477,438.05500003509223,1238.7899999739602],"keys_pressed":["leftarrow","leftarrow","rightarrow","leftarrow","rightarrow","rightarrow","leftarrow","leftarrow","rightarrow","rightarrow"],"horizon":10,"forced_choices":["leftarrow","leftarrow","rightarrow","leftarrow"],"right_color":"orange","left_color":"lightblue","left_mu":60,"right_mu":72,"left_numbers":[58,65,78,60,56,57,67,60,51,60],"right_numbers":[58,65,78,66,81,78,71,70,67,75],"points_earned":689,"phase":"task","trial_type":"horizons-task","trial_index":48,"time_elapsed":4467302,"internal_node_id":"0.0-44.0","task_version":"0.2"},{"response_times":[607.480000006035,420.86000001290813,400.1149999676272,354.73500000080094,1915.8750000060536,407.98499999800697,495.03499997081235,463.8649999978952,414.1700000036508,361.6500000352971],"keys_pressed":["leftarrow","rightarrow","rightarrow","rightarrow","leftarrow","rightarrow","rightarrow","rightarrow","rightarrow","rightarrow"],"horizon":10,"forced_choices":["leftarrow","rightarrow","rightarrow","rightarrow"],"right_color":"lightblue","left_color":"orange","left_mu":40,"right_mu":70,"left_numbers":[45,30,52,38,45,49,48,56,38,51],"right_numbers":[59,70,68,74,66,60,53,79,71,70],"points_earned":635,"phase":"task","trial_type":"horizons-task","trial_index":49,"time_elapsed":4474651,"internal_node_id":"0.0-45.0","task_version":"0.2"},{"response_times":[764.6599999861792,338.04499998223037,759.8749999888241,514.0949999913573,1770.7350000273436],"keys_pressed":["leftarrow","rightarrow","rightarrow","leftarrow","rightarrow"],"horizon":5,"forced_choices":["leftarrow","rightarrow","rightarrow","leftarrow"],"right_color":"orange","left_color":"lightblue","left_mu":40,"right_mu":44,"left_numbers":[40,35,43,43,58],"right_numbers":[38,46,43,46,40],"points_earned":212,"phase":"task","trial_type":"horizons-task","trial_index":50,"time_elapsed":4480306,"internal_node_id":"0.0-46.0","task_version":"0.2"},{"view_history":"[{\"page_index\":0,\"viewing_time\":2710.6900000362657},{\"page_index\":1,\"viewing_time\":2009.0999999665655}]","rt":4720.490000036079,"trial_type":"instructions","trial_index":51,"time_elapsed":4485028,"internal_node_id":"0.0-47.0","task_version":"0.2"},{"response_times":[977.05499996664,408.77500001806766,591.7750000371598,541.0249999840744,846.8200000352226],"keys_pressed":["leftarrow","leftarrow","rightarrow","leftarrow","leftarrow"],"horizon":5,"forced_choices":["leftarrow","leftarrow","rightarrow","leftarrow"],"right_color":"lightblue","left_color":"orange","left_mu":60,"right_mu":40,"left_numbers":[63,61,45,58,77],"right_numbers":[50,48,33,36,56],"points_earned":292,"phase":"task","trial_type":"horizons-task","trial_index":52,"time_elapsed":4489907,"internal_node_id":"0.0-48.0","task_version":"0.2"},{"response_times":[452.52499997150153,481.83499998413026,451.0849999496713,357.7400000067428,1421.280000009574,564.760000037495,551.9199999980628,405.5050000315532,364.194999972824,417.01000003376976],"keys_pressed":["rightarrow","rightarrow","leftarrow","rightarrow","rightarrow","rightarrow","leftarrow","rightarrow","rightarrow","rightarrow"],"horizon":10,"forced_choices":["rightarrow","rightarrow","leftarrow","rightarrow"],"right_color":"orange","left_color":"lightblue","left_mu":40,"right_mu":44,"left_numbers":[40,39,47,43,43,49,38,38,41,50],"right_numbers":[45,42,50,56,49,67,39,39,48,47],"points_earned":478,"phase":"task","trial_type":"horizons-task","trial_index":53,"time_elapsed":4496879,"internal_node_id":"0.0-49.0","task_version":"0.2"},{"response_times":[557.059999962803,417.989999987185,418.87499997392297,555.0700000021607,1529.645000002347],"keys_pressed":["rightarrow","rightarrow","leftarrow","rightarrow","leftarrow"],"horizon":5,"forced_choices":["rightarrow","rightarrow","leftarrow","rightarrow"],"right_color":"lightblue","left_color":"orange","left_mu":40,"right_mu":20,"left_numbers":[45,39,35,40,32],"right_numbers":[23,11,24,27,18],"points_earned":128,"phase":"task","trial_type":"horizons-task","trial_index":54,"time_elapsed":4501865,"internal_node_id":"0.0-50.0","task_version":"0.2"},{"response_times":[456.6750000230968,333.95000000018626,600.0150000327267,550.7449999568053,1231.8749999976717,614.9749999749474,523.8700000336394,655.8899999945424,348.230000003241,637.2649999684654],"keys_pressed":["rightarrow","leftarrow","leftarrow","leftarrow","rightarrow","rightarrow","leftarrow","rightarrow","rightarrow","rightarrow"],"horizon":10,"forced_choices":["rightarrow","leftarrow","leftarrow","leftarrow"],"right_color":"lightblue","left_color":"orange","left_mu":60,"right_mu":80,"left_numbers":[62,57,58,65,67,64,50,66,62,83],"right_numbers":[86,92,84,76,86,77,75,86,90,83],"points_earned":738,"phase":"task","trial_type":"horizons-task","trial_index":55,"time_elapsed":4509325,"internal_node_id":"0.0-51.0","task_version":"0.2"},{"response_times":[22396.259999950416,309.9250000086613,596.8400000128895,669.060000043828,710.0250000366941],"keys_pressed":["leftarrow","rightarrow","rightarrow","leftarrow","rightarrow"],"horizon":5,"forced_choices":["leftarrow","rightarrow","rightarrow","leftarrow"],"right_color":"orange","left_color":"lightblue","left_mu":60,"right_mu":72,"left_numbers":[49,58,59,60,67],"right_numbers":[62,73,75,72,75],"points_earned":332,"phase":"task","trial_type":"horizons-task","trial_index":56,"time_elapsed":4535512,"internal_node_id":"0.0-52.0","task_version":"0.2"},{"response_times":[494.75499999243766,355.8150000171736,539.7900000098161,592.1199999866076,822.8799999924377],"keys_pressed":["rightarrow","rightarrow","leftarrow","leftarrow","leftarrow"],"horizon":5,"forced_choices":["rightarrow","rightarrow","leftarrow","leftarrow"],"right_color":"lightblue","left_color":"orange","left_mu":40,"right_mu":10,"left_numbers":[36,34,31,37,48],"right_numbers":[0,0,14,0,7],"points_earned":116,"phase":"task","trial_type":"horizons-task","trial_index":57,"time_elapsed":4539825,"internal_node_id":"0.0-53.0","task_version":"0.2"},{"response_times":[579.7000000020489,379.8600000445731,358.94499998539686,583.0849999911152,573.7850000150502],"keys_pressed":["leftarrow","leftarrow","rightarrow","rightarrow","leftarrow"],"horizon":5,"forced_choices":["leftarrow","leftarrow","rightarrow","rightarrow"],"right_color":"orange","left_color":"lightblue","left_mu":40,"right_mu":28,"left_numbers":[28,43,31,41,36],"right_numbers":[25,30,19,37,31],"points_earned":163,"phase":"task","trial_type":"horizons-task","trial_index":58,"time_elapsed":4543807,"internal_node_id":"0.0-54.0","task_version":"0.2"},{"response_times":[509.215000027325,286.75500000827014,297.954999958165,532.0849999552593,68.8300000037998,2796.9600000069477,313.85500001488253,246.87500001164153,611.9649999891408,318.8650000374764],"keys_pressed":["leftarrow","rightarrow","leftarrow","leftarrow","leftarrow","rightarrow","rightarrow","rightarrow","leftarrow","rightarrow"],"horizon":10,"forced_choices":["leftarrow","rightarrow","leftarrow","leftarrow"],"right_color":"lightblue","left_color":"orange","left_mu":40,"right_mu":48,"left_numbers":[29,23,30,39,32,31,50,44,38,49],"right_numbers":[54,53,47,55,37,50,40,33,59,37],"points_earned":381,"phase":"task","trial_type":"horizons-task","trial_index":59,"time_elapsed":4551293,"internal_node_id":"0.0-55.0","task_version":"0.2"},{"response_times":[497.1000000368804,362.6149999909103,333.08500004932284,1073.8400000263937,1315.7800000044517],"keys_pressed":["leftarrow","rightarrow","leftarrow","leftarrow","leftarrow"],"horizon":5,"forced_choices":["leftarrow","rightarrow","leftarrow","leftarrow"],"right_color":"orange","left_color":"lightblue","left_mu":60,"right_mu":52,"left_numbers":[58,52,60,72,72],"right_numbers":[46,55,58,59,65],"points_earned":317,"phase":"task","trial_type":"horizons-task","trial_index":60,"time_elapsed":4556381,"internal_node_id":"0.0-56.0","task_version":"0.2"},{"response_times":[2422.2000000299886,338.3550000144169,326.0899999877438,329.7799999709241,1246.9200000050478],"keys_pressed":["leftarrow","rightarrow","leftarrow","rightarrow","leftarrow"],"horizon":5,"forced_choices":["leftarrow","rightarrow","leftarrow","rightarrow"],"right_color":"lightblue","left_color":"orange","left_mu":60,"right_mu":40,"left_numbers":[66,58,80,78,58],"right_numbers":[40,45,39,18,33],"points_earned":267,"phase":"task","trial_type":"horizons-task","trial_index":61,"time_elapsed":4562548,"internal_node_id":"0.0-57.0","task_version":"0.2"},{"response_times":[582.3099999688566,358.7299999780953,715.0499999988824,554.6000000322238,1159.1300000436604],"keys_pressed":["rightarrow","leftarrow","leftarrow","leftarrow","rightarrow"],"horizon":5,"forced_choices":["rightarrow","leftarrow","leftarrow","leftarrow"],"right_color":"lightblue","left_color":"orange","left_mu":60,"right_mu":80,"left_numbers":[50,57,51,66,47],"right_numbers":[89,71,70,70,71],"points_earned":334,"phase":"task","trial_type":"horizons-task","trial_index":62,"time_elapsed":4567422,"internal_node_id":"0.0-58.0","task_version":"0.2"},{"response_times":[485.625000030268,369.9199999682605,436.9999999762513,431.85500003164634,1557.8850000165403],"keys_pressed":["leftarrow","leftarrow","rightarrow","leftarrow","rightarrow"],"horizon":5,"forced_choices":["leftarrow","leftarrow","rightarrow","leftarrow"],"right_color":"orange","left_color":"lightblue","left_mu":60,"right_mu":72,"left_numbers":[60,53,60,85,59],"right_numbers":[76,71,83,67,70],"points_earned":351,"phase":"task","trial_type":"horizons-task","trial_index":63,"time_elapsed":4572212,"internal_node_id":"0.0-59.0","task_version":"0.2"},{"response_times":[525.5299999844283,570.0850000139326,538.7750000227243,424.5050000026822,1288.349999987986,635.6849999865517,511.96500001242384,346.61999996751547,376.41999998595566,255.12499996693805],"keys_pressed":["leftarrow","rightarrow","rightarrow","leftarrow","rightarrow","rightarrow","leftarrow","rightarrow","rightarrow","rightarrow"],"horizon":10,"forced_choices":["leftarrow","rightarrow","rightarrow","leftarrow"],"right_color":"orange","left_color":"lightblue","left_mu":60,"right_mu":72,"left_numbers":[68,68,46,54,58,41,58,51,51,44],"right_numbers":[78,77,61,71,82,78,70,66,70,60],"points_earned":674,"phase":"task","trial_type":"horizons-task","trial_index":64,"time_elapsed":4579190,"internal_node_id":"0.0-60.0","task_version":"0.2"},{"response_times":[522.7150000282563,331.7399999941699,699.9749999959022,656.0349999926984,1533.7500000023283],"keys_pressed":["rightarrow","leftarrow","leftarrow","leftarrow","leftarrow"],"horizon":5,"forced_choices":["rightarrow","leftarrow","leftarrow","leftarrow"],"right_color":"lightblue","left_color":"orange","left_mu":40,"right_mu":32,"left_numbers":[47,44,47,27,50],"right_numbers":[21,27,34,18,43],"points_earned":189,"phase":"task","trial_type":"horizons-task","trial_index":65,"time_elapsed":4584437,"internal_node_id":"0.0-61.0","task_version":"0.2"},{"response_times":[523.3199999784119,307.0900000166148,613.7299999827519,342.92500000447035,1306.9300000206567,569.0949999843724,294.6599999559112,507.0399999967776,338.8249999843538,362.18499997630715],"keys_pressed":["rightarrow","leftarrow","leftarrow","rightarrow","rightarrow","rightarrow","rightarrow","rightarrow","leftarrow","rightarrow"],"horizon":10,"forced_choices":["rightarrow","leftarrow","leftarrow","rightarrow"],"right_color":"lightblue","left_color":"orange","left_mu":40,"right_mu":70,"left_numbers":[44,43,34,20,45,34,39,54,32,48],"right_numbers":[73,65,76,79,83,67,64,72,61,71],"points_earned":618,"phase":"task","trial_type":"horizons-task","trial_index":66,"time_elapsed":4591108,"internal_node_id":"0.0-62.0","task_version":"0.2"},{"response_times":[649.1150000365451,489.7750000236556,439.17000002693385,489.7800000035204,488.9700000057928,2224.225000012666,467.84500003559515,233.8350000209175,180.9650000068359,431.7799999844283],"keys_pressed":["rightarrow","rightarrow","rightarrow","leftarrow","leftarrow","rightarrow","leftarrow","leftarrow","leftarrow","leftarrow"],"horizon":10,"forced_choices":["rightarrow","rightarrow","rightarrow","leftarrow"],"right_color":"lightblue","left_color":"orange","left_mu":60,"right_mu":30,"left_numbers":[63,59,66,70,51,66,57,42,51,65],"right_numbers":[26,46,33,29,36,29,33,9,10,29],"points_earned":470,"phase":"task","trial_type":"horizons-task","trial_index":67,"time_elapsed":4598706,"internal_node_id":"0.0-63.0","task_version":"0.2"},{"response_times":[442.1849999926053,588.7349999975413,420.7300000125542,490.20000000018626,983.8750000344589,508.06500000180677,450.78999997349456,382.09500000812113,348.7049999530427,401.86500002164394],"keys_pressed":["rightarrow","rightarrow","leftarrow","leftarrow","rightarrow","rightarrow","leftarrow","rightarrow","rightarrow","rightarrow"],"horizon":10,"forced_choices":["rightarrow","rightarrow","leftarrow","leftarrow"],"right_color":"orange","left_color":"lightblue","left_mu":40,"right_mu":60,"left_numbers":[51,55,32,43,42,48,42,41,40,44],"right_numbers":[59,71,46,56,55,69,54,56,40,59],"points_earned":526,"phase":"task","trial_type":"horizons-task","trial_index":68,"time_elapsed":4605231,"internal_node_id":"0.0-64.0","task_version":"0.2"},{"response_times":[464.6900000516325,493.4749999665655,466.35000000242144,515.8500000252388,1576.0049999807961],"keys_pressed":["leftarrow","leftarrow","leftarrow","rightarrow","leftarrow"],"horizon":5,"forced_choices":["leftarrow","leftarrow","leftarrow","rightarrow"],"right_color":"orange","left_color":"lightblue","left_mu":40,"right_mu":28,"left_numbers":[45,39,45,43,40],"right_numbers":[22,29,20,42,18],"points_earned":211,"phase":"task","trial_type":"horizons-task","trial_index":69,"time_elapsed":4610253,"internal_node_id":"0.0-65.0","task_version":"0.2"},{"response_times":[540.259999979753,295.86999997263774,381.0949999606237,384.9749999935739,1568.6550000100397,536.9649999774992,344.94000003905967,813.8449999969453,350.9900000062771,647.9200000176206],"keys_pressed":["leftarrow","rightarrow","leftarrow","rightarrow","leftarrow","leftarrow","rightarrow","leftarrow","leftarrow","leftarrow"],"horizon":10,"forced_choices":["leftarrow","rightarrow","leftarrow","rightarrow"],"right_color":"orange","left_color":"lightblue","left_mu":60,"right_mu":52,"left_numbers":[69,70,59,54,76,64,56,70,63,58],"right_numbers":[51,54,57,52,55,40,61,44,58,59],"points_earned":626,"phase":"task","trial_type":"horizons-task","trial_index":70,"time_elapsed":4617625,"internal_node_id":"0.0-66.0","task_version":"0.2"},{"response_times":[455.66500001586974,313.7950000236742,440.8599999733269,400.9500000393018,1174.959999974817,548.8500000210479,509.05000005150214,712.8300000331365,544.9350000126287,250.01499999780208],"keys_pressed":["rightarrow","leftarrow","leftarrow","leftarrow","rightarrow","rightarrow","rightarrow","leftarrow","rightarrow","rightarrow"],"horizon":10,"forced_choices":["rightarrow","leftarrow","leftarrow","leftarrow"],"right_color":"orange","left_color":"lightblue","left_mu":40,"right_mu":52,"left_numbers":[38,48,38,30,36,29,48,38,40,45],"right_numbers":[48,49,46,48,55,48,46,58,53,40],"points_earned":444,"phase":"task","trial_type":"horizons-task","trial_index":71,"time_elapsed":4624481,"internal_node_id":"0.0-67.0","task_version":"0.2"},{"response_times":[453.54000001680106,311.8850000319071,468.7600000179373,431.064999953378,1940.0400000158697],"keys_pressed":["leftarrow","rightarrow","leftarrow","rightarrow","leftarrow"],"horizon":5,"forced_choices":["leftarrow","rightarrow","leftarrow","rightarrow"],"right_color":"lightblue","left_color":"orange","left_mu":40,"right_mu":32,"left_numbers":[64,16,29,42,33],"right_numbers":[29,35,52,47,38],"points_earned":208,"phase":"task","trial_type":"horizons-task","trial_index":72,"time_elapsed":4629590,"internal_node_id":"0.0-68.0","task_version":"0.2"},{"response_times":[444.17000003159046,336.9700000039302,512.8749999566935,477.8999999980442,2924.089999985881],"keys_pressed":["leftarrow","rightarrow","leftarrow","rightarrow","leftarrow"],"horizon":5,"forced_choices":["leftarrow","rightarrow","leftarrow","rightarrow"],"right_color":"orange","left_color":"lightblue","left_mu":60,"right_mu":52,"left_numbers":[62,61,42,76,51],"right_numbers":[47,49,61,57,46],"points_earned":261,"phase":"task","trial_type":"horizons-task","trial_index":73,"time_elapsed":4635789,"internal_node_id":"0.0-69.0","task_version":"0.2"},{"response_times":[434.7150000394322,354.9599999678321,328.81500001531094,452.0949999568984,1091.164999990724],"keys_pressed":["rightarrow","leftarrow","rightarrow","leftarrow","leftarrow"],"horizon":5,"forced_choices":["rightarrow","leftarrow","rightarrow","leftarrow"],"right_color":"orange","left_color":"lightblue","left_mu":40,"right_mu":52,"left_numbers":[45,60,41,60,42],"right_numbers":[51,47,51,54,56],"points_earned":264,"phase":"task","trial_type":"horizons-task","trial_index":74,"time_elapsed":4639958,"internal_node_id":"0.0-70.0","task_version":"0.2"},{"response_times":[412.2300000162795,373.02500003715977,526.9850000040606,408.06499996688217,1591.6450000368059],"keys_pressed":["rightarrow","leftarrow","leftarrow","rightarrow","leftarrow"],"horizon":5,"forced_choices":["rightarrow","leftarrow","leftarrow","rightarrow"],"right_color":"orange","left_color":"lightblue","left_mu":60,"right_mu":48,"left_numbers":[70,65,68,40,62],"right_numbers":[29,52,43,29,50],"points_earned":253,"phase":"task","trial_type":"horizons-task","trial_index":75,"time_elapsed":4644775,"internal_node_id":"0.0-71.0","task_version":"0.2"},{"response_times":[451.38499996392056,333.1449999823235,598.0250000138767,391.5900000138208,1220.7799999741837],"keys_pressed":["rightarrow","leftarrow","leftarrow","rightarrow","rightarrow"],"horizon":5,"forced_choices":["rightarrow","leftarrow","leftarrow","rightarrow"],"right_color":"orange","left_color":"lightblue","left_mu":60,"right_mu":64,"left_numbers":[62,57,49,59,57],"right_numbers":[58,55,58,66,54],"points_earned":284,"phase":"task","trial_type":"horizons-task","trial_index":76,"time_elapsed":4649275,"internal_node_id":"0.0-72.0","task_version":"0.2"},{"response_times":[415.55000003427267,311.7550000315532,361.8700000224635,1801.999999966938,1081.899999990128],"keys_pressed":["rightarrow","leftarrow","rightarrow","rightarrow","rightarrow"],"horizon":5,"forced_choices":["rightarrow","leftarrow","rightarrow","rightarrow"],"right_color":"orange","left_color":"lightblue","left_mu":60,"right_mu":64,"left_numbers":[41,53,70,55,66],"right_numbers":[74,67,54,68,57],"points_earned":306,"phase":"task","trial_type":"horizons-task","trial_index":77,"time_elapsed":4654755,"internal_node_id":"0.0-73.0","task_version":"0.2"},{"response_times":[420.9899999550544,325.84499998483807,271.8950000125915,381.7249999847263,1611.0150000313297,404.90500000305474,1218.9150000340305,561.1600000411272,645.749999966938,325.9649999672547],"keys_pressed":["rightarrow","leftarrow","rightarrow","leftarrow","leftarrow","rightarrow","leftarrow","rightarrow","leftarrow","leftarrow"],"horizon":10,"forced_choices":["rightarrow","leftarrow","rightarrow","leftarrow"],"right_color":"lightblue","left_color":"orange","left_mu":60,"right_mu":56,"left_numbers":[53,52,46,60,53,59,51,53,65,60],"right_numbers":[62,58,50,54,57,40,62,54,40,55],"points_earned":547,"phase":"task","trial_type":"horizons-task","trial_index":78,"time_elapsed":4662429,"internal_node_id":"0.0-74.0","task_version":"0.2"},{"response_times":[756.1950000235811,330.8050000341609,469.09000002779067,638.959999952931,942.8150000167079],"keys_pressed":["leftarrow","rightarrow","leftarrow","leftarrow","leftarrow"],"horizon":5,"forced_choices":["leftarrow","rightarrow","leftarrow","leftarrow"],"right_color":"lightblue","left_color":"orange","left_mu":40,"right_mu":48,"left_numbers":[31,41,40,54,42],"right_numbers":[54,36,51,50,37],"points_earned":203,"phase":"task","trial_type":"horizons-task","trial_index":79,"time_elapsed":4667073,"internal_node_id":"0.0-75.0","task_version":"0.2"},{"response_times":[547.1949999919161,490.79499999061227,444.89500002237037,466.9700000085868,1611.0350000089966,573.6900000483729,362.1399999829009,222.95500000473112,386.82000001426786,447.165000019595],"keys_pressed":["leftarrow","leftarrow","rightarrow","rightarrow","leftarrow","leftarrow","leftarrow","leftarrow","rightarrow","leftarrow"],"horizon":10,"forced_choices":["leftarrow","leftarrow","rightarrow","rightarrow"],"right_color":"orange","left_color":"lightblue","left_mu":40,"right_mu":28,"left_numbers":[31,38,43,36,44,42,33,46,28,39],"right_numbers":[26,30,31,20,27,23,17,16,32,22],"points_earned":356,"phase":"task","trial_type":"horizons-task","trial_index":80,"time_elapsed":4674132,"internal_node_id":"0.0-76.0","task_version":"0.2"},{"response_times":[730.1100000040606,400.53500002250075,396.0250000236556,332.0299999904819,1417.6950000110082,404.065000009723,378.5649999626912,365.54999998770654,217.7450000308454,359.92499999701977],"keys_pressed":["leftarrow","leftarrow","rightarrow","rightarrow","leftarrow","leftarrow","rightarrow","leftarrow","leftarrow","leftarrow"],"horizon":10,"forced_choices":["leftarrow","leftarrow","rightarrow","rightarrow"],"right_color":"lightblue","left_color":"orange","left_mu":60,"right_mu":30,"left_numbers":[72,66,77,52,65,66,55,65,65,65],"right_numbers":[25,20,30,55,36,34,25,22,27,24],"points_earned":574,"phase":"task","trial_type":"horizons-task","trial_index":81,"time_elapsed":4680637,"internal_node_id":"0.0-77.0","task_version":"0.2"},{"response_times":[496.13500002305955,454.67999996617436,426.160000031814,599.2100000148639,1640.3700000373647,382.1250000037253,454.76499997312203,515.9850000054576,188.07999999262393,439.7150000440888],"keys_pressed":["rightarrow","rightarrow","leftarrow","rightarrow","leftarrow","leftarrow","rightarrow","leftarrow","leftarrow","leftarrow"],"horizon":10,"forced_choices":["rightarrow","rightarrow","leftarrow","rightarrow"],"right_color":"lightblue","left_color":"orange","left_mu":40,"right_mu":20,"left_numbers":[48,44,45,36,34,45,28,37,56,40],"right_numbers":[21,12,34,12,17,20,1,27,7,28],"points_earned":303,"phase":"task","trial_type":"horizons-task","trial_index":82,"time_elapsed":4687739,"internal_node_id":"0.0-78.0","task_version":"0.2"},{"response_times":[523.250000027474,452.7399999788031,363.0199999897741,702.9500000062399,1342.754999990575],"keys_pressed":["leftarrow","leftarrow","rightarrow","rightarrow","leftarrow"],"horizon":5,"forced_choices":["leftarrow","leftarrow","rightarrow","rightarrow"],"right_color":"lightblue","left_color":"orange","left_mu":60,"right_mu":30,"left_numbers":[59,64,66,64,53],"right_numbers":[32,33,20,36,27],"points_earned":232,"phase":"task","trial_type":"horizons-task","trial_index":83,"time_elapsed":4692627,"internal_node_id":"0.0-79.0","task_version":"0.2"},{"response_times":[555.1099999574944,301.66999995708466,312.19500000588596,456.70999999856576,1291.0699999774806,503.7849999498576,349.01999996509403,192.9799999925308,738.8800000189804,394.89499997580424],"keys_pressed":["rightarrow","rightarrow","rightarrow","leftarrow","leftarrow","leftarrow","leftarrow","leftarrow","rightarrow","leftarrow"],"horizon":10,"forced_choices":["rightarrow","rightarrow","rightarrow","leftarrow"],"right_color":"lightblue","left_color":"orange","left_mu":40,"right_mu":10,"left_numbers":[31,32,37,51,29,50,21,33,49,39],"right_numbers":[22,3,21,0,10,13,9,30,14,12],"points_earned":283,"phase":"task","trial_type":"horizons-task","trial_index":84,"time_elapsed":4699227,"internal_node_id":"0.0-80.0","task_version":"0.2"},{"response_times":[455.39999997708946,665.1100000017323,609.6900000120513,572.1349999657832,1042.8549999487586,587.9750000312924,537.125000031665,586.5650000050664,710.07999998983,501.9200000097044],"keys_pressed":["leftarrow","leftarrow","rightarrow","leftarrow","leftarrow","leftarrow","leftarrow","leftarrow","rightarrow","rightarrow"],"horizon":10,"forced_choices":["leftarrow","leftarrow","rightarrow","leftarrow"],"right_color":"lightblue","left_color":"orange","left_mu":60,"right_mu":56,"left_numbers":[58,58,60,64,62,57,54,50,68,67],"right_numbers":[46,47,64,47,76,59,49,64,49,62],"points_earned":578,"phase":"task","trial_type":"horizons-task","trial_index":85,"time_elapsed":4707000,"internal_node_id":"0.0-81.0","task_version":"0.2"},{"response_times":[454.21499997610226,469.8050000006333,380.0650000339374,385.89000003412366,1346.8599999905564,395.94499999657273,414.0250000054948,544.835000007879,236.0299999709241,561.9749999605119],"keys_pressed":["leftarrow","rightarrow","leftarrow","rightarrow","leftarrow","leftarrow","rightarrow","leftarrow","leftarrow","rightarrow"],"horizon":10,"forced_choices":["leftarrow","rightarrow","leftarrow","rightarrow"],"right_color":"lightblue","left_color":"orange","left_mu":40,"right_mu":32,"left_numbers":[38,37,37,52,47,34,57,25,29,46],"right_numbers":[34,38,42,26,32,24,25,36,21,30],"points_earned":329,"phase":"task","trial_type":"horizons-task","trial_index":86,"time_elapsed":4713694,"internal_node_id":"0.0-82.0","task_version":"0.2"},{"response_times":[416.315000038594,704.5400000060908,522.6850000326522,361.40499997418374,1078.4550000098534,409.2149999924004,351.7899999860674,177.1450000233017,351.7299999948591,391.0650000325404],"keys_pressed":["leftarrow","leftarrow","rightarrow","rightarrow","leftarrow","leftarrow","leftarrow","leftarrow","leftarrow","leftarrow"],"horizon":10,"forced_choices":["leftarrow","leftarrow","rightarrow","rightarrow"],"right_color":"lightblue","left_color":"orange","left_mu":40,"right_mu":20,"left_numbers":[41,49,33,44,44,40,40,49,39,38],"right_numbers":[11,16,21,15,18,16,12,20,20,32],"points_earned":376,"phase":"task","trial_type":"horizons-task","trial_index":87,"time_elapsed":4719963,"internal_node_id":"0.0-83.0","task_version":"0.2"},{"response_times":[560.9050000202842,400.9500000393018,619.8849999927916,956.8050000234507,571.1450000526384],"keys_pressed":["rightarrow","rightarrow","leftarrow","rightarrow","rightarrow"],"horizon":5,"forced_choices":["rightarrow","rightarrow","leftarrow","rightarrow"],"right_color":"orange","left_color":"lightblue","left_mu":60,"right_mu":90,"left_numbers":[47,62,69,57,77],"right_numbers":[106,93,90,87,105],"points_earned":460,"phase":"task","trial_type":"horizons-task","trial_index":88,"time_elapsed":4724577,"internal_node_id":"0.0-84.0","task_version":"0.2"},{"response_times":[441.530000010971,418.62999997101724,395.9749999921769,640.8550000051036,1378.919999988284],"keys_pressed":["leftarrow","leftarrow","rightarrow","leftarrow","leftarrow"],"horizon":5,"forced_choices":["leftarrow","leftarrow","rightarrow","leftarrow"],"right_color":"lightblue","left_color":"orange","left_mu":60,"right_mu":56,"left_numbers":[56,56,68,65,62],"right_numbers":[51,58,52,48,67],"points_earned":291,"phase":"task","trial_type":"horizons-task","trial_index":89,"time_elapsed":4729356,"internal_node_id":"0.0-85.0","task_version":"0.2"},{"response_times":[519.8199999867938,353.9949999540113,520.0399999739602,504.929999995511,1378.8599999970756,454.7650000313297,831.0850000125356,480.8349999948405,501.90499995369464,461.2999999662861],"keys_pressed":["leftarrow","leftarrow","leftarrow","rightarrow","leftarrow","rightarrow","rightarrow","leftarrow","leftarrow","leftarrow"],"horizon":10,"forced_choices":["leftarrow","leftarrow","leftarrow","rightarrow"],"right_color":"orange","left_color":"lightblue","left_mu":40,"right_mu":28,"left_numbers":[36,47,34,36,39,26,34,35,40,45],"right_numbers":[20,42,19,34,17,30,27,27,40,40],"points_earned":367,"phase":"task","trial_type":"horizons-task","trial_index":90,"time_elapsed":4736868,"internal_node_id":"0.0-86.0","task_version":"0.2"},{"response_times":[567.4850000068545,526.975000044331,552.9499999829568,494.9650000198744,1631.0050000320189],"keys_pressed":["rightarrow","rightarrow","leftarrow","rightarrow","rightarrow"],"horizon":5,"forced_choices":["rightarrow","rightarrow","leftarrow","rightarrow"],"right_color":"orange","left_color":"lightblue","left_mu":40,"right_mu":44,"left_numbers":[41,33,44,59,56],"right_numbers":[51,36,50,37,46],"points_earned":214,"phase":"task","trial_type":"horizons-task","trial_index":91,"time_elapsed":4742145,"internal_node_id":"0.0-87.0","task_version":"0.2"},{"rt":11061.204999976326,"responses":{"age":"21","gender-categorical":"Female","gender-free-response":"","ethnicity":"Not Hispanic or Latino","race":["White"],"language":"Yes","fluency":"Very well"},"survey":"demographics","trial_type":"survey-demo","trial_index":92,"time_elapsed":4753210,"internal_node_id":"0.0-88.0","task_version":"0.2"},{"rt":8355.225000006612,"responses":{"difficulty":"5","fun":"4","clarity":"5","strategy":"no","feedback":""},"survey":"debrief","trial_type":"survey-debrief","trial_index":93,"time_elapsed":4761572,"internal_node_id":"0.0-89.0","task_version":"0.2","interactions":"[{\"event\":\"blur\",\"trial\":4,\"time\":304184},{\"event\":\"focus\",\"trial\":4,\"time\":4172020}]"}]