[{"view_history":"[{\"page_index\":0,\"viewing_time\":2579.2699999874458}]","rt":2579.634999972768,"trial_type":"instructions","trial_index":0,"time_elapsed":2587,"internal_node_id":"0.0-0.0","task_version":"0.2"},{"item_order":[14,15,11,8,7,1,12,13,4,0,10,6,3,5,9,2],"responses":{"Q15":"4","Q16":"5","Q12":"3","Q09":"1","Q08":"2","Q02":"0","Q13":"3","Q14":"2","Q05":"1","Q01":"3","Q11":"2","Q07":"4","Q04":"3","Q06":"3","Q10":"4","Q03":"2"},"radio_events":[5331.804999965243,7067.674999940209,10603.859999915585,12747.969999909401,23069.069999968633,25147.750000003725,27979.449999984354,29755.825000000186,40475.684999953955,47795.489999931306,50907.86499995738,56323.649999918416,59363.58499992639,62931.45999999251,68379.65000001714,75515.4699999839,79379.6549999388,84627.7349999873,91459.32499994524],"key_events":[],"mouse_events":[0.0849999487400055,5331.804999965243,7067.674999940209,10603.859999915585,12747.969999909401,20940.405000001192,23069.069999968633,25147.750000003725,27979.449999984354,29755.825000000186,39995.7899999572,40475.684999953955,46491.8249999173,47795.489999931306,50907.86499995738,56323.649999918416,58043.79499994684,58787.52499993425,59363.58499992639,62371.82999996003,62931.45999999251,68379.65000001714,75515.4699999839,79379.6549999388,82955.74000000488,83955.30999999028,84627.7349999873,91459.32499994524,93835.40999994148],"rt":93839.12999997847,"survey":"nfc","trial_type":"survey-template","trial_index":1,"time_elapsed":96432,"internal_node_id":"0.0-1.0","task_version":"0.2"},{"item_order":[16,4,1,11,7,12,3,2,14,10,9,8,15,0,6,5,13],"responses":{"Q17":"0","Q05":"3","Q02":"2","Q12":"2","Q08":"4","Q13":"2","Q04":"2","Q03":"4","Q15":"2","Q11":"4","Q10":"4","Q09":"2","Q16":"2","Q01":"4","Q07":"2","Q06":"3","Q14":"3"},"radio_events":[8151.1100000934675,10983.19000005722,12543.620000011288,18535.01000010874,26870.9150000941,27510.940000065602,29910.955000086688,32542.970000067726,37687.13500001468,38846.89000004437,46750.85500010755,47558.78500000108,50926.81000009179,54422.860000049695,58695.07000001613,61510.80000004731,66366.63500010036],"key_events":[],"mouse_events":[4343.210000079125,8151.1100000934675,10983.19000005722,12543.620000011288,18535.01000010874,24479.130000108853,26095.44000006281,26870.9150000941,27510.940000065602,29910.955000086688,31479.330000001937,32030.960000003688,32542.970000067726,37687.13500001468,38846.89000004437,44503.28000006266,45655.105000012554,46750.85500010755,47558.78500000108,50926.81000009179,54422.860000049695,58695.07000001613,60878.98500007577,61510.80000004731,61990.78500003088,66366.63500010036,68494.94500004221,68895.01000009477],"rt":68897.79000007547,"survey":"pswq","trial_type":"survey-template","trial_index":2,"time_elapsed":165334,"internal_node_id":"0.0-2.0","task_version":"0.2"},{"item_order":[4,2,11,8,9,7,5,10,12,0,6,3,1],"responses":{"Q05":"1","Q03":"0","Q12":"0","Q09":"1","Q10":"2","Q08":"1","Q06":"1","Q11":"0","Q13":"4","Q01":"1","Q07":"2","Q04":"2","Q02":"2"},"radio_events":[12936.349999974482,20424.06500002835,21048.160000005737,25240.37000001408,28648.705000057817,31712.290000054054,38960.12000006158,45664.08500005491,46848.42000005301,51304.04499999713,53336.37500007171,56071.974999969825,61704.00999998674,66296.11500003375],"key_events":[],"mouse_events":[12160.245000035502,12936.349999974482,20424.06500002835,21048.160000005737,25240.37000001408,28648.705000057817,31712.290000054054,38456.13499998581,38960.12000006158,44384.16000001598,45664.08500005491,46848.42000005301,51304.04499999713,53336.37500007171,55144.21499997843,56071.974999969825,57296.06500000227,61704.00999998674,66296.11500003375,67640.14000003226],"rt":67642.48999999836,"survey":"ius12","trial_type":"survey-template","trial_index":3,"time_elapsed":232981,"internal_node_id":"0.0-3.0","task_version":"0.2"},{"view_history":"[{\"page_index\":0,\"viewing_time\":4145.854999893345},{\"page_index\":1,\"viewing_time\":3647.910000057891},{\"page_index\":2,\"viewing_time\":7439.9699999485165},{\"page_index\":3,\"viewing_time\":6143.910000100732},{\"page_index\":4,\"viewing_time\":4944.144999957643},{\"page_index\":5,\"viewing_time\":3175.909999990836},{\"page_index\":6,\"viewing_time\":6144.020000007004},{\"page_index\":7,\"viewing_time\":9031.564999953844},{\"page_index\":8,\"viewing_time\":7280.365000013262},{\"page_index\":9,\"viewing_time\":7672.0750000094995}]","rt":59626.59999995958,"trial_type":"instructions","trial_index":4,"time_elapsed":292610,"internal_node_id":"0.0-4.0-0.0","task_version":"0.2"},{"response_times":[2907.0849999552593,855.210000067018,1283.7049999507144,1936.1299999291077,1287.92999999132],"keys_pressed":["rightarrow","leftarrow","rightarrow","rightarrow","leftarrow"],"horizon":5,"forced_choices":["rightarrow","leftarrow","rightarrow","rightarrow"],"right_color":"lightblue","left_color":"orange","left_mu":40,"right_mu":20,"left_numbers":[27,34,35,40,48],"right_numbers":[14,24,25,16,22],"points_earned":137,"phase":"practice","trial_type":"horizons-task","trial_index":5,"time_elapsed":302390,"internal_node_id":"0.0-4.0-1.0","task_version":"0.2"},{"response_times":[1433.2900000736117,975.7250000257045,1087.9199999617413,1255.944999982603,3335.935000097379,7624.685000046156,2023.3249999582767,1271.8699999386445,2996.034999960102,835.8650000300258],"keys_pressed":["leftarrow","leftarrow","rightarrow","rightarrow","rightarrow","rightarrow","leftarrow","leftarrow","rightarrow","rightarrow"],"horizon":10,"forced_choices":["leftarrow","leftarrow","rightarrow","rightarrow"],"right_color":"orange","left_color":"lightblue","left_mu":60,"right_mu":70,"left_numbers":[74,57,70,51,56,44,78,58,76,65],"right_numbers":[59,71,72,61,72,62,54,56,69,63],"points_earned":666,"phase":"practice","trial_type":"horizons-task","trial_index":6,"time_elapsed":326733,"internal_node_id":"0.0-4.0-2.0","task_version":"0.2"},{"view_history":"[{\"page_index\":0,\"viewing_time\":1430.765000055544},{\"page_index\":1,\"viewing_time\":4431.754999910481},{\"page_index\":2,\"viewing_time\":3560.1000000024214},{\"page_index\":3,\"viewing_time\":3031.970000010915}]","rt":12454.770000069402,"trial_type":"instructions","trial_index":7,"time_elapsed":339189,"internal_node_id":"0.0-4.0-3.0","task_version":"0.2"},{"responses":["true","false","true"],"num_errors":0,"rt":9658.950000070035,"trial_type":"horizons-comprehension","trial_index":8,"time_elapsed":348850,"internal_node_id":"0.0-4.0-4.0","task_version":"0.2"},{"trial_type":"call-function","trial_index":9,"time_elapsed":348854,"internal_node_id":"0.0-5.0","task_version":"0.2"},{"view_history":"[{\"page_index\":0,\"viewing_time\":1377.820000052452},{\"page_index\":1,\"viewing_time\":1640.224999981001}]","rt":3018.3699999470264,"trial_type":"instructions","trial_index":10,"time_elapsed":351873,"internal_node_id":"0.0-6.0","task_version":"0.2"},{"response_times":[1921.8700000783429,2711.775000090711,1119.9900000356138,728.000000002794,2416.2449999712408,4335.700000054203,2176.340000005439,2647.5349999964237,2160.189999965951,5139.779999968596],"keys_pressed":["rightarrow","leftarrow","rightarrow","leftarrow","rightarrow","rightarrow","rightarrow","rightarrow","rightarrow","leftarrow"],"horizon":10,"forced_choices":["rightarrow","leftarrow","rightarrow","leftarrow"],"right_color":"lightblue","left_color":"orange","left_mu":60,"right_mu":64,"left_numbers":[62,46,75,58,55,62,61,55,62,56],"right_numbers":[62,46,56,65,51,47,66,75,51,70],"points_earned":568,"phase":"task","trial_type":"horizons-task","trial_index":11,"time_elapsed":378737,"internal_node_id":"0.0-7.0","task_version":"0.2"},{"response_times":[3178.1000000191852,800.069999997504,487.6849999418482,903.954999987036,1183.904999983497,2009.085000026971,1334.9549999693409,2135.9550000634044,1487.8899999894202,904.4599999906495],"keys_pressed":["leftarrow","leftarrow","rightarrow","rightarrow","rightarrow","rightarrow","rightarrow","rightarrow","rightarrow","rightarrow"],"horizon":10,"forced_choices":["leftarrow","leftarrow","rightarrow","rightarrow"],"right_color":"orange","left_color":"lightblue","left_mu":40,"right_mu":48,"left_numbers":[25,40,44,47,45,34,28,41,40,55],"right_numbers":[52,44,47,45,44,51,36,40,58,61],"points_earned":447,"phase":"task","trial_type":"horizons-task","trial_index":12,"time_elapsed":394667,"internal_node_id":"0.0-8.0","task_version":"0.2"},{"response_times":[2015.914999996312,1704.0549999801442,959.8849999019876,555.8850000379607,5072.259999928065],"keys_pressed":["rightarrow","rightarrow","rightarrow","leftarrow","leftarrow"],"horizon":5,"forced_choices":["rightarrow","rightarrow","rightarrow","leftarrow"],"right_color":"lightblue","left_color":"orange","left_mu":60,"right_mu":30,"left_numbers":[58,72,53,42,56],"right_numbers":[41,42,32,33,24],"points_earned":213,"phase":"task","trial_type":"horizons-task","trial_index":13,"time_elapsed":406477,"internal_node_id":"0.0-9.0","task_version":"0.2"},{"response_times":[1305.739999981597,935.935000074096,584.0699999826029,1183.8749999878928,1255.9250000631437],"keys_pressed":["leftarrow","leftarrow","rightarrow","rightarrow","leftarrow"],"horizon":5,"forced_choices":["leftarrow","leftarrow","rightarrow","rightarrow"],"right_color":"orange","left_color":"lightblue","left_mu":60,"right_mu":40,"left_numbers":[54,64,59,50,57],"right_numbers":[35,45,47,44,37],"points_earned":266,"phase":"task","trial_type":"horizons-task","trial_index":14,"time_elapsed":413245,"internal_node_id":"0.0-10.0","task_version":"0.2"},{"response_times":[1481.9949999218807,624.1799999261275,519.994999980554,551.8049999373034,3423.9300000481308],"keys_pressed":["leftarrow","leftarrow","rightarrow","rightarrow","rightarrow"],"horizon":5,"forced_choices":["leftarrow","leftarrow","rightarrow","rightarrow"],"right_color":"orange","left_color":"lightblue","left_mu":40,"right_mu":48,"left_numbers":[42,37,24,45,43],"right_numbers":[45,56,40,50,66],"points_earned":235,"phase":"task","trial_type":"horizons-task","trial_index":15,"time_elapsed":421358,"internal_node_id":"0.0-11.0","task_version":"0.2"},{"response_times":[1928.0649999855086,767.8899999009445,551.9650001078844,631.969999987632,1320.2400000300258],"keys_pressed":["leftarrow","rightarrow","rightarrow","leftarrow","rightarrow"],"horizon":5,"forced_choices":["leftarrow","rightarrow","rightarrow","leftarrow"],"right_color":"orange","left_color":"lightblue","left_mu":40,"right_mu":60,"left_numbers":[43,24,40,38,43],"right_numbers":[65,50,60,59,60],"points_earned":251,"phase":"task","trial_type":"horizons-task","trial_index":16,"time_elapsed":428061,"internal_node_id":"0.0-12.0","task_version":"0.2"},{"response_times":[649.6849999530241,403.85000000242144,635.9449999872595,1247.8649999247864,495.9700000472367],"keys_pressed":["rightarrow","rightarrow","leftarrow","leftarrow","rightarrow"],"horizon":5,"forced_choices":["rightarrow","rightarrow","leftarrow","leftarrow"],"right_color":"lightblue","left_color":"orange","left_mu":60,"right_mu":90,"left_numbers":[54,50,49,69,55],"right_numbers":[90,100,92,82,94],"points_earned":402,"phase":"task","trial_type":"horizons-task","trial_index":17,"time_elapsed":432997,"internal_node_id":"0.0-13.0","task_version":"0.2"},{"response_times":[1005.8399999979883,2055.724999983795,768.1399999419227,487.75500000920147,4407.9550000606105],"keys_pressed":["leftarrow","leftarrow","leftarrow","rightarrow","leftarrow"],"horizon":5,"forced_choices":["leftarrow","leftarrow","leftarrow","rightarrow"],"right_color":"lightblue","left_color":"orange","left_mu":60,"right_mu":48,"left_numbers":[72,50,49,45,59],"right_numbers":[45,45,35,48,45],"points_earned":278,"phase":"task","trial_type":"horizons-task","trial_index":18,"time_elapsed":443224,"internal_node_id":"0.0-14.0","task_version":"0.2"},{"response_times":[610.3499999735504,879.8449999885634,624.0199999883771,919.9200000148267,560.0450000492856],"keys_pressed":["rightarrow","rightarrow","leftarrow","rightarrow","leftarrow"],"horizon":5,"forced_choices":["rightarrow","rightarrow","leftarrow","rightarrow"],"right_color":"orange","left_color":"lightblue","left_mu":60,"right_mu":40,"left_numbers":[49,58,63,59,68],"right_numbers":[39,31,44,35,37],"points_earned":236,"phase":"task","trial_type":"horizons-task","trial_index":19,"time_elapsed":448321,"internal_node_id":"0.0-15.0","task_version":"0.2"},{"response_times":[785.7150000054389,887.7050000010058,480.46999995131046,783.4850000217557,1399.805000051856],"keys_pressed":["rightarrow","rightarrow","leftarrow","rightarrow","rightarrow"],"horizon":5,"forced_choices":["rightarrow","rightarrow","leftarrow","rightarrow"],"right_color":"orange","left_color":"lightblue","left_mu":40,"right_mu":70,"left_numbers":[36,45,48,35,49],"right_numbers":[74,90,60,78,72],"points_earned":362,"phase":"task","trial_type":"horizons-task","trial_index":20,"time_elapsed":454162,"internal_node_id":"0.0-16.0","task_version":"0.2"},{"response_times":[928.6350000184029,432.0300000254065,712.0199999772012,471.9749999931082,3608.0800000345334,967.8150000981987,543.9649999607354,803.91499993857,556.1599999200553,447.7750000078231],"keys_pressed":["leftarrow","rightarrow","leftarrow","rightarrow","rightarrow","rightarrow","rightarrow","rightarrow","rightarrow","rightarrow"],"horizon":10,"forced_choices":["leftarrow","rightarrow","leftarrow","rightarrow"],"right_color":"orange","left_color":"lightblue","left_mu":60,"right_mu":68,"left_numbers":[84,49,46,63,56,64,44,69,62,68],"right_numbers":[53,73,64,78,66,70,50,65,69,73],"points_earned":674,"phase":"task","trial_type":"horizons-task","trial_index":21,"time_elapsed":465138,"internal_node_id":"0.0-17.0","task_version":"0.2"},{"response_times":[684.914999990724,512.1750000398606,671.695000026375,783.9049999602139,2392.0199999120086],"keys_pressed":["rightarrow","leftarrow","leftarrow","leftarrow","rightarrow"],"horizon":5,"forced_choices":["rightarrow","leftarrow","leftarrow","leftarrow"],"right_color":"orange","left_color":"lightblue","left_mu":60,"right_mu":52,"left_numbers":[59,58,49,55,75],"right_numbers":[66,56,46,66,56],"points_earned":284,"phase":"task","trial_type":"horizons-task","trial_index":22,"time_elapsed":471687,"internal_node_id":"0.0-18.0","task_version":"0.2"},{"response_times":[1054.0299999993294,471.6699999989942,583.9600000763312,1023.9499999443069,1423.9550000056624],"keys_pressed":["leftarrow","rightarrow","leftarrow","rightarrow","rightarrow"],"horizon":5,"forced_choices":["leftarrow","rightarrow","leftarrow","rightarrow"],"right_color":"orange","left_color":"lightblue","left_mu":60,"right_mu":68,"left_numbers":[59,65,64,54,72],"right_numbers":[57,65,55,71,58],"points_earned":317,"phase":"task","trial_type":"horizons-task","trial_index":23,"time_elapsed":477750,"internal_node_id":"0.0-19.0","task_version":"0.2"},{"response_times":[712.7600000239909,375.7550000445917,960.1450000191107,719.9300000211224,1991.9649999355897],"keys_pressed":["rightarrow","leftarrow","leftarrow","leftarrow","rightarrow"],"horizon":5,"forced_choices":["rightarrow","leftarrow","leftarrow","leftarrow"],"right_color":"orange","left_color":"lightblue","left_mu":40,"right_mu":60,"left_numbers":[47,36,38,23,35],"right_numbers":[56,63,64,51,64],"points_earned":217,"phase":"task","trial_type":"horizons-task","trial_index":24,"time_elapsed":484014,"internal_node_id":"0.0-20.0","task_version":"0.2"},{"response_times":[745.5349999945611,799.7549999272451,848.0399999534711,775.8199999807402,784.0650000143796],"keys_pressed":["leftarrow","rightarrow","leftarrow","rightarrow","leftarrow"],"horizon":5,"forced_choices":["leftarrow","rightarrow","leftarrow","rightarrow"],"right_color":"lightblue","left_color":"orange","left_mu":40,"right_mu":20,"left_numbers":[52,30,46,37,21],"right_numbers":[16,23,13,23,14],"points_earned":165,"phase":"task","trial_type":"horizons-task","trial_index":25,"time_elapsed":489469,"internal_node_id":"0.0-21.0","task_version":"0.2"},{"response_times":[1130.4249999811873,1399.885000078939,811.7899999488145,712.1299999998882,2112.085000029765],"keys_pressed":["rightarrow","leftarrow","rightarrow","leftarrow","leftarrow"],"horizon":5,"forced_choices":["rightarrow","leftarrow","rightarrow","leftarrow"],"right_color":"lightblue","left_color":"orange","left_mu":60,"right_mu":30,"left_numbers":[55,80,68,57,71],"right_numbers":[36,22,30,30,38],"points_earned":274,"phase":"task","trial_type":"horizons-task","trial_index":26,"time_elapsed":497137,"internal_node_id":"0.0-22.0","task_version":"0.2"},{"response_times":[793.195000034757,535.9050000552088,472.04500006046146,719.7549999691546,2488.0750000011176,823.8750000018626,488.1199999945238,463.8249999843538,399.9950001016259,472.04499994404614],"keys_pressed":["leftarrow","leftarrow","rightarrow","leftarrow","rightarrow","rightarrow","rightarrow","rightarrow","rightarrow","rightarrow"],"horizon":10,"forced_choices":["leftarrow","leftarrow","rightarrow","leftarrow"],"right_color":"lightblue","left_color":"orange","left_mu":60,"right_mu":90,"left_numbers":[44,61,67,58,47,68,57,59,65,75],"right_numbers":[97,89,86,78,76,93,84,85,79,82],"points_earned":748,"phase":"task","trial_type":"horizons-task","trial_index":27,"time_elapsed":506297,"internal_node_id":"0.0-23.0","task_version":"0.2"},{"response_times":[729.5499999308959,447.7249999763444,543.98499999661,456.13499998580664,7107.774999924004],"keys_pressed":["rightarrow","leftarrow","leftarrow","rightarrow","leftarrow"],"horizon":5,"forced_choices":["rightarrow","leftarrow","leftarrow","rightarrow"],"right_color":"orange","left_color":"lightblue","left_mu":40,"right_mu":36,"left_numbers":[43,35,43,39,44],"right_numbers":[38,43,36,28,29],"points_earned":188,"phase":"task","trial_type":"horizons-task","trial_index":28,"time_elapsed":517085,"internal_node_id":"0.0-24.0","task_version":"0.2"},{"response_times":[590.4100000625476,551.7149999504909,455.9900000458583,435.85499993059784,3619.990000035614],"keys_pressed":["rightarrow","rightarrow","leftarrow","leftarrow","leftarrow"],"horizon":5,"forced_choices":["rightarrow","rightarrow","leftarrow","leftarrow"],"right_color":"lightblue","left_color":"orange","left_mu":40,"right_mu":32,"left_numbers":[50,51,35,50,40],"right_numbers":[23,37,36,28,38],"points_earned":185,"phase":"task","trial_type":"horizons-task","trial_index":29,"time_elapsed":524240,"internal_node_id":"0.0-25.0","task_version":"0.2"},{"response_times":[694.2450000206009,512.0849999366328,447.76000001002103,584.1850000433624,1832.0199999725446,735.8300000196323,255.94999990426004,207.96999998856336,175.91500002890825,160.07500002160668],"keys_pressed":["rightarrow","rightarrow","leftarrow","leftarrow","rightarrow","rightarrow","rightarrow","rightarrow","rightarrow","rightarrow"],"horizon":10,"forced_choices":["rightarrow","rightarrow","leftarrow","leftarrow"],"right_color":"lightblue","left_color":"orange","left_mu":60,"right_mu":90,"left_numbers":[50,60,53,50,69,76,65,51,61,46],"right_numbers":[82,83,92,99,76,79,82,89,106,91],"points_earned":791,"phase":"task","trial_type":"horizons-task","trial_index":30,"time_elapsed":531348,"internal_node_id":"0.0-26.0","task_version":"0.2"},{"response_times":[738.0099999718368,471.94499999750406,463.98999996017665,919.9400000507012,552.034999942407,207.89499999955297,183.98999993223697,183.96000005304813,183.8999999454245,160.05499998573214],"keys_pressed":["leftarrow","rightarrow","leftarrow","rightarrow","leftarrow","leftarrow","leftarrow","leftarrow","leftarrow","leftarrow"],"horizon":10,"forced_choices":["leftarrow","rightarrow","leftarrow","rightarrow"],"right_color":"lightblue","left_color":"orange","left_mu":40,"right_mu":20,"left_numbers":[39,40,43,29,25,48,49,42,42,24],"right_numbers":[19,9,3,12,13,20,24,19,21,33],"points_earned":333,"phase":"task","trial_type":"horizons-task","trial_index":31,"time_elapsed":536916,"internal_node_id":"0.0-27.0","task_version":"0.2"},{"response_times":[762.3499999754131,928.1300000147894,687.7249999670312,768.1199999060482,1263.7549999635667,255.96500001847744,208.05000001564622,208.08999997098,191.8549999827519,199.9599999981001],"keys_pressed":["rightarrow","leftarrow","rightarrow","leftarrow","leftarrow","leftarrow","leftarrow","leftarrow","leftarrow","leftarrow"],"horizon":10,"forced_choices":["rightarrow","leftarrow","rightarrow","leftarrow"],"right_color":"orange","left_color":"lightblue","left_mu":40,"right_mu":10,"left_numbers":[55,39,33,36,28,44,45,33,37,35],"right_numbers":[15,2,7,30,0,18,5,7,13,2],"points_earned":319,"phase":"task","trial_type":"horizons-task","trial_index":32,"time_elapsed":543893,"internal_node_id":"0.0-28.0","task_version":"0.2"},{"response_times":[577.284999890253,536.0149999614805,567.9349999409169,515.9749999875203,1620.0250000692904],"keys_pressed":["leftarrow","rightarrow","rightarrow","leftarrow","rightarrow"],"horizon":5,"forced_choices":["leftarrow","rightarrow","rightarrow","leftarrow"],"right_color":"orange","left_color":"lightblue","left_mu":40,"right_mu":70,"left_numbers":[28,38,31,38,48],"right_numbers":[70,77,76,63,65],"points_earned":284,"phase":"task","trial_type":"horizons-task","trial_index":33,"time_elapsed":549212,"internal_node_id":"0.0-29.0","task_version":"0.2"},{"response_times":[790.3299999888986,499.889999977313,783.8850000407547,2055.8400000445545,3532.2200000518933],"keys_pressed":["rightarrow","leftarrow","leftarrow","leftarrow","rightarrow"],"horizon":5,"forced_choices":["rightarrow","leftarrow","leftarrow","leftarrow"],"right_color":"lightblue","left_color":"orange","left_mu":40,"right_mu":28,"left_numbers":[34,39,38,26,41],"right_numbers":[37,41,18,42,15],"points_earned":155,"phase":"task","trial_type":"horizons-task","trial_index":34,"time_elapsed":558376,"internal_node_id":"0.0-30.0","task_version":"0.2"},{"response_times":[633.5899999830872,672.0999999670312,616.0900000249967,407.6049999566749,464.15000001434237],"keys_pressed":["leftarrow","leftarrow","rightarrow","rightarrow","leftarrow"],"horizon":5,"forced_choices":["leftarrow","leftarrow","rightarrow","rightarrow"],"right_color":"lightblue","left_color":"orange","left_mu":40,"right_mu":44,"left_numbers":[42,53,36,43,41],"right_numbers":[37,38,39,34,49],"points_earned":209,"phase":"task","trial_type":"horizons-task","trial_index":35,"time_elapsed":562672,"internal_node_id":"0.0-31.0","task_version":"0.2"},{"response_times":[713.8249999843538,791.8500000378117,479.82500004582107,896.32000005804,1695.7949999487028],"keys_pressed":["leftarrow","rightarrow","leftarrow","leftarrow","rightarrow"],"horizon":5,"forced_choices":["leftarrow","rightarrow","leftarrow","leftarrow"],"right_color":"orange","left_color":"lightblue","left_mu":40,"right_mu":48,"left_numbers":[42,32,32,46,26],"right_numbers":[43,43,54,51,47],"points_earned":210,"phase":"task","trial_type":"horizons-task","trial_index":36,"time_elapsed":568753,"internal_node_id":"0.0-32.0","task_version":"0.2"},{"response_times":[881.3650000374764,519.9400000274181,432.03500006347895,535.840000025928,1311.9849999202415,264.0000000828877,335.94000001903623,224.0349999628961,191.9200000120327,159.91499996744096],"keys_pressed":["rightarrow","leftarrow","rightarrow","leftarrow","leftarrow","leftarrow","leftarrow","leftarrow","leftarrow","leftarrow"],"horizon":10,"forced_choices":["rightarrow","leftarrow","rightarrow","leftarrow"],"right_color":"lightblue","left_color":"orange","left_mu":60,"right_mu":30,"left_numbers":[70,50,53,57,50,56,59,69,71,48],"right_numbers":[43,32,44,37,28,38,36,19,28,36],"points_earned":547,"phase":"task","trial_type":"horizons-task","trial_index":37,"time_elapsed":575112,"internal_node_id":"0.0-33.0","task_version":"0.2"},{"response_times":[650.0499999383464,640.0200000498444,1128.0500000575557,1120.0149999931455,1567.8949999855831,408.1750001059845,223.72500004712492,196.034999913536,175.79500004649162,192.01999995857477],"keys_pressed":["rightarrow","leftarrow","leftarrow","leftarrow","leftarrow","leftarrow","leftarrow","leftarrow","leftarrow","leftarrow"],"horizon":10,"forced_choices":["rightarrow","leftarrow","leftarrow","leftarrow"],"right_color":"orange","left_color":"lightblue","left_mu":60,"right_mu":52,"left_numbers":[54,75,57,59,53,63,38,56,68,50],"right_numbers":[43,37,34,45,39,55,50,40,46,52],"points_earned":562,"phase":"task","trial_type":"horizons-task","trial_index":38,"time_elapsed":582917,"internal_node_id":"0.0-34.0","task_version":"0.2"},{"response_times":[537.0100000873208,675.9099999908358,555.9749999083579,651.9600000465289,1396.0299999453127],"keys_pressed":["leftarrow","leftarrow","leftarrow","rightarrow","leftarrow"],"horizon":5,"forced_choices":["leftarrow","leftarrow","leftarrow","rightarrow"],"right_color":"lightblue","left_color":"orange","left_mu":60,"right_mu":56,"left_numbers":[63,65,48,53,57],"right_numbers":[65,50,46,44,56],"points_earned":277,"phase":"task","trial_type":"horizons-task","trial_index":39,"time_elapsed":588237,"internal_node_id":"0.0-35.0","task_version":"0.2"},{"response_times":[625.5450000753626,472.14500000700355,951.839999994263,463.9049998950213,1375.8949999464676,504.079999984242,271.8100000638515,224.09499995410442,175.83000008016825,184.0249999659136],"keys_pressed":["leftarrow","rightarrow","rightarrow","leftarrow","rightarrow","rightarrow","rightarrow","rightarrow","rightarrow","rightarrow"],"horizon":10,"forced_choices":["leftarrow","rightarrow","rightarrow","leftarrow"],"right_color":"orange","left_color":"lightblue","left_mu":40,"right_mu":60,"left_numbers":[41,35,36,38,46,40,57,52,32,32],"right_numbers":[58,56,46,66,64,75,34,67,49,69],"points_earned":539,"phase":"task","trial_type":"horizons-task","trial_index":40,"time_elapsed":594989,"internal_node_id":"0.0-36.0","task_version":"0.2"},{"response_times":[825.660000089556,479.7950000502169,496.05999991763383,551.9449999555945,1711.9699999457225],"keys_pressed":["rightarrow","rightarrow","leftarrow","leftarrow","rightarrow"],"horizon":5,"forced_choices":["rightarrow","rightarrow","leftarrow","leftarrow"],"right_color":"lightblue","left_color":"orange","left_mu":40,"right_mu":28,"left_numbers":[50,44,31,32,40],"right_numbers":[34,33,28,46,36],"points_earned":166,"phase":"task","trial_type":"horizons-task","trial_index":41,"time_elapsed":600556,"internal_node_id":"0.0-37.0","task_version":"0.2"},{"response_times":[802.0300000207499,1263.745000003837,872.0449999673292,687.8949999809265,3039.935000007972,439.82500000856817,552.1400000434369,400.0299999024719,247.9300000704825,444.03499993495643],"keys_pressed":["rightarrow","leftarrow","leftarrow","rightarrow","leftarrow","leftarrow","leftarrow","leftarrow","leftarrow","leftarrow"],"horizon":10,"forced_choices":["rightarrow","leftarrow","leftarrow","rightarrow"],"right_color":"orange","left_color":"lightblue","left_mu":40,"right_mu":36,"left_numbers":[36,20,38,47,39,22,26,47,51,37],"right_numbers":[31,25,44,34,32,29,14,44,28,39],"points_earned":345,"phase":"task","trial_type":"horizons-task","trial_index":42,"time_elapsed":610809,"internal_node_id":"0.0-38.0","task_version":"0.2"},{"response_times":[1021.4799999957904,900.0650000525638,551.6650000354275,727.889999980107,1199.9899999937043,616.039999993518,279.8450000118464,208.01000006031245,184.02000004425645,199.9000000068918],"keys_pressed":["rightarrow","rightarrow","leftarrow","leftarrow","leftarrow","leftarrow","leftarrow","leftarrow","leftarrow","leftarrow"],"horizon":10,"forced_choices":["rightarrow","rightarrow","leftarrow","leftarrow"],"right_color":"lightblue","left_color":"orange","left_mu":40,"right_mu":28,"left_numbers":[39,39,28,39,49,34,36,56,34,44],"right_numbers":[42,17,28,25,22,28,37,30,36,33],"points_earned":379,"phase":"task","trial_type":"horizons-task","trial_index":43,"time_elapsed":618201,"internal_node_id":"0.0-39.0","task_version":"0.2"},{"response_times":[657.134999986738,551.949999993667,520.0649999314919,1007.8200000571087,1216.190000064671],"keys_pressed":["leftarrow","rightarrow","rightarrow","rightarrow","leftarrow"],"horizon":5,"forced_choices":["leftarrow","rightarrow","rightarrow","rightarrow"],"right_color":"lightblue","left_color":"orange","left_mu":40,"right_mu":20,"left_numbers":[39,40,42,31,40],"right_numbers":[10,23,37,24,21],"points_earned":163,"phase":"task","trial_type":"horizons-task","trial_index":44,"time_elapsed":623656,"internal_node_id":"0.0-40.0","task_version":"0.2"},{"response_times":[705.8749999850988,560.0400000112131,439.91499999538064,295.93999998178333,1680.2349999779835,527.8050000779331,231.9200000492856,191.98499992489815,175.90000003110617,152.0299999974668],"keys_pressed":["rightarrow","rightarrow","leftarrow","leftarrow","leftarrow","leftarrow","leftarrow","leftarrow","leftarrow","leftarrow"],"horizon":10,"forced_choices":["rightarrow","rightarrow","leftarrow","leftarrow"],"right_color":"lightblue","left_color":"orange","left_mu":40,"right_mu":32,"left_numbers":[38,44,31,44,55,49,42,47,45,35],"right_numbers":[32,32,29,24,18,33,32,33,37,41],"points_earned":412,"phase":"task","trial_type":"horizons-task","trial_index":45,"time_elapsed":630120,"internal_node_id":"0.0-41.0","task_version":"0.2"},{"response_times":[545.9249999839813,735.9500000020489,776.1250000912696,599.8949999921024,2000.0249999575317],"keys_pressed":["rightarrow","leftarrow","leftarrow","rightarrow","rightarrow"],"horizon":5,"forced_choices":["rightarrow","leftarrow","leftarrow","rightarrow"],"right_color":"orange","left_color":"lightblue","left_mu":60,"right_mu":72,"left_numbers":[52,69,71,51,55],"right_numbers":[68,67,75,78,71],"points_earned":357,"phase":"task","trial_type":"horizons-task","trial_index":46,"time_elapsed":636280,"internal_node_id":"0.0-42.0","task_version":"0.2"},{"response_times":[761.1800000304356,559.925000066869,832.0000000530854,583.9700000360608,3804.1749999392778,487.7150000538677,204.0049999486655,204.0200000628829,187.9099999787286,195.92500000726432],"keys_pressed":["rightarrow","leftarrow","rightarrow","rightarrow","leftarrow","leftarrow","leftarrow","leftarrow","leftarrow","leftarrow"],"horizon":10,"forced_choices":["rightarrow","leftarrow","rightarrow","rightarrow"],"right_color":"lightblue","left_color":"orange","left_mu":40,"right_mu":32,"left_numbers":[30,34,33,67,32,42,35,43,44,28],"right_numbers":[29,46,31,27,35,38,31,27,33,34],"points_earned":345,"phase":"task","trial_type":"horizons-task","trial_index":47,"time_elapsed":645604,"internal_node_id":"0.0-43.0","task_version":"0.2"},{"response_times":[818.2550000492483,567.9799999343231,519.8500000406057,736.0099999932572,785.9799999278039,197.94500002171844,183.95499989856035,175.9250001050532,168.06000005453825,151.83999994769692],"keys_pressed":["leftarrow","rightarrow","rightarrow","rightarrow","leftarrow","leftarrow","leftarrow","leftarrow","leftarrow","leftarrow"],"horizon":10,"forced_choices":["leftarrow","rightarrow","rightarrow","rightarrow"],"right_color":"orange","left_color":"lightblue","left_mu":60,"right_mu":68,"left_numbers":[75,54,55,52,57,48,70,62,59,50],"right_numbers":[60,57,52,66,76,44,64,58,61,76],"points_earned":596,"phase":"task","trial_type":"horizons-task","trial_index":48,"time_elapsed":651413,"internal_node_id":"0.0-44.0","task_version":"0.2"},{"response_times":[688.7450000504032,864.3550000851974,487.56999999750406,720.0899999588728,1815.9600000362843,223.98999996948987,183.94500005524606,175.94999994616956,192.06000003032386,175.84500007797033],"keys_pressed":["rightarrow","leftarrow","leftarrow","rightarrow","rightarrow","rightarrow","rightarrow","rightarrow","rightarrow","rightarrow"],"horizon":10,"forced_choices":["rightarrow","leftarrow","leftarrow","rightarrow"],"right_color":"orange","left_color":"lightblue","left_mu":60,"right_mu":72,"left_numbers":[50,64,50,73,60,76,56,64,61,73],"right_numbers":[65,71,75,68,62,76,76,73,78,69],"points_earned":681,"phase":"task","trial_type":"horizons-task","trial_index":49,"time_elapsed":658444,"internal_node_id":"0.0-45.0","task_version":"0.2"},{"response_times":[737.7100000157952,711.9650000240654,551.8999999621883,792.0500000473112,855.9400000376627,224.02000008150935,191.86500005889684,159.90500000771135,152.09999994840473,143.99500004947186],"keys_pressed":["rightarrow","leftarrow","leftarrow","leftarrow","rightarrow","rightarrow","rightarrow","rightarrow","rightarrow","rightarrow"],"horizon":10,"forced_choices":["rightarrow","leftarrow","leftarrow","leftarrow"],"right_color":"orange","left_color":"lightblue","left_mu":40,"right_mu":60,"left_numbers":[40,39,44,40,27,31,46,32,42,49],"right_numbers":[63,69,50,55,71,60,66,60,64,69],"points_earned":576,"phase":"task","trial_type":"horizons-task","trial_index":50,"time_elapsed":664468,"internal_node_id":"0.0-46.0","task_version":"0.2"},{"view_history":"[{\"page_index\":0,\"viewing_time\":12738.359999959357},{\"page_index\":1,\"viewing_time\":92227.54999995232}]","rt":104966.34499996435,"trial_type":"instructions","trial_index":51,"time_elapsed":769435,"internal_node_id":"0.0-47.0","task_version":"0.2"},{"response_times":[885.8049999689683,503.93000000622123,415.99999996833503,1880.0099999643862,1103.8799999514595],"keys_pressed":["rightarrow","rightarrow","rightarrow","leftarrow","rightarrow"],"horizon":5,"forced_choices":["rightarrow","rightarrow","rightarrow","leftarrow"],"right_color":"orange","left_color":"lightblue","left_mu":40,"right_mu":36,"left_numbers":[37,58,45,24,47],"right_numbers":[35,51,38,17,43],"points_earned":191,"phase":"task","trial_type":"horizons-task","trial_index":52,"time_elapsed":775731,"internal_node_id":"0.0-48.0","task_version":"0.2"},{"response_times":[690.3750000055879,511.8400000501424,456.040000077337,816.0599999828264,1608.085000072606,311.9149999693036,199.74499999079853,220.0550000416115,231.96999996434897,515.9699999494478],"keys_pressed":["leftarrow","leftarrow","rightarrow","leftarrow","rightarrow","rightarrow","rightarrow","rightarrow","rightarrow","rightarrow"],"horizon":10,"forced_choices":["leftarrow","leftarrow","rightarrow","leftarrow"],"right_color":"orange","left_color":"lightblue","left_mu":60,"right_mu":72,"left_numbers":[67,61,44,59,48,50,67,57,60,55],"right_numbers":[64,69,72,65,72,73,65,64,67,56],"points_earned":656,"phase":"task","trial_type":"horizons-task","trial_index":53,"time_elapsed":782795,"internal_node_id":"0.0-49.0","task_version":"0.2"},{"response_times":[682.1599999675527,456.1899999389425,563.605000032112,735.9700000379235,695.9650000790134,239.9449999211356,192.04499991610646,167.8800000809133,184.00999996811152,512.0850000530481],"keys_pressed":["leftarrow","rightarrow","rightarrow","rightarrow","leftarrow","leftarrow","leftarrow","leftarrow","leftarrow","leftarrow"],"horizon":10,"forced_choices":["leftarrow","rightarrow","rightarrow","rightarrow"],"right_color":"lightblue","left_color":"orange","left_mu":40,"right_mu":20,"left_numbers":[38,44,42,34,42,41,51,30,47,45],"right_numbers":[35,15,28,20,19,17,23,27,10,15],"points_earned":357,"phase":"task","trial_type":"horizons-task","trial_index":54,"time_elapsed":788727,"internal_node_id":"0.0-50.0","task_version":"0.2"},{"response_times":[746.0050000809133,536.1150000244379,495.86000002454966,447.939999983646,887.9750000778586,191.88499997835606,184.04500000178814,175.84500007797033,184.16499998420477,191.7449999600649],"keys_pressed":["rightarrow","leftarrow","leftarrow","rightarrow","leftarrow","leftarrow","leftarrow","leftarrow","leftarrow","leftarrow"],"horizon":10,"forced_choices":["rightarrow","leftarrow","leftarrow","rightarrow"],"right_color":"lightblue","left_color":"orange","left_mu":60,"right_mu":48,"left_numbers":[54,62,71,48,57,55,57,58,66,64],"right_numbers":[55,44,42,58,66,54,49,37,53,36],"points_earned":603,"phase":"task","trial_type":"horizons-task","trial_index":55,"time_elapsed":794271,"internal_node_id":"0.0-51.0","task_version":"0.2"},{"response_times":[522.1649999730289,391.8700000504032,551.9449999555945,352.31999994721264,535.8349999878556,199.9099999666214,175.91500002890825,183.91999998129904,183.95500001497567,184.09499991685152],"keys_pressed":["leftarrow","leftarrow","rightarrow","rightarrow","leftarrow","leftarrow","leftarrow","leftarrow","leftarrow","leftarrow"],"horizon":10,"forced_choices":["leftarrow","leftarrow","rightarrow","rightarrow"],"right_color":"orange","left_color":"lightblue","left_mu":60,"right_mu":40,"left_numbers":[68,55,56,58,50,44,57,64,70,67],"right_numbers":[40,29,55,31,46,38,51,35,52,33],"points_earned":561,"phase":"task","trial_type":"horizons-task","trial_index":56,"time_elapsed":799056,"internal_node_id":"0.0-52.0","task_version":"0.2"},{"response_times":[609.2100000241771,688.2400000467896,511.87000004574656,583.90500000678,1759.9250000203028],"keys_pressed":["rightarrow","leftarrow","rightarrow","rightarrow","rightarrow"],"horizon":5,"forced_choices":["rightarrow","leftarrow","rightarrow","rightarrow"],"right_color":"orange","left_color":"lightblue","left_mu":40,"right_mu":52,"left_numbers":[33,41,56,50,36],"right_numbers":[44,66,58,51,43],"points_earned":237,"phase":"task","trial_type":"horizons-task","trial_index":57,"time_elapsed":804712,"internal_node_id":"0.0-53.0","task_version":"0.2"},{"response_times":[793.5200000647455,527.3949999827892,696.0950000211596,463.8349999440834,1463.7900000670925],"keys_pressed":["leftarrow","rightarrow","rightarrow","leftarrow","leftarrow"],"horizon":5,"forced_choices":["leftarrow","rightarrow","rightarrow","leftarrow"],"right_color":"lightblue","left_color":"orange","left_mu":60,"right_mu":56,"left_numbers":[56,71,39,80,77],"right_numbers":[51,61,48,57,40],"points_earned":322,"phase":"task","trial_type":"horizons-task","trial_index":58,"time_elapsed":810159,"internal_node_id":"0.0-54.0","task_version":"0.2"},{"response_times":[736.475000041537,539.6000000182539,603.9899999741465,979.9999999813735,2527.929999982007],"keys_pressed":["leftarrow","leftarrow","rightarrow","leftarrow","rightarrow"],"horizon":5,"forced_choices":["leftarrow","leftarrow","rightarrow","leftarrow"],"right_color":"orange","left_color":"lightblue","left_mu":60,"right_mu":72,"left_numbers":[60,61,53,66,72],"right_numbers":[83,80,76,71,80],"points_earned":343,"phase":"task","trial_type":"horizons-task","trial_index":59,"time_elapsed":817052,"internal_node_id":"0.0-55.0","task_version":"0.2"},{"response_times":[752.9549999162555,704.0000000270084,680.0299999304116,528.0199999688193,2087.995000067167],"keys_pressed":["leftarrow","rightarrow","leftarrow","rightarrow","rightarrow"],"horizon":5,"forced_choices":["leftarrow","rightarrow","leftarrow","rightarrow"],"right_color":"orange","left_color":"lightblue","left_mu":60,"right_mu":52,"left_numbers":[53,81,59,64,54],"right_numbers":[71,47,43,58,55],"points_earned":272,"phase":"task","trial_type":"horizons-task","trial_index":60,"time_elapsed":823308,"internal_node_id":"0.0-56.0","task_version":"0.2"},{"response_times":[640.4250001069158,463.90500001143664,415.974999894388,688.0600000731647,2055.8700000401586],"keys_pressed":["leftarrow","rightarrow","leftarrow","leftarrow","leftarrow"],"horizon":5,"forced_choices":["leftarrow","rightarrow","leftarrow","leftarrow"],"right_color":"lightblue","left_color":"orange","left_mu":60,"right_mu":64,"left_numbers":[64,60,79,62,62],"right_numbers":[86,65,75,60,75],"points_earned":332,"phase":"task","trial_type":"horizons-task","trial_index":61,"time_elapsed":829075,"internal_node_id":"0.0-57.0","task_version":"0.2"},{"response_times":[794.0650000236928,663.8949998887256,488.1150000728667,880.0449999980628,1007.8450000146404,223.909999942407,264.05500003602356,191.8799999402836,192.00000003911555,168.01999998278916],"keys_pressed":["rightarrow","rightarrow","leftarrow","rightarrow","rightarrow","rightarrow","rightarrow","rightarrow","rightarrow","rightarrow"],"horizon":10,"forced_choices":["rightarrow","rightarrow","leftarrow","rightarrow"],"right_color":"lightblue","left_color":"orange","left_mu":60,"right_mu":80,"left_numbers":[51,77,64,59,68,63,58,56,75,70],"right_numbers":[72,90,76,72,93,94,65,85,82,76],"points_earned":793,"phase":"task","trial_type":"horizons-task","trial_index":62,"time_elapsed":835452,"internal_node_id":"0.0-58.0","task_version":"0.2"},{"response_times":[911.3550001056865,655.9849999612197,435.9650000697002,475.84500000812113,3655.930000008084,568.3150000404567,703.6300000036135,260.08500007446855,215.970000019297,183.9499999769032],"keys_pressed":["leftarrow","rightarrow","leftarrow","rightarrow","leftarrow","leftarrow","leftarrow","leftarrow","leftarrow","leftarrow"],"horizon":10,"forced_choices":["leftarrow","rightarrow","leftarrow","rightarrow"],"right_color":"orange","left_color":"lightblue","left_mu":60,"right_mu":52,"left_numbers":[58,51,52,62,55,67,70,53,59,65],"right_numbers":[47,54,66,56,53,44,37,70,66,55],"points_earned":589,"phase":"task","trial_type":"horizons-task","trial_index":63,"time_elapsed":845024,"internal_node_id":"0.0-59.0","task_version":"0.2"},{"response_times":[761.0750000458211,535.9849999658763,568.0300000822172,575.8750000968575,1351.9849999574944,711.9950000196695,175.9199999505654,167.9999999469146,168.01999998278916,159.90500000771135],"keys_pressed":["rightarrow","leftarrow","rightarrow","rightarrow","rightarrow","rightarrow","rightarrow","rightarrow","rightarrow","rightarrow"],"horizon":10,"forced_choices":["rightarrow","leftarrow","rightarrow","rightarrow"],"right_color":"orange","left_color":"lightblue","left_mu":40,"right_mu":52,"left_numbers":[49,48,37,33,39,37,28,27,34,49],"right_numbers":[61,51,54,52,48,50,40,51,56,52],"points_earned":512,"phase":"task","trial_type":"horizons-task","trial_index":64,"time_elapsed":851703,"internal_node_id":"0.0-60.0","task_version":"0.2"},{"response_times":[625.8950000628829,431.8149999016896,631.9399999920279,503.93999996595085,1512.0350000215694],"keys_pressed":["rightarrow","leftarrow","leftarrow","rightarrow","leftarrow"],"horizon":5,"forced_choices":["rightarrow","leftarrow","leftarrow","rightarrow"],"right_color":"lightblue","left_color":"orange","left_mu":60,"right_mu":48,"left_numbers":[55,52,68,65,64],"right_numbers":[32,48,29,54,46],"points_earned":270,"phase":"task","trial_type":"horizons-task","trial_index":65,"time_elapsed":856912,"internal_node_id":"0.0-61.0","task_version":"0.2"},{"response_times":[817.1900000888854,336.0149998916313,911.9449999416247,1335.9450000571087,544.0249999519438],"keys_pressed":["rightarrow","leftarrow","rightarrow","leftarrow","leftarrow"],"horizon":5,"forced_choices":["rightarrow","leftarrow","rightarrow","leftarrow"],"right_color":"orange","left_color":"lightblue","left_mu":40,"right_mu":10,"left_numbers":[39,48,43,33,40],"right_numbers":[4,9,15,9,20],"points_earned":140,"phase":"task","trial_type":"horizons-task","trial_index":66,"time_elapsed":862360,"internal_node_id":"0.0-62.0","task_version":"0.2"},{"response_times":[800.4150000633672,599.8400000389665,495.88499998208135,520.0350000523031,1055.8599999640137,616.0249999957159,503.8100000238046,1416.1849999800324,223.87000010348856,175.90000003110617],"keys_pressed":["rightarrow","rightarrow","rightarrow","leftarrow","leftarrow","leftarrow","leftarrow","leftarrow","leftarrow","leftarrow"],"horizon":10,"forced_choices":["rightarrow","rightarrow","rightarrow","leftarrow"],"right_color":"lightblue","left_color":"orange","left_mu":60,"right_mu":30,"left_numbers":[61,61,46,60,58,62,58,61,57,68],"right_numbers":[44,34,23,25,34,37,17,36,40,32],"points_earned":525,"phase":"task","trial_type":"horizons-task","trial_index":67,"time_elapsed":870272,"internal_node_id":"0.0-63.0","task_version":"0.2"},{"response_times":[497.2699999343604,435.8249999349937,487.8749999916181,1071.9400000525638,1416.414999985136],"keys_pressed":["leftarrow","leftarrow","rightarrow","leftarrow","rightarrow"],"horizon":5,"forced_choices":["leftarrow","leftarrow","rightarrow","leftarrow"],"right_color":"lightblue","left_color":"orange","left_mu":60,"right_mu":90,"left_numbers":[58,65,58,73,50],"right_numbers":[84,91,88,82,90],"points_earned":374,"phase":"task","trial_type":"horizons-task","trial_index":68,"time_elapsed":875684,"internal_node_id":"0.0-64.0","task_version":"0.2"},{"response_times":[705.7300000451505,743.8200000906363,360.054999939166,759.8800000268966,671.95999994874],"keys_pressed":["rightarrow","rightarrow","leftarrow","rightarrow","rightarrow"],"horizon":5,"forced_choices":["rightarrow","rightarrow","leftarrow","rightarrow"],"right_color":"lightblue","left_color":"orange","left_mu":60,"right_mu":80,"left_numbers":[49,54,59,70,56],"right_numbers":[78,82,79,81,81],"points_earned":381,"phase":"task","trial_type":"horizons-task","trial_index":69,"time_elapsed":880427,"internal_node_id":"0.0-65.0","task_version":"0.2"},{"response_times":[818.6099999584258,480.1399999996647,511.91999996080995,879.7899999190122,4216.360000078566,199.42999992053956,192.42500001564622,407.7599999727681,216.03000001050532,191.7200000025332],"keys_pressed":["rightarrow","leftarrow","leftarrow","leftarrow","rightarrow","rightarrow","rightarrow","rightarrow","rightarrow","rightarrow"],"horizon":10,"forced_choices":["rightarrow","leftarrow","leftarrow","leftarrow"],"right_color":"lightblue","left_color":"orange","left_mu":40,"right_mu":28,"left_numbers":[30,31,38,45,47,43,52,38,32,32],"right_numbers":[39,29,25,38,31,37,30,35,37,33],"points_earned":356,"phase":"task","trial_type":"horizons-task","trial_index":70,"time_elapsed":890043,"internal_node_id":"0.0-66.0","task_version":"0.2"},{"response_times":[617.7150000585243,488.234999938868,367.92999994941056,520.1599999563769,1647.8050000732765,239.88000000827014,207.95499999076128,183.9750000508502,184.05499996151775,447.9849999770522],"keys_pressed":["leftarrow","leftarrow","leftarrow","rightarrow","leftarrow","leftarrow","leftarrow","leftarrow","leftarrow","leftarrow"],"horizon":10,"forced_choices":["leftarrow","leftarrow","leftarrow","rightarrow"],"right_color":"lightblue","left_color":"orange","left_mu":60,"right_mu":48,"left_numbers":[66,56,61,74,61,61,56,54,57,57],"right_numbers":[44,55,53,57,39,49,52,42,59,55],"points_earned":586,"phase":"task","trial_type":"horizons-task","trial_index":71,"time_elapsed":896452,"internal_node_id":"0.0-67.0","task_version":"0.2"},{"response_times":[625.1900000497699,452.06499996129423,483.83499996270984,728.0749999918044,1000.0100000761449,207.79499993659556,183.99499997030944,188.0349999992177,188.1199999479577,191.76499999593943],"keys_pressed":["rightarrow","rightarrow","leftarrow","rightarrow","leftarrow","leftarrow","leftarrow","leftarrow","leftarrow","leftarrow"],"horizon":10,"forced_choices":["rightarrow","rightarrow","leftarrow","rightarrow"],"right_color":"orange","left_color":"lightblue","left_mu":60,"right_mu":40,"left_numbers":[62,43,58,68,62,52,75,65,66,60],"right_numbers":[40,34,40,40,51,38,37,50,52,48],"points_earned":552,"phase":"task","trial_type":"horizons-task","trial_index":72,"time_elapsed":902204,"internal_node_id":"0.0-68.0","task_version":"0.2"},{"response_times":[612.7049999777228,543.9199999673292,536.0750000691041,719.9299999047071,1783.930000034161,223.96500001195818,199.9599999981001,183.98999993223697,439.9950000224635,232.0649999892339],"keys_pressed":["leftarrow","rightarrow","rightarrow","rightarrow","rightarrow","rightarrow","rightarrow","rightarrow","rightarrow","rightarrow"],"horizon":10,"forced_choices":["leftarrow","rightarrow","rightarrow","rightarrow"],"right_color":"lightblue","left_color":"orange","left_mu":40,"right_mu":44,"left_numbers":[42,48,49,44,43,41,37,15,35,39],"right_numbers":[45,51,44,46,32,42,41,47,39,34],"points_earned":418,"phase":"task","trial_type":"horizons-task","trial_index":73,"time_elapsed":909183,"internal_node_id":"0.0-69.0","task_version":"0.2"},{"response_times":[890.0500000454485,776.0100000305101,759.9900000495836,552.0049999468029,512.055000057444,199.84000001568347,159.84500001650304,152.09999994840473,152.0200000377372,152.03499991912395],"keys_pressed":["leftarrow","rightarrow","leftarrow","rightarrow","rightarrow","rightarrow","rightarrow","rightarrow","rightarrow","rightarrow"],"horizon":10,"forced_choices":["leftarrow","rightarrow","leftarrow","rightarrow"],"right_color":"lightblue","left_color":"orange","left_mu":60,"right_mu":80,"left_numbers":[57,69,65,62,54,53,57,67,56,66],"right_numbers":[77,75,76,73,87,87,85,81,67,68],"points_earned":745,"phase":"task","trial_type":"horizons-task","trial_index":74,"time_elapsed":914991,"internal_node_id":"0.0-70.0","task_version":"0.2"},{"response_times":[670.5800000345334,512.1999999973923,695.8249999443069,464.0099999960512,1160.3099999483675,223.6050000647083,191.99500000104308,175.93499994836748,176.08999996446073,167.8300000494346],"keys_pressed":["leftarrow","leftarrow","leftarrow","rightarrow","leftarrow","leftarrow","leftarrow","leftarrow","leftarrow","leftarrow"],"horizon":10,"forced_choices":["leftarrow","leftarrow","leftarrow","rightarrow"],"right_color":"lightblue","left_color":"orange","left_mu":60,"right_mu":56,"left_numbers":[51,67,66,52,75,55,67,59,55,66],"right_numbers":[66,57,53,50,58,58,59,52,54,49],"points_earned":611,"phase":"task","trial_type":"horizons-task","trial_index":75,"time_elapsed":920935,"internal_node_id":"0.0-71.0","task_version":"0.2"},{"response_times":[721.1349999997765,520.1999999117106,488.03000000771135,615.9100000513718,856.0350000625476,199.834999977611,191.92500005010515,184.04999992344528,184.0749999973923,199.9599999981001],"keys_pressed":["rightarrow","rightarrow","leftarrow","rightarrow","rightarrow","rightarrow","rightarrow","rightarrow","rightarrow","rightarrow"],"horizon":10,"forced_choices":["rightarrow","rightarrow","leftarrow","rightarrow"],"right_color":"orange","left_color":"lightblue","left_mu":40,"right_mu":70,"left_numbers":[33,41,45,29,27,23,36,42,33,39],"right_numbers":[65,79,67,72,66,63,71,81,65,65],"points_earned":672,"phase":"task","trial_type":"horizons-task","trial_index":76,"time_elapsed":926600,"internal_node_id":"0.0-72.0","task_version":"0.2"},{"response_times":[809.2750000068918,447.9999999748543,519.9799999827519,504.285000031814,2655.5549999466166,3248.159999959171,227.72000008262694,183.90000006183982,176.2299999827519,167.8400000091642],"keys_pressed":["leftarrow","rightarrow","rightarrow","leftarrow","rightarrow","rightarrow","rightarrow","rightarrow","rightarrow","rightarrow"],"horizon":10,"forced_choices":["leftarrow","rightarrow","rightarrow","leftarrow"],"right_color":"lightblue","left_color":"orange","left_mu":60,"right_mu":56,"left_numbers":[64,46,51,55,64,56,58,70,48,63],"right_numbers":[55,50,70,55,48,53,69,72,60,59],"points_earned":600,"phase":"task","trial_type":"horizons-task","trial_index":77,"time_elapsed":937044,"internal_node_id":"0.0-73.0","task_version":"0.2"},{"response_times":[744.9400000041351,487.97000001650304,407.8750000335276,1272.3450000630692,919.6249999804422],"keys_pressed":["leftarrow","rightarrow","rightarrow","rightarrow","rightarrow"],"horizon":5,"forced_choices":["leftarrow","rightarrow","rightarrow","rightarrow"],"right_color":"orange","left_color":"lightblue","left_mu":60,"right_mu":68,"left_numbers":[57,70,62,60,59],"right_numbers":[81,66,67,68,63],"points_earned":321,"phase":"task","trial_type":"horizons-task","trial_index":78,"time_elapsed":942379,"internal_node_id":"0.0-74.0","task_version":"0.2"},{"response_times":[752.9199999989942,504.19999996665865,391.77500002551824,583.9799999957904,1096.0150000173599,2999.8800000175834,231.9800000404939,200.0600000610575,175.93499994836748,183.9650000911206],"keys_pressed":["leftarrow","rightarrow","leftarrow","leftarrow","rightarrow","leftarrow","leftarrow","leftarrow","leftarrow","leftarrow"],"horizon":10,"forced_choices":["leftarrow","rightarrow","leftarrow","leftarrow"],"right_color":"lightblue","left_color":"orange","left_mu":60,"right_mu":64,"left_numbers":[51,50,72,62,76,57,62,52,52,64],"right_numbers":[60,56,66,72,60,64,63,63,59,62],"points_earned":588,"phase":"task","trial_type":"horizons-task","trial_index":79,"time_elapsed":951004,"internal_node_id":"0.0-75.0","task_version":"0.2"},{"response_times":[1120.8849999820814,575.7500000763685,471.8499999726191,688.1249999860302,2920.1049999101087,215.89000010862947,183.8400000706315,167.97999991104007,167.9800000274554,159.9500000011176],"keys_pressed":["leftarrow","rightarrow","rightarrow","leftarrow","rightarrow","rightarrow","rightarrow","rightarrow","rightarrow","rightarrow"],"horizon":10,"forced_choices":["leftarrow","rightarrow","rightarrow","leftarrow"],"right_color":"orange","left_color":"lightblue","left_mu":40,"right_mu":70,"left_numbers":[38,50,50,45,36,46,40,45,31,43],"right_numbers":[60,76,61,69,92,74,67,66,71,54],"points_earned":644,"phase":"task","trial_type":"horizons-task","trial_index":80,"time_elapsed":959179,"internal_node_id":"0.0-76.0","task_version":"0.2"},{"response_times":[753.6550000077114,648.1850000564009,519.9300000676885,456.20999997481704,1891.9849999947473],"keys_pressed":["rightarrow","leftarrow","rightarrow","rightarrow","leftarrow"],"horizon":5,"forced_choices":["rightarrow","leftarrow","rightarrow","rightarrow"],"right_color":"lightblue","left_color":"orange","left_mu":40,"right_mu":32,"left_numbers":[35,53,29,36,43],"right_numbers":[42,39,30,32,25],"points_earned":200,"phase":"task","trial_type":"horizons-task","trial_index":81,"time_elapsed":964951,"internal_node_id":"0.0-77.0","task_version":"0.2"},{"response_times":[905.9000000124797,672.0300000160933,711.9299999903888,504.02499991469085,600.0449999701232,207.98500010278076,175.9199999505654,151.9799999659881,167.964999913238,143.93499994184822],"keys_pressed":["rightarrow","leftarrow","leftarrow","rightarrow","rightarrow","rightarrow","rightarrow","rightarrow","rightarrow","rightarrow"],"horizon":10,"forced_choices":["rightarrow","leftarrow","leftarrow","rightarrow"],"right_color":"orange","left_color":"lightblue","left_mu":40,"right_mu":52,"left_numbers":[47,26,42,52,52,36,52,44,47,40],"right_numbers":[40,56,67,48,49,52,52,63,58,58],"points_earned":488,"phase":"task","trial_type":"horizons-task","trial_index":82,"time_elapsed":970695,"internal_node_id":"0.0-78.0","task_version":"0.2"},{"response_times":[664.394999970682,855.9699999168515,455.9199999785051,719.9750000145286,384.14999993983656],"keys_pressed":["leftarrow","rightarrow","leftarrow","rightarrow","rightarrow"],"horizon":5,"forced_choices":["leftarrow","rightarrow","leftarrow","rightarrow"],"right_color":"lightblue","left_color":"orange","left_mu":60,"right_mu":80,"left_numbers":[53,60,63,57,58],"right_numbers":[74,86,81,76,80],"points_earned":358,"phase":"task","trial_type":"horizons-task","trial_index":83,"time_elapsed":975280,"internal_node_id":"0.0-79.0","task_version":"0.2"},{"response_times":[1128.7000000011176,383.9650000445545,568.085000035353,871.7950000427663,840.0350000010803,215.93499998562038,184.00500004645437,191.8799999402836,192.12499994318932,192.00000003911555],"keys_pressed":["leftarrow","leftarrow","rightarrow","leftarrow","leftarrow","leftarrow","leftarrow","leftarrow","leftarrow","leftarrow"],"horizon":10,"forced_choices":["leftarrow","leftarrow","rightarrow","leftarrow"],"right_color":"orange","left_color":"lightblue","left_mu":40,"right_mu":10,"left_numbers":[29,50,38,37,38,23,41,38,42,44],"right_numbers":[0,19,10,4,16,18,15,2,21,16],"points_earned":352,"phase":"task","trial_type":"horizons-task","trial_index":84,"time_elapsed":981551,"internal_node_id":"0.0-80.0","task_version":"0.2"},{"response_times":[713.3349999785423,600.0299999723211,519.994999980554,584.0949999401346,2447.8349999990314],"keys_pressed":["rightarrow","leftarrow","leftarrow","rightarrow","rightarrow"],"horizon":5,"forced_choices":["rightarrow","leftarrow","leftarrow","rightarrow"],"right_color":"orange","left_color":"lightblue","left_mu":40,"right_mu":52,"left_numbers":[37,44,43,51,43],"right_numbers":[45,46,43,54,40],"points_earned":226,"phase":"task","trial_type":"horizons-task","trial_index":85,"time_elapsed":987919,"internal_node_id":"0.0-81.0","task_version":"0.2"},{"response_times":[753.2549999887124,271.99999999720603,487.9499999806285,399.77999997790903,1728.1299999449402,267.9299999726936,199.9849999556318,167.9650000296533,184.02000004425645,199.92499996442348],"keys_pressed":["leftarrow","leftarrow","rightarrow","rightarrow","leftarrow","leftarrow","leftarrow","leftarrow","leftarrow","leftarrow"],"horizon":10,"forced_choices":["leftarrow","leftarrow","rightarrow","rightarrow"],"right_color":"lightblue","left_color":"orange","left_mu":40,"right_mu":44,"left_numbers":[47,29,40,36,33,37,58,42,39,43],"right_numbers":[47,45,41,33,43,47,31,55,34,51],"points_earned":402,"phase":"task","trial_type":"horizons-task","trial_index":86,"time_elapsed":994083,"internal_node_id":"0.0-82.0","task_version":"0.2"},{"response_times":[847.1750000026077,519.7199999820441,815.9349999623373,568.0399999255314,1679.9549999414012,183.77500004135072,184.05499996151775,183.9749999344349,168.20999991614372,167.90000000037253],"keys_pressed":["leftarrow","rightarrow","leftarrow","leftarrow","rightarrow","rightarrow","rightarrow","rightarrow","rightarrow","rightarrow"],"horizon":10,"forced_choices":["leftarrow","rightarrow","leftarrow","leftarrow"],"right_color":"orange","left_color":"lightblue","left_mu":40,"right_mu":48,"left_numbers":[36,46,43,40,41,52,27,35,32,45],"right_numbers":[37,54,49,55,53,42,46,49,36,54],"points_earned":453,"phase":"task","trial_type":"horizons-task","trial_index":87,"time_elapsed":1000907,"internal_node_id":"0.0-83.0","task_version":"0.2"},{"response_times":[1161.4250000566244,384.26500000059605,1135.759999975562,415.96000001300126,1800.1299999887124,4647.765000001527,231.71999992337078,200.17999992705882,175.87499995715916,176.0449999710545],"keys_pressed":["rightarrow","rightarrow","rightarrow","leftarrow","leftarrow","leftarrow","leftarrow","leftarrow","leftarrow","leftarrow"],"horizon":10,"forced_choices":["rightarrow","rightarrow","rightarrow","leftarrow"],"right_color":"orange","left_color":"lightblue","left_mu":40,"right_mu":36,"left_numbers":[32,38,40,53,36,42,34,27,38,51],"right_numbers":[40,48,35,32,45,38,31,31,25,28],"points_earned":404,"phase":"task","trial_type":"horizons-task","trial_index":88,"time_elapsed":1012739,"internal_node_id":"0.0-84.0","task_version":"0.2"},{"response_times":[657.4050000635907,295.81500007770956,519.9850000208244,736.0999999800697,2384.015000076033],"keys_pressed":["leftarrow","leftarrow","rightarrow","leftarrow","leftarrow"],"horizon":5,"forced_choices":["leftarrow","leftarrow","rightarrow","leftarrow"],"right_color":"orange","left_color":"lightblue","left_mu":40,"right_mu":10,"left_numbers":[26,38,36,36,51],"right_numbers":[1,15,0,9,8],"points_earned":151,"phase":"task","trial_type":"horizons-task","trial_index":89,"time_elapsed":1018835,"internal_node_id":"0.0-85.0","task_version":"0.2"},{"response_times":[801.6250000800937,479.88999995868653,743.9899999881163,768.0000000400469,1983.9449999853969],"keys_pressed":["rightarrow","leftarrow","rightarrow","leftarrow","leftarrow"],"horizon":5,"forced_choices":["rightarrow","leftarrow","rightarrow","leftarrow"],"right_color":"lightblue","left_color":"orange","left_mu":60,"right_mu":64,"left_numbers":[70,75,44,56,48],"right_numbers":[58,68,58,93,61],"points_earned":295,"phase":"task","trial_type":"horizons-task","trial_index":90,"time_elapsed":1025115,"internal_node_id":"0.0-86.0","task_version":"0.2"},{"response_times":[580.7700000004843,591.9800000265241,527.9299999820068,968.1349999736995,815.6149999704212],"keys_pressed":["leftarrow","rightarrow","rightarrow","rightarrow","leftarrow"],"horizon":5,"forced_choices":["leftarrow","rightarrow","rightarrow","rightarrow"],"right_color":"lightblue","left_color":"orange","left_mu":40,"right_mu":44,"left_numbers":[42,32,34,43,52],"right_numbers":[62,38,36,36,43],"points_earned":204,"phase":"task","trial_type":"horizons-task","trial_index":91,"time_elapsed":1030103,"internal_node_id":"0.0-87.0","task_version":"0.2"},{"rt":16253.985000075772,"responses":{"age":"44","gender-categorical":"Female","gender-free-response":"","ethnicity":"Not Hispanic or Latino","race":["White"],"language":"Yes","fluency":"Very well"},"survey":"demographics","trial_type":"survey-demo","trial_index":92,"time_elapsed":1046360,"internal_node_id":"0.0-88.0","task_version":"0.2"},{"rt":23316.525000031106,"responses":{"difficulty":"4","fun":"2","clarity":"4","strategy":"Looked for patterns and guessed","feedback":""},"survey":"debrief","trial_type":"survey-debrief","trial_index":93,"time_elapsed":1069680,"internal_node_id":"0.0-89.0","task_version":"0.2","interactions":"[]"}]