[{"view_history":"[{\"page_index\":0,\"viewing_time\":2810.9950000070967}]","rt":2811.4000000059605,"trial_type":"instructions","trial_index":0,"time_elapsed":2818,"internal_node_id":"0.0-0.0","task_version":"0.2"},{"item_order":[2,0,3,10,1,8,4,7,11,16,12,6,15,14,5,13,9],"responses":{"Q03":"2","Q01":"2","Q04":"1","Q11":"1","Q02":"1","Q09":"1","Q05":"1","Q08":"3","Q12":"1","Q17":"0","Q13":"1","Q07":"0","Q16":"1","Q15":"0","Q06":"2","Q14":"1","Q10":"4"},"radio_events":[8203.184999991208,10451.090000045951,11454.805000044871,14843.335000041407,16147.775000019465,21322.84500001697,26766.980000014883,29168.115000007674,31218.985000043176,32363.185000023805,36122.02500004787,39211.08000003733,39396.02000004379,42263.0600000266,45536.88000002876,47259.350000007544,50641.08500001021,52243.190000008326,54567.075000028126],"key_events":[],"mouse_events":[3.695000021252781,5529.979999992065,8203.184999991208,10451.090000045951,11454.805000044871,14843.335000041407,16147.775000019465,20475.02000001259,21022.990000026766,21322.84500001697,26766.980000014883,29168.115000007674,29946.975000028033,30851.93000000436,31218.985000043176,32363.185000023805,36122.02500004787,39211.08000003733,39396.02000004379,40678.23000001954,42263.0600000266,44713.140000007115,45536.88000002876,46489.029999997,47259.350000007544,49733.104999992065,50641.08500001021,52243.190000008326,54567.075000028126,55751.19999999879],"rt":55753.69500002125,"survey":"pswq","trial_type":"survey-template","trial_index":1,"time_elapsed":58576,"internal_node_id":"0.0-1.0","task_version":"0.2"},{"item_order":[4,3,15,14,9,13,10,7,11,12,1,6,8,0,5,2],"responses":{"Q05":"2","Q04":"3","Q16":"5","Q15":"3","Q10":"2","Q14":"2","Q11":"1","Q08":"2","Q12":"3","Q13":"3","Q02":"2","Q07":"3","Q09":"3","Q01":"2","Q06":"3","Q03":"1"},"radio_events":[13334.544999990612,19628.859999997076,22723.784999980126,25092.490000010002,28287.499999976717,33167.714999988675,37586.650000012014,42188.65999998525,50790.749999985565,56493.46000002697,58182.14500002796,59987.47500003083,63726.650000025984,65848.25999999885,70188.59000003431,72922.55000001751],"key_events":[],"mouse_events":[12709.600000001956,13334.544999990612,19628.859999997076,22723.784999980126,25092.490000010002,28287.499999976717,33167.714999988675,37066.33000000147,37586.650000012014,40880.74500003131,41804.400000022724,42188.65999998525,50790.749999985565,52365.69499998586,52988.90499997651,56493.46000002697,57376.62500003353,57796.65000003297,58182.14500002796,59987.47500003083,63726.650000025984,65848.25999999885,70188.59000003431,72365.68500002613,72922.55000001751,73948.2399999979],"rt":73950.58000000427,"survey":"nfc","trial_type":"survey-template","trial_index":2,"time_elapsed":132532,"internal_node_id":"0.0-2.0","task_version":"0.2"},{"item_order":[9,7,12,2,8,6,4,5,10,3,11,1,0],"responses":{"Q10":"1","Q08":"2","Q13":"4","Q03":"2","Q09":"1","Q07":"1","Q05":"3","Q06":"0","Q11":"0","Q04":"0","Q12":"1","Q02":"0","Q01":"0"},"radio_events":[5552.589999977499,10026.795000012498,12694.25499998033,19179.55499998061,22287.499999976717,29226.699999999255,34459.07499996247,38609.60999998497,42730.47499998938,46961.459999962244,49459.109999996144,52025.91999998549,53261.54999999562,55021.41499996651],"key_events":[],"mouse_events":[4009.84499999322,4611.295000009704,5552.589999977499,10026.795000012498,12694.25499998033,19179.55499998061,22287.499999976717,29226.699999999255,34459.07499996247,38081.62999997148,38609.60999998497,42730.47499998938,46961.459999962244,49459.109999996144,52025.91999998549,53261.54999999562,55021.41499996651,55812.54000001354],"rt":55814.094999979716,"survey":"ius12","trial_type":"survey-template","trial_index":3,"time_elapsed":188351,"internal_node_id":"0.0-3.0","task_version":"0.2"},{"view_history":"[{\"page_index\":0,\"viewing_time\":3039.1599999857135},{\"page_index\":1,\"viewing_time\":3309.8899999749847},{\"page_index\":2,\"viewing_time\":5677.919999987353},{\"page_index\":3,\"viewing_time\":5178.955000010319},{\"page_index\":4,\"viewing_time\":4662.025000026915},{\"page_index\":5,\"viewing_time\":2350.0800000038},{\"page_index\":6,\"viewing_time\":4422.384999983478},{\"page_index\":7,\"viewing_time\":7344.645000004675},{\"page_index\":8,\"viewing_time\":7570.089999993797},{\"page_index\":9,\"viewing_time\":5951.010000018869}]","rt":49507.4049999821,"trial_type":"instructions","trial_index":4,"time_elapsed":237860,"internal_node_id":"0.0-4.0-0.0","task_version":"0.2"},{"response_times":[6290.619999985211,646.85499999905,463.9200000092387,568.009999988135,1280.0000000279397],"keys_pressed":["rightarrow","leftarrow","rightarrow","rightarrow","leftarrow"],"horizon":5,"forced_choices":["rightarrow","leftarrow","rightarrow","rightarrow"],"right_color":"lightblue","left_color":"orange","left_mu":40,"right_mu":20,"left_numbers":[39,42,38,26,48],"right_numbers":[18,18,11,28,20],"points_earned":147,"phase":"practice","trial_type":"horizons-task","trial_index":5,"time_elapsed":248612,"internal_node_id":"0.0-4.0-1.0","task_version":"0.2"},{"response_times":[1121.8700000317767,456.06999995652586,463.820000004489,472.0550000201911,1183.9099999633618,2280.274999968242,1687.7650000387803,2477.740000002086,1530.129999970086,1191.965000005439],"keys_pressed":["leftarrow","leftarrow","rightarrow","rightarrow","leftarrow","rightarrow","rightarrow","rightarrow","leftarrow","rightarrow"],"horizon":10,"forced_choices":["leftarrow","leftarrow","rightarrow","rightarrow"],"right_color":"orange","left_color":"lightblue","left_mu":60,"right_mu":70,"left_numbers":[60,51,51,57,60,72,55,65,59,66],"right_numbers":[69,70,73,71,69,72,69,59,62,78],"points_earned":652,"phase":"practice","trial_type":"horizons-task","trial_index":6,"time_elapsed":262982,"internal_node_id":"0.0-4.0-2.0","task_version":"0.2"},{"view_history":"[{\"page_index\":0,\"viewing_time\":4282.869999995455},{\"page_index\":1,\"viewing_time\":3590.059999958612},{\"page_index\":2,\"viewing_time\":2402.1100000245497},{\"page_index\":3,\"viewing_time\":2669.8600000236183}]","rt":12945.194999978412,"trial_type":"instructions","trial_index":7,"time_elapsed":275928,"internal_node_id":"0.0-4.0-3.0","task_version":"0.2"},{"responses":["true","false","true"],"num_errors":0,"rt":9388.739999965765,"trial_type":"horizons-comprehension","trial_index":8,"time_elapsed":285319,"internal_node_id":"0.0-4.0-4.0","task_version":"0.2"},{"trial_type":"call-function","trial_index":9,"time_elapsed":285322,"internal_node_id":"0.0-5.0","task_version":"0.2"},{"view_history":"[{\"page_index\":0,\"viewing_time\":1972.2249999758787},{\"page_index\":1,\"viewing_time\":4837.975000031292}]","rt":6810.530000017025,"trial_type":"instructions","trial_index":10,"time_elapsed":292133,"internal_node_id":"0.0-6.0","task_version":"0.2"},{"response_times":[2565.0649999734014,399.730000004638,431.92000000271946,391.96500001708046,1919.9699999880977,1079.9999999580905,1103.975000034552,943.9600000041537,1312.2050000238232,1031.745000043884],"keys_pressed":["leftarrow","rightarrow","rightarrow","rightarrow","leftarrow","leftarrow","leftarrow","leftarrow","rightarrow","leftarrow"],"horizon":10,"forced_choices":["leftarrow","rightarrow","rightarrow","rightarrow"],"right_color":"orange","left_color":"lightblue","left_mu":40,"right_mu":32,"left_numbers":[25,44,41,33,34,54,46,36,33,53],"right_numbers":[32,18,28,34,26,28,26,40,52,42],"points_earned":380,"phase":"task","trial_type":"horizons-task","trial_index":11,"time_elapsed":304820,"internal_node_id":"0.0-7.0","task_version":"0.2"},{"response_times":[1769.7950000292622,3112.005000002682,1352.065000042785,1680.0400000065565,4359.92499999702],"keys_pressed":["rightarrow","leftarrow","rightarrow","rightarrow","leftarrow"],"horizon":5,"forced_choices":["rightarrow","leftarrow","rightarrow","rightarrow"],"right_color":"lightblue","left_color":"orange","left_mu":40,"right_mu":28,"left_numbers":[46,52,47,42,33],"right_numbers":[18,30,25,35,29],"points_earned":163,"phase":"task","trial_type":"horizons-task","trial_index":12,"time_elapsed":318596,"internal_node_id":"0.0-8.0","task_version":"0.2"},{"response_times":[2338.2350000320002,1183.9949999703094,1024.0550000453368,1295.879999990575,4109.440000029281],"keys_pressed":["leftarrow","rightarrow","leftarrow","rightarrow","leftarrow"],"horizon":5,"forced_choices":["leftarrow","rightarrow","leftarrow","rightarrow"],"right_color":"lightblue","left_color":"orange","left_mu":40,"right_mu":20,"left_numbers":[64,39,37,31,52],"right_numbers":[23,30,19,20,7],"points_earned":203,"phase":"task","trial_type":"horizons-task","trial_index":13,"time_elapsed":330050,"internal_node_id":"0.0-9.0","task_version":"0.2"},{"response_times":[627.9750000103377,527.99499995308,703.8950000423938,640.0050000520423,2816.1850000033155],"keys_pressed":["rightarrow","leftarrow","rightarrow","leftarrow","leftarrow"],"horizon":5,"forced_choices":["rightarrow","leftarrow","rightarrow","leftarrow"],"right_color":"orange","left_color":"lightblue","left_mu":60,"right_mu":30,"left_numbers":[61,55,54,66,67],"right_numbers":[16,26,27,24,6],"points_earned":231,"phase":"task","trial_type":"horizons-task","trial_index":14,"time_elapsed":336869,"internal_node_id":"0.0-10.0","task_version":"0.2"},{"response_times":[625.0100000179373,680.1250000135042,559.8599999793805,616.0249999957159,7024.205000023358],"keys_pressed":["leftarrow","rightarrow","leftarrow","rightarrow","leftarrow"],"horizon":5,"forced_choices":["leftarrow","rightarrow","leftarrow","rightarrow"],"right_color":"lightblue","left_color":"orange","left_mu":60,"right_mu":80,"left_numbers":[61,50,51,60,54],"right_numbers":[81,70,86,79,92],"points_earned":315,"phase":"task","trial_type":"horizons-task","trial_index":15,"time_elapsed":347877,"internal_node_id":"0.0-11.0","task_version":"0.2"},{"response_times":[672.8850000072271,399.96499998960644,623.9900000509806,1935.9699999913573,2496.004999964498],"keys_pressed":["leftarrow","rightarrow","leftarrow","leftarrow","rightarrow"],"horizon":5,"forced_choices":["leftarrow","rightarrow","leftarrow","leftarrow"],"right_color":"lightblue","left_color":"orange","left_mu":40,"right_mu":10,"left_numbers":[39,46,34,31,33],"right_numbers":[19,3,4,15,11],"points_earned":118,"phase":"task","trial_type":"horizons-task","trial_index":16,"time_elapsed":355509,"internal_node_id":"0.0-12.0","task_version":"0.2"},{"response_times":[673.9199999719858,528.0250000068918,1015.7800000160933,511.97499997215346,4200.13499999186,2223.8650000072084,1504.0199999930337,1936.1400000052527,743.7149999896064,800.0250000040978],"keys_pressed":["leftarrow","rightarrow","rightarrow","leftarrow","leftarrow","rightarrow","rightarrow","leftarrow","rightarrow","leftarrow"],"horizon":10,"forced_choices":["leftarrow","rightarrow","rightarrow","leftarrow"],"right_color":"lightblue","left_color":"orange","left_mu":60,"right_mu":64,"left_numbers":[55,40,60,60,51,63,32,51,62,61],"right_numbers":[63,68,78,56,59,69,60,63,54,69],"points_earned":607,"phase":"task","trial_type":"horizons-task","trial_index":17,"time_elapsed":371157,"internal_node_id":"0.0-13.0","task_version":"0.2"},{"response_times":[681.8600000115111,623.7049999763258,567.9599999566562,495.9800000069663,2576.0750000481494],"keys_pressed":["leftarrow","rightarrow","rightarrow","rightarrow","leftarrow"],"horizon":5,"forced_choices":["leftarrow","rightarrow","rightarrow","rightarrow"],"right_color":"lightblue","left_color":"orange","left_mu":60,"right_mu":64,"left_numbers":[49,59,64,55,56],"right_numbers":[62,58,65,64,56],"points_earned":292,"phase":"task","trial_type":"horizons-task","trial_index":18,"time_elapsed":377605,"internal_node_id":"0.0-14.0","task_version":"0.2"},{"response_times":[570.125000027474,367.72499996004626,431.97500001406297,847.9800000204705,1568.0500000016764,751.9500000053085,791.9150000088848,1320.0599999981932,935.9699999913573,983.9700000011362],"keys_pressed":["rightarrow","leftarrow","leftarrow","leftarrow","rightarrow","leftarrow","rightarrow","rightarrow","rightarrow","rightarrow"],"horizon":10,"forced_choices":["rightarrow","leftarrow","leftarrow","leftarrow"],"right_color":"orange","left_color":"lightblue","left_mu":60,"right_mu":72,"left_numbers":[51,63,62,78,61,39,60,64,51,54],"right_numbers":[58,61,62,67,77,70,81,69,88,78],"points_earned":693,"phase":"task","trial_type":"horizons-task","trial_index":19,"time_elapsed":387677,"internal_node_id":"0.0-15.0","task_version":"0.2"},{"response_times":[3225.719999987632,407.9749999800697,815.8750000293367,567.9150000214577,1320.0599999981932],"keys_pressed":["rightarrow","leftarrow","leftarrow","leftarrow","leftarrow"],"horizon":5,"forced_choices":["rightarrow","leftarrow","leftarrow","leftarrow"],"right_color":"orange","left_color":"lightblue","left_mu":60,"right_mu":72,"left_numbers":[65,56,56,67,62],"right_numbers":[83,62,66,66,68],"points_earned":324,"phase":"task","trial_type":"horizons-task","trial_index":20,"time_elapsed":395517,"internal_node_id":"0.0-16.0","task_version":"0.2"},{"response_times":[505.4799999925308,423.9249999518506,472.0250000245869,543.9149999874644,1255.9999999939464],"keys_pressed":["leftarrow","rightarrow","rightarrow","leftarrow","rightarrow"],"horizon":5,"forced_choices":["leftarrow","rightarrow","rightarrow","leftarrow"],"right_color":"lightblue","left_color":"orange","left_mu":40,"right_mu":48,"left_numbers":[45,39,25,26,45],"right_numbers":[46,58,48,42,43],"points_earned":220,"phase":"task","trial_type":"horizons-task","trial_index":21,"time_elapsed":400221,"internal_node_id":"0.0-17.0","task_version":"0.2"},{"response_times":[520.8500000298955,520.0999999651685,543.839999998454,607.9850000096485,864.0400000149384],"keys_pressed":["leftarrow","leftarrow","rightarrow","leftarrow","leftarrow"],"horizon":5,"forced_choices":["leftarrow","leftarrow","rightarrow","leftarrow"],"right_color":"lightblue","left_color":"orange","left_mu":60,"right_mu":48,"left_numbers":[67,40,73,64,54],"right_numbers":[52,40,64,40,48],"points_earned":289,"phase":"task","trial_type":"horizons-task","trial_index":22,"time_elapsed":404781,"internal_node_id":"0.0-18.0","task_version":"0.2"},{"response_times":[673.5350000089966,375.7000000332482,424.2250000243075,895.844999991823,1431.9249999825843,791.9750000000931,1208.020000020042,888.0950000020675,903.8949999958277,791.9800000381656],"keys_pressed":["leftarrow","rightarrow","leftarrow","leftarrow","leftarrow","rightarrow","leftarrow","leftarrow","rightarrow","leftarrow"],"horizon":10,"forced_choices":["leftarrow","rightarrow","leftarrow","leftarrow"],"right_color":"orange","left_color":"lightblue","left_mu":40,"right_mu":36,"left_numbers":[25,50,45,47,26,46,44,18,27,44],"right_numbers":[38,24,33,30,28,26,35,31,39,35],"points_earned":338,"phase":"task","trial_type":"horizons-task","trial_index":23,"time_elapsed":414670,"internal_node_id":"0.0-19.0","task_version":"0.2"},{"response_times":[620.519999996759,399.8499999870546,1072.0049999654293,767.9799999459647,1904.080000007525,879.9599999911152,1800.1299999887124,799.7399999876507,879.9499999731779,735.9699999797158],"keys_pressed":["rightarrow","leftarrow","leftarrow","rightarrow","leftarrow","leftarrow","leftarrow","leftarrow","rightarrow","leftarrow"],"horizon":10,"forced_choices":["rightarrow","leftarrow","leftarrow","rightarrow"],"right_color":"orange","left_color":"lightblue","left_mu":40,"right_mu":44,"left_numbers":[36,38,36,42,49,44,43,43,28,44],"right_numbers":[45,44,30,47,31,45,45,41,41,43],"points_earned":430,"phase":"task","trial_type":"horizons-task","trial_index":24,"time_elapsed":426046,"internal_node_id":"0.0-20.0","task_version":"0.2"},{"response_times":[729.2850000085309,391.94500003941357,791.9849999598227,639.9700000183657,1632.099999987986,759.8649999708869,679.9749999772757,648.1100000091828,623.8399999565445,488.03999996744096],"keys_pressed":["leftarrow","rightarrow","rightarrow","rightarrow","leftarrow","rightarrow","leftarrow","leftarrow","rightarrow","leftarrow"],"horizon":10,"forced_choices":["leftarrow","rightarrow","rightarrow","rightarrow"],"right_color":"orange","left_color":"lightblue","left_mu":60,"right_mu":52,"left_numbers":[53,52,63,65,52,52,49,50,56,68],"right_numbers":[52,47,51,43,51,48,58,57,38,41],"points_earned":499,"phase":"task","trial_type":"horizons-task","trial_index":25,"time_elapsed":434933,"internal_node_id":"0.0-21.0","task_version":"0.2"},{"response_times":[1217.8700000513345,535.8899999991991,1256.050000025425,735.9099999885075,1311.9699999806471,823.9850000245497,983.9599999831989,776.1249999748543,951.8549999920651,680.0149999908172],"keys_pressed":["leftarrow","rightarrow","leftarrow","rightarrow","leftarrow","leftarrow","leftarrow","leftarrow","leftarrow","leftarrow"],"horizon":10,"forced_choices":["leftarrow","rightarrow","leftarrow","rightarrow"],"right_color":"orange","left_color":"lightblue","left_mu":60,"right_mu":52,"left_numbers":[66,61,51,56,65,46,76,57,61,61],"right_numbers":[50,61,57,66,42,49,60,58,61,56],"points_earned":610,"phase":"task","trial_type":"horizons-task","trial_index":26,"time_elapsed":445709,"internal_node_id":"0.0-22.0","task_version":"0.2"},{"response_times":[1441.8799999984913,1791.9049999909475,991.9449999579228,1216.0400000284426,863.9599999878556,1224.1350000258535,655.7299999985844,959.9799999850802,791.945000004489,640.0049999938346],"keys_pressed":["leftarrow","leftarrow","rightarrow","rightarrow","rightarrow","leftarrow","rightarrow","rightarrow","leftarrow","rightarrow"],"horizon":10,"forced_choices":["leftarrow","leftarrow","rightarrow","rightarrow"],"right_color":"lightblue","left_color":"orange","left_mu":40,"right_mu":28,"left_numbers":[42,30,53,41,39,34,29,33,36,46],"right_numbers":[22,18,34,33,18,25,40,20,31,13],"points_earned":300,"phase":"task","trial_type":"horizons-task","trial_index":27,"time_elapsed":457790,"internal_node_id":"0.0-23.0","task_version":"0.2"},{"response_times":[593.1700000073761,1088.1749999825843,1576.6849999781698,1015.0700000231154,1144.0350000048056,960.1649999967776,727.7000000467524,960.0199999986216,559.9550000042655,648.0749999755062],"keys_pressed":["rightarrow","leftarrow","rightarrow","rightarrow","rightarrow","rightarrow","rightarrow","rightarrow","leftarrow","rightarrow"],"horizon":10,"forced_choices":["rightarrow","leftarrow","rightarrow","rightarrow"],"right_color":"orange","left_color":"lightblue","left_mu":40,"right_mu":60,"left_numbers":[36,31,17,23,49,35,41,38,21,36],"right_numbers":[64,48,68,58,49,60,52,53,60,70],"points_earned":526,"phase":"task","trial_type":"horizons-task","trial_index":28,"time_elapsed":468565,"internal_node_id":"0.0-24.0","task_version":"0.2"},{"response_times":[577.9000000329688,671.8600000021979,767.9749999660999,776.0000000125729,5552.169999980833,1239.8599999723956,703.8950000423938,840.0250000413507,679.8550000530668,616.0099999979138],"keys_pressed":["rightarrow","leftarrow","leftarrow","rightarrow","rightarrow","leftarrow","rightarrow","rightarrow","leftarrow","rightarrow"],"horizon":10,"forced_choices":["rightarrow","leftarrow","leftarrow","rightarrow"],"right_color":"lightblue","left_color":"orange","left_mu":60,"right_mu":56,"left_numbers":[55,58,56,71,70,60,65,65,54,51],"right_numbers":[66,63,71,52,50,55,58,58,47,62],"points_earned":574,"phase":"task","trial_type":"horizons-task","trial_index":29,"time_elapsed":482494,"internal_node_id":"0.0-25.0","task_version":"0.2"},{"response_times":[769.7199999820441,418.2600000058301,3501.850000000559,951.824999996461,775.8799999719486,567.9949999903329,632.0449999766424,623.9049999858253,703.9900000090711,608.0150000052527],"keys_pressed":["leftarrow","rightarrow","rightarrow","leftarrow","rightarrow","rightarrow","rightarrow","rightarrow","rightarrow","rightarrow"],"horizon":10,"forced_choices":["leftarrow","rightarrow","rightarrow","leftarrow"],"right_color":"orange","left_color":"lightblue","left_mu":60,"right_mu":72,"left_numbers":[50,79,37,58,61,49,58,67,46,73],"right_numbers":[64,64,73,77,63,68,66,73,87,88],"points_earned":690,"phase":"task","trial_type":"horizons-task","trial_index":30,"time_elapsed":493550,"internal_node_id":"0.0-26.0","task_version":"0.2"},{"response_times":[617.9249999695458,1423.850000021048,991.9499999959953,1655.994999979157,1359.9450000328943],"keys_pressed":["rightarrow","leftarrow","leftarrow","leftarrow","rightarrow"],"horizon":5,"forced_choices":["rightarrow","leftarrow","leftarrow","leftarrow"],"right_color":"lightblue","left_color":"orange","left_mu":40,"right_mu":20,"left_numbers":[45,45,38,52,35],"right_numbers":[29,22,26,12,16],"points_earned":180,"phase":"task","trial_type":"horizons-task","trial_index":31,"time_elapsed":501102,"internal_node_id":"0.0-27.0","task_version":"0.2"},{"response_times":[824.895000027027,1047.9749999940395,1088.095000013709,791.8449999997392,1167.9949999670498,887.9549999837764,904.1200000210665,855.8049999992363,880.124999966938,719.8400000343099],"keys_pressed":["rightarrow","rightarrow","leftarrow","leftarrow","leftarrow","leftarrow","leftarrow","leftarrow","leftarrow","leftarrow"],"horizon":10,"forced_choices":["rightarrow","rightarrow","leftarrow","leftarrow"],"right_color":"lightblue","left_color":"orange","left_mu":60,"right_mu":40,"left_numbers":[60,77,58,58,62,65,67,56,64,43],"right_numbers":[22,46,25,45,40,36,42,47,43,38],"points_earned":541,"phase":"task","trial_type":"horizons-task","trial_index":32,"time_elapsed":511773,"internal_node_id":"0.0-28.0","task_version":"0.2"},{"response_times":[737.7599999890663,1520.0000000186265,775.9599999990314,927.9700000188313,4664.20499997912,639.7349999751896,1216.0099999746308,599.9450000235811,719.9799999943934,687.9699999699369],"keys_pressed":["rightarrow","leftarrow","rightarrow","leftarrow","rightarrow","rightarrow","leftarrow","rightarrow","rightarrow","rightarrow"],"horizon":10,"forced_choices":["rightarrow","leftarrow","rightarrow","leftarrow"],"right_color":"orange","left_color":"lightblue","left_mu":40,"right_mu":52,"left_numbers":[38,41,46,31,27,27,31,34,47,36],"right_numbers":[40,59,49,59,54,46,60,45,39,48],"points_earned":424,"phase":"task","trial_type":"horizons-task","trial_index":33,"time_elapsed":525766,"internal_node_id":"0.0-29.0","task_version":"0.2"},{"response_times":[721.5749999741092,679.9699999974109,871.9249999849126,991.9450000161305,872.159999969881,1055.9549999888986,711.8250000057742,823.9850000245497,856.0649999999441,591.8750000419095],"keys_pressed":["leftarrow","leftarrow","rightarrow","leftarrow","leftarrow","leftarrow","rightarrow","leftarrow","leftarrow","leftarrow"],"horizon":10,"forced_choices":["leftarrow","leftarrow","rightarrow","leftarrow"],"right_color":"lightblue","left_color":"orange","left_mu":60,"right_mu":48,"left_numbers":[68,56,54,68,48,47,59,64,56,64],"right_numbers":[46,52,53,50,54,50,52,52,45,51],"points_earned":576,"phase":"task","trial_type":"horizons-task","trial_index":34,"time_elapsed":535446,"internal_node_id":"0.0-30.0","task_version":"0.2"},{"response_times":[601.4749999740161,943.8950000330806,783.9449999737553,1272.1049999818206,5296.119999955408,775.8100000210106,999.9700000043958,783.9699999894947,791.91000002902,679.9549999996088],"keys_pressed":["leftarrow","rightarrow","rightarrow","leftarrow","leftarrow","rightarrow","leftarrow","rightarrow","rightarrow","rightarrow"],"horizon":10,"forced_choices":["leftarrow","rightarrow","rightarrow","leftarrow"],"right_color":"lightblue","left_color":"orange","left_mu":40,"right_mu":48,"left_numbers":[33,40,48,47,34,37,30,48,31,34],"right_numbers":[44,33,47,54,35,40,41,54,36,45],"points_earned":399,"phase":"task","trial_type":"horizons-task","trial_index":35,"time_elapsed":549877,"internal_node_id":"0.0-31.0","task_version":"0.2"},{"response_times":[632.439999957569,848.1049999827519,895.9649999742396,2015.975000045728,1176.0800000047311],"keys_pressed":["rightarrow","leftarrow","leftarrow","rightarrow","rightarrow"],"horizon":5,"forced_choices":["rightarrow","leftarrow","leftarrow","rightarrow"],"right_color":"orange","left_color":"lightblue","left_mu":40,"right_mu":44,"left_numbers":[48,40,42,34,43],"right_numbers":[51,37,54,60,46],"points_earned":239,"phase":"task","trial_type":"horizons-task","trial_index":36,"time_elapsed":556950,"internal_node_id":"0.0-32.0","task_version":"0.2"},{"response_times":[616.8150000157766,16999.995000020135,767.9500000085682,1920.2050000312738,607.7049999730662,687.9900000058115,432.1650000056252,519.7799999732524,760.0700000184588,719.9849999742582],"keys_pressed":["leftarrow","leftarrow","rightarrow","leftarrow","rightarrow","rightarrow","rightarrow","rightarrow","rightarrow","rightarrow"],"horizon":10,"forced_choices":["leftarrow","leftarrow","rightarrow","leftarrow"],"right_color":"orange","left_color":"lightblue","left_mu":40,"right_mu":70,"left_numbers":[32,34,40,46,44,28,36,40,30,44],"right_numbers":[71,82,67,63,62,66,81,67,58,79],"points_earned":592,"phase":"task","trial_type":"horizons-task","trial_index":37,"time_elapsed":582485,"internal_node_id":"0.0-33.0","task_version":"0.2"},{"response_times":[962.0299999951385,608.0000000074506,679.8900000285357,551.9900000072084,1007.9250000417233,912.0800000382587,856.1600000248291,463.71999999973923,416.01000004447997,319.96500003151596],"keys_pressed":["rightarrow","rightarrow","rightarrow","leftarrow","rightarrow","rightarrow","leftarrow","rightarrow","rightarrow","rightarrow"],"horizon":10,"forced_choices":["rightarrow","rightarrow","rightarrow","leftarrow"],"right_color":"lightblue","left_color":"orange","left_mu":40,"right_mu":48,"left_numbers":[32,41,31,37,38,48,38,38,40,38],"right_numbers":[43,47,48,66,44,31,47,56,34,52],"points_earned":430,"phase":"task","trial_type":"horizons-task","trial_index":38,"time_elapsed":590766,"internal_node_id":"0.0-34.0","task_version":"0.2"},{"response_times":[833.1100000068545,887.9350000061095,791.9750000000931,583.9950000518002,1344.0449999761768,864.000000001397,591.855000006035,720.0050000101328,680.0200000288896,408.034999971278],"keys_pressed":["leftarrow","leftarrow","rightarrow","leftarrow","leftarrow","rightarrow","leftarrow","leftarrow","leftarrow","leftarrow"],"horizon":10,"forced_choices":["leftarrow","leftarrow","rightarrow","leftarrow"],"right_color":"orange","left_color":"lightblue","left_mu":40,"right_mu":52,"left_numbers":[40,57,38,42,22,32,51,28,54,40],"right_numbers":[52,54,45,52,61,44,47,50,69,48],"points_earned":423,"phase":"task","trial_type":"horizons-task","trial_index":39,"time_elapsed":599974,"internal_node_id":"0.0-35.0","task_version":"0.2"},{"response_times":[1010.889999975916,599.9450000235811,815.9699999960139,840.0399999809451,1375.9050000226125],"keys_pressed":["rightarrow","rightarrow","leftarrow","rightarrow","rightarrow"],"horizon":5,"forced_choices":["rightarrow","rightarrow","leftarrow","rightarrow"],"right_color":"lightblue","left_color":"orange","left_mu":60,"right_mu":56,"left_numbers":[51,61,60,58,44],"right_numbers":[47,57,48,51,60],"points_earned":275,"phase":"task","trial_type":"horizons-task","trial_index":40,"time_elapsed":606125,"internal_node_id":"0.0-36.0","task_version":"0.2"},{"response_times":[2570.305000001099,615.8249999862164,447.9700000374578,464.0600000275299,1567.9050000035204,647.9200000176206,503.9600000018254,552.0000000251457,488.2499999948777,503.71499999891967],"keys_pressed":["rightarrow","leftarrow","rightarrow","leftarrow","leftarrow","leftarrow","leftarrow","leftarrow","leftarrow","leftarrow"],"horizon":10,"forced_choices":["rightarrow","leftarrow","rightarrow","leftarrow"],"right_color":"orange","left_color":"lightblue","left_mu":60,"right_mu":30,"left_numbers":[58,61,49,60,65,70,51,70,57,72],"right_numbers":[33,33,27,29,34,22,35,43,40,32],"points_earned":566,"phase":"task","trial_type":"horizons-task","trial_index":41,"time_elapsed":615989,"internal_node_id":"0.0-37.0","task_version":"0.2"},{"response_times":[746.225000009872,751.9399999873713,696.1349999764934,735.9900000155903,1623.8000000012107,584.0549999848008,639.9000000092201,591.954999952577,511.96999999228865,448.050000006333],"keys_pressed":["rightarrow","leftarrow","leftarrow","leftarrow","leftarrow","leftarrow","leftarrow","rightarrow","leftarrow","leftarrow"],"horizon":10,"forced_choices":["rightarrow","leftarrow","leftarrow","leftarrow"],"right_color":"lightblue","left_color":"orange","left_mu":40,"right_mu":20,"left_numbers":[41,38,29,42,35,38,34,34,55,37],"right_numbers":[19,21,19,9,15,22,16,18,9,12],"points_earned":345,"phase":"task","trial_type":"horizons-task","trial_index":42,"time_elapsed":624821,"internal_node_id":"0.0-38.0","task_version":"0.2"},{"response_times":[642.2599999932572,1023.9399999845773,479.93499995209277,743.9700000104494,1151.9850000040606,400.14500002143905,471.9150000018999,431.9450000184588,431.8700000294484,368.04500001017004],"keys_pressed":["leftarrow","leftarrow","leftarrow","rightarrow","rightarrow","rightarrow","rightarrow","rightarrow","rightarrow","rightarrow"],"horizon":10,"forced_choices":["leftarrow","leftarrow","leftarrow","rightarrow"],"right_color":"orange","left_color":"lightblue","left_mu":60,"right_mu":68,"left_numbers":[54,49,50,54,70,63,63,58,63,56],"right_numbers":[79,63,76,81,66,75,68,76,75,74],"points_earned":668,"phase":"task","trial_type":"horizons-task","trial_index":43,"time_elapsed":632470,"internal_node_id":"0.0-39.0","task_version":"0.2"},{"response_times":[794.6750000119209,839.8850000230595,815.9300000406802,1304.0150000015274,1607.9250000184402],"keys_pressed":["rightarrow","rightarrow","rightarrow","leftarrow","rightarrow"],"horizon":5,"forced_choices":["rightarrow","rightarrow","rightarrow","leftarrow"],"right_color":"lightblue","left_color":"orange","left_mu":40,"right_mu":48,"left_numbers":[44,51,37,39,51],"right_numbers":[42,37,47,49,51],"points_earned":216,"phase":"task","trial_type":"horizons-task","trial_index":44,"time_elapsed":639342,"internal_node_id":"0.0-40.0","task_version":"0.2"},{"response_times":[545.9099999861792,679.790000023786,920.3299999935552,911.7050000349991,647.9650000110269],"keys_pressed":["rightarrow","rightarrow","leftarrow","leftarrow","rightarrow"],"horizon":5,"forced_choices":["rightarrow","rightarrow","leftarrow","leftarrow"],"right_color":"lightblue","left_color":"orange","left_mu":60,"right_mu":90,"left_numbers":[72,55,66,78,46],"right_numbers":[83,96,89,94,86],"points_earned":409,"phase":"task","trial_type":"horizons-task","trial_index":45,"time_elapsed":644549,"internal_node_id":"0.0-41.0","task_version":"0.2"},{"response_times":[842.4000000231899,543.8549999962561,663.9999999897555,879.9550000112504,1319.9899999890476],"keys_pressed":["leftarrow","rightarrow","leftarrow","rightarrow","rightarrow"],"horizon":5,"forced_choices":["leftarrow","rightarrow","leftarrow","rightarrow"],"right_color":"orange","left_color":"lightblue","left_mu":40,"right_mu":36,"left_numbers":[38,34,33,27,47],"right_numbers":[37,41,38,38,24],"points_earned":174,"phase":"task","trial_type":"horizons-task","trial_index":46,"time_elapsed":650302,"internal_node_id":"0.0-42.0","task_version":"0.2"},{"response_times":[545.7900000037625,479.8050000099465,616.0300000337884,903.9300000295043,888.3500000229105],"keys_pressed":["rightarrow","leftarrow","leftarrow","rightarrow","leftarrow"],"horizon":5,"forced_choices":["rightarrow","leftarrow","leftarrow","rightarrow"],"right_color":"lightblue","left_color":"orange","left_mu":40,"right_mu":10,"left_numbers":[51,40,44,38,35],"right_numbers":[11,14,0,13,27],"points_earned":143,"phase":"task","trial_type":"horizons-task","trial_index":47,"time_elapsed":655239,"internal_node_id":"0.0-43.0","task_version":"0.2"},{"response_times":[578.1800000113435,583.939999982249,640.0499999872409,1135.9749999828637,503.9000000106171,743.964999972377,439.9599999887869,456.0850000125356,463.8799999956973,480.2000000490807],"keys_pressed":["rightarrow","rightarrow","leftarrow","rightarrow","leftarrow","leftarrow","leftarrow","leftarrow","leftarrow","leftarrow"],"horizon":10,"forced_choices":["rightarrow","rightarrow","leftarrow","rightarrow"],"right_color":"orange","left_color":"lightblue","left_mu":60,"right_mu":30,"left_numbers":[51,63,63,79,68,62,52,68,57,59],"right_numbers":[38,16,31,31,33,39,26,14,32,20],"points_earned":514,"phase":"task","trial_type":"horizons-task","trial_index":48,"time_elapsed":662774,"internal_node_id":"0.0-44.0","task_version":"0.2"},{"response_times":[4353.560000017751,503.8899999926798,695.9849999984726,776.0750000015832,671.8649999820627],"keys_pressed":["rightarrow","rightarrow","leftarrow","rightarrow","rightarrow"],"horizon":5,"forced_choices":["rightarrow","rightarrow","leftarrow","rightarrow"],"right_color":"lightblue","left_color":"orange","left_mu":60,"right_mu":80,"left_numbers":[66,64,53,61,63],"right_numbers":[76,73,74,83,80],"points_earned":365,"phase":"task","trial_type":"horizons-task","trial_index":49,"time_elapsed":671277,"internal_node_id":"0.0-45.0","task_version":"0.2"},{"response_times":[561.9650000007823,479.8000000300817,880.040000018198,743.9049999811687,1424.3100000312552,559.6199999563396,512.0149999856949,447.95000000158325,448.0549999861978,511.90499996300787],"keys_pressed":["rightarrow","rightarrow","leftarrow","leftarrow","rightarrow","rightarrow","rightarrow","rightarrow","rightarrow","rightarrow"],"horizon":10,"forced_choices":["rightarrow","rightarrow","leftarrow","leftarrow"],"right_color":"orange","left_color":"lightblue","left_mu":60,"right_mu":68,"left_numbers":[45,68,56,52,62,64,53,56,41,57],"right_numbers":[71,75,75,84,73,64,73,73,71,74],"points_earned":682,"phase":"task","trial_type":"horizons-task","trial_index":50,"time_elapsed":679349,"internal_node_id":"0.0-46.0","task_version":"0.2"},{"view_history":"[{\"page_index\":0,\"viewing_time\":3141.4749999530613},{\"page_index\":1,\"viewing_time\":1445.7550000515766}]","rt":4587.614999967627,"trial_type":"instructions","trial_index":51,"time_elapsed":683937,"internal_node_id":"0.0-47.0","task_version":"0.2"},{"response_times":[3081.884999992326,423.96499996539205,471.96999995503575,791.9000000110827,904.0549999917857,351.9999999552965,408.0149999936111,383.9000000152737,384.0349999954924,399.89000000059605],"keys_pressed":["rightarrow","leftarrow","rightarrow","leftarrow","rightarrow","rightarrow","rightarrow","rightarrow","rightarrow","rightarrow"],"horizon":10,"forced_choices":["rightarrow","leftarrow","rightarrow","leftarrow"],"right_color":"orange","left_color":"lightblue","left_mu":40,"right_mu":70,"left_numbers":[32,32,39,29,39,39,41,43,42,33],"right_numbers":[76,76,76,70,63,71,67,65,86,59],"points_earned":624,"phase":"task","trial_type":"horizons-task","trial_index":52,"time_elapsed":693046,"internal_node_id":"0.0-48.0","task_version":"0.2"},{"response_times":[537.4600000213832,719.7150000138208,687.9400000325404,935.9849999891594,655.9750000014901],"keys_pressed":["leftarrow","leftarrow","rightarrow","rightarrow","leftarrow"],"horizon":5,"forced_choices":["leftarrow","leftarrow","rightarrow","rightarrow"],"right_color":"lightblue","left_color":"orange","left_mu":40,"right_mu":28,"left_numbers":[45,42,44,46,55],"right_numbers":[23,34,22,34,25],"points_earned":198,"phase":"task","trial_type":"horizons-task","trial_index":53,"time_elapsed":698086,"internal_node_id":"0.0-49.0","task_version":"0.2"},{"response_times":[553.7449999828823,631.9649999495596,487.97000001650304,712.0100000174716,511.89000002341345,535.9699999680743,503.995000035502,544.5600000093691,615.410000027623,480.12500000186265],"keys_pressed":["leftarrow","leftarrow","leftarrow","rightarrow","leftarrow","leftarrow","leftarrow","leftarrow","leftarrow","leftarrow"],"horizon":10,"forced_choices":["leftarrow","leftarrow","leftarrow","rightarrow"],"right_color":"lightblue","left_color":"orange","left_mu":60,"right_mu":40,"left_numbers":[72,71,70,45,57,80,64,56,61,56],"right_numbers":[33,35,41,32,46,34,42,40,39,48],"points_earned":619,"phase":"task","trial_type":"horizons-task","trial_index":54,"time_elapsed":705166,"internal_node_id":"0.0-50.0","task_version":"0.2"},{"response_times":[554.3049999978393,599.9350000056438,711.9699999457225,791.9799999799579,687.9199999966659],"keys_pressed":["leftarrow","rightarrow","rightarrow","rightarrow","leftarrow"],"horizon":5,"forced_choices":["leftarrow","rightarrow","rightarrow","rightarrow"],"right_color":"orange","left_color":"lightblue","left_mu":40,"right_mu":32,"left_numbers":[38,38,37,53,43],"right_numbers":[33,24,42,32,40],"points_earned":179,"phase":"task","trial_type":"horizons-task","trial_index":55,"time_elapsed":710021,"internal_node_id":"0.0-51.0","task_version":"0.2"},{"response_times":[570.3299999586307,343.96000002743676,655.945000005886,472.08999999566004,807.874999998603,408.0399999511428,544.0649999654852,415.92499997932464,383.9000000152737,351.9700000179],"keys_pressed":["leftarrow","rightarrow","leftarrow","rightarrow","rightarrow","rightarrow","rightarrow","rightarrow","rightarrow","rightarrow"],"horizon":10,"forced_choices":["leftarrow","rightarrow","leftarrow","rightarrow"],"right_color":"lightblue","left_color":"orange","left_mu":60,"right_mu":80,"left_numbers":[60,62,50,53,60,55,66,75,68,65],"right_numbers":[90,87,71,80,90,73,84,94,83,71],"points_earned":772,"phase":"task","trial_type":"horizons-task","trial_index":56,"time_elapsed":716477,"internal_node_id":"0.0-52.0","task_version":"0.2"},{"response_times":[5177.900000009686,456.00000000558794,599.9200000078417,472.14500000700355,527.8000000398606,576.1299999430776,487.8099999623373,543.9449999830686,456.01500000339,464.0500000095926],"keys_pressed":["rightarrow","leftarrow","leftarrow","rightarrow","leftarrow","leftarrow","leftarrow","leftarrow","leftarrow","leftarrow"],"horizon":10,"forced_choices":["rightarrow","leftarrow","leftarrow","rightarrow"],"right_color":"lightblue","left_color":"orange","left_mu":40,"right_mu":10,"left_numbers":[37,33,25,31,38,33,44,25,41,38],"right_numbers":[6,15,13,11,0,7,21,14,5,8],"points_earned":294,"phase":"task","trial_type":"horizons-task","trial_index":57,"time_elapsed":727741,"internal_node_id":"0.0-53.0","task_version":"0.2"},{"response_times":[1849.8299999628216,480.0999999861233,687.8849999629892,448.08000000193715,951.969999994617,639.9250000249594,503.93999996595085,503.97000001976267,424.02999999467283,336.0499999835156],"keys_pressed":["rightarrow","rightarrow","leftarrow","rightarrow","rightarrow","rightarrow","rightarrow","rightarrow","rightarrow","rightarrow"],"horizon":10,"forced_choices":["rightarrow","rightarrow","leftarrow","rightarrow"],"right_color":"lightblue","left_color":"orange","left_mu":60,"right_mu":56,"left_numbers":[61,64,54,60,54,50,46,51,60,60],"right_numbers":[59,59,52,56,64,53,53,55,68,55],"points_earned":576,"phase":"task","trial_type":"horizons-task","trial_index":58,"time_elapsed":736069,"internal_node_id":"0.0-54.0","task_version":"0.2"},{"response_times":[466.9949999661185,552.0750000141561,479.84500002348796,679.9999999930151,1647.9500000132248,584.0099999913946,576.0250000166707,911.9099999661557,447.95999996131286,239.9849999928847],"keys_pressed":["leftarrow","leftarrow","rightarrow","rightarrow","leftarrow","leftarrow","leftarrow","leftarrow","leftarrow","leftarrow"],"horizon":10,"forced_choices":["leftarrow","leftarrow","rightarrow","rightarrow"],"right_color":"orange","left_color":"lightblue","left_mu":40,"right_mu":32,"left_numbers":[51,26,29,31,45,36,49,45,31,38],"right_numbers":[30,29,34,35,24,28,31,32,18,32],"points_earned":390,"phase":"task","trial_type":"horizons-task","trial_index":59,"time_elapsed":744165,"internal_node_id":"0.0-55.0","task_version":"0.2"},{"response_times":[545.5700000165962,543.8100000028498,1279.9799999920651,896.050000039395,2031.9800000288524,631.9449999718927,631.9350000121631,815.9749999758787,319.9000000022352,256.08500000089407],"keys_pressed":["rightarrow","rightarrow","rightarrow","leftarrow","leftarrow","rightarrow","rightarrow","rightarrow","rightarrow","rightarrow"],"horizon":10,"forced_choices":["rightarrow","rightarrow","rightarrow","leftarrow"],"right_color":"orange","left_color":"lightblue","left_mu":40,"right_mu":44,"left_numbers":[41,34,35,39,31,39,50,36,57,42],"right_numbers":[44,33,42,46,43,51,33,36,49,38],"points_earned":396,"phase":"task","trial_type":"horizons-task","trial_index":60,"time_elapsed":753621,"internal_node_id":"0.0-56.0","task_version":"0.2"},{"response_times":[506.09000003896654,463.8649999978952,384.1649999958463,1087.9900000290945,1503.7950000260025,647.9650000110269,799.9999999883585,607.929999998305,432.04500002320856,455.9199999785051],"keys_pressed":["rightarrow","leftarrow","rightarrow","rightarrow","leftarrow","rightarrow","leftarrow","rightarrow","leftarrow","leftarrow"],"horizon":10,"forced_choices":["rightarrow","leftarrow","rightarrow","rightarrow"],"right_color":"lightblue","left_color":"orange","left_mu":40,"right_mu":28,"left_numbers":[36,53,38,9,30,37,50,30,38,39],"right_numbers":[32,19,40,37,20,25,44,24,24,24],"points_earned":368,"phase":"task","trial_type":"horizons-task","trial_index":61,"time_elapsed":762013,"internal_node_id":"0.0-57.0","task_version":"0.2"},{"response_times":[657.550000003539,663.9749999740161,695.9599999827333,720.7150000031106,575.4000000306405],"keys_pressed":["leftarrow","leftarrow","leftarrow","rightarrow","leftarrow"],"horizon":5,"forced_choices":["leftarrow","leftarrow","leftarrow","rightarrow"],"right_color":"lightblue","left_color":"orange","left_mu":60,"right_mu":40,"left_numbers":[67,58,54,62,62],"right_numbers":[32,37,32,39,37],"points_earned":280,"phase":"task","trial_type":"horizons-task","trial_index":62,"time_elapsed":766830,"internal_node_id":"0.0-58.0","task_version":"0.2"},{"response_times":[650.2099999925122,463.85499997995794,615.9699999843724,751.9849999807775,1272.04500004882,623.9350000396371,1655.9700000216253,487.97999997623265,519.8400000226684,376.10999995376915],"keys_pressed":["leftarrow","rightarrow","rightarrow","rightarrow","rightarrow","rightarrow","leftarrow","rightarrow","rightarrow","rightarrow"],"horizon":10,"forced_choices":["leftarrow","rightarrow","rightarrow","rightarrow"],"right_color":"lightblue","left_color":"orange","left_mu":60,"right_mu":64,"left_numbers":[58,58,53,54,66,68,53,61,67,65],"right_numbers":[66,56,66,68,64,60,77,57,58,68],"points_earned":608,"phase":"task","trial_type":"horizons-task","trial_index":63,"time_elapsed":775758,"internal_node_id":"0.0-59.0","task_version":"0.2"},{"response_times":[601.5349999652244,495.73500000406057,464.03500001179054,983.9949999586679,455.87499998509884],"keys_pressed":["leftarrow","leftarrow","rightarrow","leftarrow","rightarrow"],"horizon":5,"forced_choices":["leftarrow","leftarrow","rightarrow","leftarrow"],"right_color":"orange","left_color":"lightblue","left_mu":40,"right_mu":70,"left_numbers":[42,35,58,36,45],"right_numbers":[71,63,81,72,67],"points_earned":261,"phase":"task","trial_type":"horizons-task","trial_index":64,"time_elapsed":780262,"internal_node_id":"0.0-60.0","task_version":"0.2"},{"response_times":[433.5200000205077,504.05500002671033,616.5449999971315,711.3399999798276,1320.0049999868497],"keys_pressed":["leftarrow","leftarrow","rightarrow","rightarrow","leftarrow"],"horizon":5,"forced_choices":["leftarrow","leftarrow","rightarrow","rightarrow"],"right_color":"lightblue","left_color":"orange","left_mu":60,"right_mu":48,"left_numbers":[57,66,67,61,64],"right_numbers":[46,73,42,43,33],"points_earned":272,"phase":"task","trial_type":"horizons-task","trial_index":65,"time_elapsed":785350,"internal_node_id":"0.0-61.0","task_version":"0.2"},{"response_times":[1746.2550000054762,510.8250000048429,496.02500000037253,607.9499999759719,1512.044999981299],"keys_pressed":["leftarrow","leftarrow","rightarrow","rightarrow","leftarrow"],"horizon":5,"forced_choices":["leftarrow","leftarrow","rightarrow","rightarrow"],"right_color":"orange","left_color":"lightblue","left_mu":40,"right_mu":32,"left_numbers":[36,27,43,38,48],"right_numbers":[37,37,33,16,31],"points_earned":160,"phase":"task","trial_type":"horizons-task","trial_index":66,"time_elapsed":791725,"internal_node_id":"0.0-62.0","task_version":"0.2"},{"response_times":[633.704999985639,479.8799999989569,535.9550000284798,440.24500000523403,663.6799999978393,752.0699999877252,479.9199999542907,400.03999997861683,351.9100000266917,279.92999996058643],"keys_pressed":["rightarrow","leftarrow","leftarrow","leftarrow","rightarrow","rightarrow","rightarrow","rightarrow","rightarrow","rightarrow"],"horizon":10,"forced_choices":["rightarrow","leftarrow","leftarrow","leftarrow"],"right_color":"lightblue","left_color":"orange","left_mu":60,"right_mu":90,"left_numbers":[55,60,52,59,58,73,44,60,52,55],"right_numbers":[99,98,100,88,84,91,91,92,95,102],"points_earned":825,"phase":"task","trial_type":"horizons-task","trial_index":67,"time_elapsed":798244,"internal_node_id":"0.0-63.0","task_version":"0.2"},{"response_times":[442.68999999621883,367.89500003214926,415.88500002399087,439.9950000224635,519.9450000072829],"keys_pressed":["leftarrow","rightarrow","leftarrow","leftarrow","leftarrow"],"horizon":5,"forced_choices":["leftarrow","rightarrow","leftarrow","leftarrow"],"right_color":"orange","left_color":"lightblue","left_mu":40,"right_mu":36,"left_numbers":[40,35,29,53,45],"right_numbers":[47,31,26,28,19],"points_earned":198,"phase":"task","trial_type":"horizons-task","trial_index":68,"time_elapsed":801933,"internal_node_id":"0.0-64.0","task_version":"0.2"},{"response_times":[497.86000000312924,575.8449999848381,543.9899999764748,743.979999970179,944.0649999887682,743.9149999991059,1208.0450000357814,895.95500001451,423.88499999651685,248.13500000163913],"keys_pressed":["leftarrow","leftarrow","rightarrow","rightarrow","leftarrow","leftarrow","rightarrow","leftarrow","leftarrow","leftarrow"],"horizon":10,"forced_choices":["leftarrow","leftarrow","rightarrow","rightarrow"],"right_color":"lightblue","left_color":"orange","left_mu":60,"right_mu":48,"left_numbers":[59,55,53,62,64,44,54,61,70,56],"right_numbers":[47,35,42,55,45,46,47,50,65,51],"points_earned":553,"phase":"task","trial_type":"horizons-task","trial_index":69,"time_elapsed":810262,"internal_node_id":"0.0-65.0","task_version":"0.2"},{"response_times":[490.1650000247173,416.03500000201166,623.9949999726377,847.925000009127,632.004999963101,359.88499998347834,335.98000003257766,351.9700000179,367.98499996075407,287.95999998692423],"keys_pressed":["rightarrow","leftarrow","leftarrow","rightarrow","rightarrow","rightarrow","rightarrow","rightarrow","rightarrow","rightarrow"],"horizon":10,"forced_choices":["rightarrow","leftarrow","leftarrow","rightarrow"],"right_color":"orange","left_color":"lightblue","left_mu":40,"right_mu":60,"left_numbers":[52,22,34,52,46,31,39,38,37,28],"right_numbers":[64,67,65,60,55,51,59,53,66,63],"points_earned":527,"phase":"task","trial_type":"horizons-task","trial_index":70,"time_elapsed":816486,"internal_node_id":"0.0-66.0","task_version":"0.2"},{"response_times":[473.2899999944493,576.1049999855459,1199.8550000134856,496.41999998129904,1023.6049999948591],"keys_pressed":["rightarrow","rightarrow","rightarrow","leftarrow","rightarrow"],"horizon":5,"forced_choices":["rightarrow","rightarrow","rightarrow","leftarrow"],"right_color":"orange","left_color":"lightblue","left_mu":40,"right_mu":44,"left_numbers":[36,39,34,44,22],"right_numbers":[42,55,52,43,40],"points_earned":233,"phase":"task","trial_type":"horizons-task","trial_index":71,"time_elapsed":821757,"internal_node_id":"0.0-67.0","task_version":"0.2"},{"response_times":[522.144999995362,575.8749999804422,543.9599999808706,728.0649999738671,487.9899999941699,439.9549999507144,479.9099999945611,327.95499998610467,256.0500000254251,263.89000000199303],"keys_pressed":["rightarrow","rightarrow","leftarrow","leftarrow","rightarrow","rightarrow","rightarrow","rightarrow","rightarrow","rightarrow"],"horizon":10,"forced_choices":["rightarrow","rightarrow","leftarrow","leftarrow"],"right_color":"lightblue","left_color":"orange","left_mu":60,"right_mu":90,"left_numbers":[50,58,57,63,67,60,51,67,71,60],"right_numbers":[91,88,90,89,93,85,101,80,90,84],"points_earned":832,"phase":"task","trial_type":"horizons-task","trial_index":72,"time_elapsed":827885,"internal_node_id":"0.0-68.0","task_version":"0.2"},{"response_times":[520.7599999848753,591.9050000375137,632.0899999700487,487.8899999894202,455.9199999785051],"keys_pressed":["rightarrow","leftarrow","leftarrow","leftarrow","rightarrow"],"horizon":5,"forced_choices":["rightarrow","leftarrow","leftarrow","leftarrow"],"right_color":"lightblue","left_color":"orange","left_mu":60,"right_mu":90,"left_numbers":[51,52,58,65,67],"right_numbers":[91,95,93,85,98],"points_earned":364,"phase":"task","trial_type":"horizons-task","trial_index":73,"time_elapsed":832085,"internal_node_id":"0.0-69.0","task_version":"0.2"},{"response_times":[474.40499998629093,375.9499999578111,399.9800000456162,1360.0250000017695,375.96999999368563],"keys_pressed":["rightarrow","leftarrow","rightarrow","leftarrow","rightarrow"],"horizon":5,"forced_choices":["rightarrow","leftarrow","rightarrow","leftarrow"],"right_color":"orange","left_color":"lightblue","left_mu":40,"right_mu":52,"left_numbers":[32,27,43,35,36],"right_numbers":[51,50,63,58,51],"points_earned":227,"phase":"task","trial_type":"horizons-task","trial_index":74,"time_elapsed":836573,"internal_node_id":"0.0-70.0","task_version":"0.2"},{"response_times":[410.36500001791865,431.91500002285466,488.004999991972,496.0500000161119,1103.8800000096671],"keys_pressed":["leftarrow","leftarrow","rightarrow","leftarrow","rightarrow"],"horizon":5,"forced_choices":["leftarrow","leftarrow","rightarrow","leftarrow"],"right_color":"orange","left_color":"lightblue","left_mu":40,"right_mu":52,"left_numbers":[37,44,43,34,37],"right_numbers":[60,47,45,48,44],"points_earned":204,"phase":"task","trial_type":"horizons-task","trial_index":75,"time_elapsed":841005,"internal_node_id":"0.0-71.0","task_version":"0.2"},{"response_times":[609.9599999724887,359.82499999227,415.9450000151992,616.0200000158511,1304.0400000172667,975.9949999861419,655.8700000168756,783.9850000455044,567.9700000328012,471.9749999931082],"keys_pressed":["leftarrow","rightarrow","leftarrow","rightarrow","leftarrow","leftarrow","leftarrow","leftarrow","leftarrow","leftarrow"],"horizon":10,"forced_choices":["leftarrow","rightarrow","leftarrow","rightarrow"],"right_color":"lightblue","left_color":"orange","left_mu":40,"right_mu":20,"left_numbers":[32,48,43,53,42,51,36,44,45,41],"right_numbers":[22,21,29,22,7,27,26,24,10,14],"points_earned":377,"phase":"task","trial_type":"horizons-task","trial_index":76,"time_elapsed":849270,"internal_node_id":"0.0-72.0","task_version":"0.2"},{"response_times":[2617.5749999820255,455.965000030119,583.7699999683537,543.9750000368804,1352.0099999732338],"keys_pressed":["rightarrow","leftarrow","leftarrow","rightarrow","rightarrow"],"horizon":5,"forced_choices":["rightarrow","leftarrow","leftarrow","rightarrow"],"right_color":"orange","left_color":"lightblue","left_mu":40,"right_mu":60,"left_numbers":[45,42,54,57,45],"right_numbers":[61,71,59,58,65],"points_earned":280,"phase":"task","trial_type":"horizons-task","trial_index":77,"time_elapsed":856326,"internal_node_id":"0.0-73.0","task_version":"0.2"},{"response_times":[497.7000000071712,415.97999999066815,599.8949999921024,1472.0800000359304,815.9999999916181],"keys_pressed":["leftarrow","rightarrow","rightarrow","rightarrow","leftarrow"],"horizon":5,"forced_choices":["leftarrow","rightarrow","rightarrow","rightarrow"],"right_color":"orange","left_color":"lightblue","left_mu":60,"right_mu":52,"left_numbers":[71,63,47,44,56],"right_numbers":[47,46,42,59,61],"points_earned":274,"phase":"task","trial_type":"horizons-task","trial_index":78,"time_elapsed":861629,"internal_node_id":"0.0-74.0","task_version":"0.2"},{"response_times":[530.3749999729916,695.7399999955669,751.9850000389852,543.9600000390783,759.9749999935739,519.9550000252202,423.9749999833293,272.0800000242889,295.87499995250255,287.9299999913201],"keys_pressed":["leftarrow","rightarrow","leftarrow","leftarrow","leftarrow","leftarrow","leftarrow","leftarrow","leftarrow","leftarrow"],"horizon":10,"forced_choices":["leftarrow","rightarrow","leftarrow","leftarrow"],"right_color":"lightblue","left_color":"orange","left_mu":40,"right_mu":10,"left_numbers":[17,36,39,30,52,39,35,36,37,52],"right_numbers":[11,10,10,9,17,1,1,25,12,20],"points_earned":347,"phase":"task","trial_type":"horizons-task","trial_index":79,"time_elapsed":868214,"internal_node_id":"0.0-75.0","task_version":"0.2"},{"response_times":[504.9250000156462,880.0150000024587,1935.929999977816,1216.1900000064634,1719.8799999896437],"keys_pressed":["rightarrow","rightarrow","leftarrow","rightarrow","leftarrow"],"horizon":5,"forced_choices":["rightarrow","rightarrow","leftarrow","rightarrow"],"right_color":"orange","left_color":"lightblue","left_mu":60,"right_mu":30,"left_numbers":[59,64,71,56,57],"right_numbers":[26,39,25,41,23],"points_earned":234,"phase":"task","trial_type":"horizons-task","trial_index":80,"time_elapsed":875974,"internal_node_id":"0.0-76.0","task_version":"0.2"},{"response_times":[434.54500002553686,615.8350000041537,743.9149999991059,928.0599999474362,375.93000003835186],"keys_pressed":["rightarrow","leftarrow","rightarrow","leftarrow","rightarrow"],"horizon":5,"forced_choices":["rightarrow","leftarrow","rightarrow","leftarrow"],"right_color":"orange","left_color":"lightblue","left_mu":40,"right_mu":70,"left_numbers":[40,38,48,36,42],"right_numbers":[70,66,76,80,66],"points_earned":286,"phase":"task","trial_type":"horizons-task","trial_index":81,"time_elapsed":880582,"internal_node_id":"0.0-77.0","task_version":"0.2"},{"response_times":[585.1450000191107,367.8700000164099,520.0750000076368,1048.0250000255182,2487.8800000296906,615.9549999865703,607.9200000385754,608.0000000074506,503.98000003769994,488.08500001905486],"keys_pressed":["leftarrow","rightarrow","leftarrow","rightarrow","leftarrow","leftarrow","leftarrow","leftarrow","leftarrow","leftarrow"],"horizon":10,"forced_choices":["leftarrow","rightarrow","leftarrow","rightarrow"],"right_color":"orange","left_color":"lightblue","left_mu":40,"right_mu":36,"left_numbers":[42,40,38,43,44,42,54,45,58,41],"right_numbers":[35,41,34,37,35,33,36,35,42,43],"points_earned":442,"phase":"task","trial_type":"horizons-task","trial_index":82,"time_elapsed":889918,"internal_node_id":"0.0-78.0","task_version":"0.2"},{"response_times":[681.7550000268966,768.0000000400469,535.9300000127405,575.9950000210665,872.159999969881,1112.0150000206195,367.6899999845773,296.0550000425428,279.949999996461,279.94000003673136],"keys_pressed":["rightarrow","rightarrow","leftarrow","rightarrow","leftarrow","rightarrow","rightarrow","rightarrow","rightarrow","rightarrow"],"horizon":10,"forced_choices":["rightarrow","rightarrow","leftarrow","rightarrow"],"right_color":"lightblue","left_color":"orange","left_mu":60,"right_mu":80,"left_numbers":[59,59,53,62,71,52,65,67,62,69],"right_numbers":[75,72,81,83,85,86,73,78,74,84],"points_earned":749,"phase":"task","trial_type":"horizons-task","trial_index":83,"time_elapsed":897190,"internal_node_id":"0.0-79.0","task_version":"0.2"},{"response_times":[761.9849999900907,567.8499999921769,896.0199999855831,992.000000027474,1447.8499999968335],"keys_pressed":["leftarrow","leftarrow","leftarrow","rightarrow","rightarrow"],"horizon":5,"forced_choices":["leftarrow","leftarrow","leftarrow","rightarrow"],"right_color":"orange","left_color":"lightblue","left_mu":60,"right_mu":68,"left_numbers":[55,70,50,58,63],"right_numbers":[56,68,64,82,77],"points_earned":334,"phase":"task","trial_type":"horizons-task","trial_index":84,"time_elapsed":903358,"internal_node_id":"0.0-80.0","task_version":"0.2"},{"response_times":[658.919999958016,543.7300000339746,1480.0650000106543,1239.914999983739,495.9899999666959],"keys_pressed":["leftarrow","rightarrow","rightarrow","leftarrow","rightarrow"],"horizon":5,"forced_choices":["leftarrow","rightarrow","rightarrow","leftarrow"],"right_color":"lightblue","left_color":"orange","left_mu":60,"right_mu":64,"left_numbers":[59,56,65,51,56],"right_numbers":[64,52,68,73,81],"points_earned":311,"phase":"task","trial_type":"horizons-task","trial_index":85,"time_elapsed":909286,"internal_node_id":"0.0-81.0","task_version":"0.2"},{"response_times":[713.9050000114366,447.94500002171844,736.0600000247359,983.9650000212714,648.2200000318699],"keys_pressed":["rightarrow","leftarrow","leftarrow","rightarrow","leftarrow"],"horizon":5,"forced_choices":["rightarrow","leftarrow","leftarrow","rightarrow"],"right_color":"lightblue","left_color":"orange","left_mu":60,"right_mu":56,"left_numbers":[54,60,68,59,47],"right_numbers":[67,50,63,53,57],"points_earned":295,"phase":"task","trial_type":"horizons-task","trial_index":86,"time_elapsed":914318,"internal_node_id":"0.0-82.0","task_version":"0.2"},{"response_times":[489.4950000452809,815.8149999799207,671.8899999978021,784.1149999876507,783.9399999938905],"keys_pressed":["rightarrow","rightarrow","leftarrow","leftarrow","leftarrow"],"horizon":5,"forced_choices":["rightarrow","rightarrow","leftarrow","leftarrow"],"right_color":"lightblue","left_color":"orange","left_mu":60,"right_mu":40,"left_numbers":[51,71,50,70,70],"right_numbers":[29,41,41,38,45],"points_earned":260,"phase":"task","trial_type":"horizons-task","trial_index":87,"time_elapsed":919366,"internal_node_id":"0.0-83.0","task_version":"0.2"},{"response_times":[745.9099999978207,607.8749999869615,895.9850000101142,935.9750000294298,999.965000024531],"keys_pressed":["leftarrow","rightarrow","leftarrow","rightarrow","leftarrow"],"horizon":5,"forced_choices":["leftarrow","rightarrow","leftarrow","rightarrow"],"right_color":"orange","left_color":"lightblue","left_mu":60,"right_mu":52,"left_numbers":[65,56,61,39,66],"right_numbers":[57,76,54,56,46],"points_earned":324,"phase":"task","trial_type":"horizons-task","trial_index":88,"time_elapsed":925054,"internal_node_id":"0.0-84.0","task_version":"0.2"},{"response_times":[491.3650000235066,535.7700000167824,727.9599999892525,1111.9549999712035,1031.989999988582],"keys_pressed":["rightarrow","rightarrow","leftarrow","leftarrow","rightarrow"],"horizon":5,"forced_choices":["rightarrow","rightarrow","leftarrow","leftarrow"],"right_color":"orange","left_color":"lightblue","left_mu":60,"right_mu":68,"left_numbers":[76,56,62,71,44],"right_numbers":[57,74,67,70,55],"points_earned":319,"phase":"task","trial_type":"horizons-task","trial_index":89,"time_elapsed":930463,"internal_node_id":"0.0-85.0","task_version":"0.2"},{"response_times":[440.24999998509884,376.13000004785135,655.7749999919906,799.959999974817,488.12499997438863],"keys_pressed":["leftarrow","rightarrow","rightarrow","leftarrow","rightarrow"],"horizon":5,"forced_choices":["leftarrow","rightarrow","rightarrow","leftarrow"],"right_color":"orange","left_color":"lightblue","left_mu":60,"right_mu":72,"left_numbers":[57,56,63,60,51],"right_numbers":[81,67,70,66,71],"points_earned":325,"phase":"task","trial_type":"horizons-task","trial_index":90,"time_elapsed":934725,"internal_node_id":"0.0-86.0","task_version":"0.2"},{"response_times":[906.3549999846146,543.8199999625795,472.00000000884756,895.9850000101142,744.0349999815226],"keys_pressed":["rightarrow","leftarrow","rightarrow","rightarrow","rightarrow"],"horizon":5,"forced_choices":["rightarrow","leftarrow","rightarrow","rightarrow"],"right_color":"orange","left_color":"lightblue","left_mu":40,"right_mu":60,"left_numbers":[40,42,42,41,58],"right_numbers":[70,51,66,43,70],"points_earned":291,"phase":"task","trial_type":"horizons-task","trial_index":91,"time_elapsed":939791,"internal_node_id":"0.0-87.0","task_version":"0.2"},{"rt":14962.775000021793,"responses":{"age":"27","gender-categorical":"Male","gender-free-response":"","ethnicity":"Not Hispanic or Latino","race":["Asian"],"language":"Yes","fluency":"Very well"},"survey":"demographics","trial_type":"survey-demo","trial_index":92,"time_elapsed":954756,"internal_node_id":"0.0-88.0","task_version":"0.2"},{"rt":31998.145000019576,"responses":{"difficulty":"4","fun":"4","clarity":"5","strategy":"try to remember to the best of my ability","feedback":""},"survey":"debrief","trial_type":"survey-debrief","trial_index":93,"time_elapsed":986758,"internal_node_id":"0.0-89.0","task_version":"0.2","interactions":"[{\"event\":\"blur\",\"trial\":37,\"time\":564263},{\"event\":\"focus\",\"trial\":37,\"time\":566714}]"}]