[{"view_history":"[{\"page_index\":0,\"viewing_time\":1603.9650000166148}]","rt":1604.2700000107288,"trial_type":"instructions","trial_index":0,"time_elapsed":1609,"internal_node_id":"0.0-0.0","task_version":"0.2"},{"item_order":[5,9,12,0,11,3,1,7,2,4,6,10,8],"responses":{"Q06":"1","Q10":"2","Q13":"4","Q01":"1","Q12":"1","Q04":"1","Q02":"2","Q08":"2","Q03":"2","Q05":"3","Q07":"3","Q11":"3","Q09":"4"},"radio_events":[7593.3550000190735,10753.335000015795,13160.024999990128,17518.42000009492,19023.490000050515,20967.17499999795,23173.955000005662,27061.360000050627,31545.894999988377,33054.86999999266,34727.49499999918,36115.47000007704,39555.0350000849],"key_events":[],"mouse_events":[0.04499999340623617,7593.3550000190735,10753.335000015795,13160.024999990128,17518.42000009492,19023.490000050515,20967.17499999795,23173.955000005662,27061.360000050627,29345.30500008259,31545.894999988377,33054.86999999266,34727.49499999918,36115.47000007704,39555.0350000849,40401.255000033416],"rt":40402.60500006843,"survey":"ius12","trial_type":"survey-template","trial_index":1,"time_elapsed":42014,"internal_node_id":"0.0-1.0","task_version":"0.2"},{"item_order":[12,9,15,14,6,1,3,5,0,10,11,13,7,4,8,2],"responses":{"Q13":"4","Q10":"2","Q16":"5","Q15":"2","Q07":"4","Q02":"4","Q04":"5","Q06":"4","Q01":"3","Q11":"4","Q12":"2","Q14":"3","Q08":"2","Q05":"4","Q09":"4","Q03":"4"},"radio_events":[10240.955000044778,12456.189999938942,15316.065000020899,17905.29999998398,20586.78500005044,22634.515000041574,25124.44000004325,26962.240000022575,29740.254999953322,32620.029999990948,35212.01000001747,37471.89000004437,40480.36000004504,42923.854999942705,46291.955000022426,49740.23500003386,52429.23999996856],"key_events":[],"mouse_events":[10240.955000044778,12456.189999938942,15316.065000020899,17905.29999998398,20586.78500005044,22634.515000041574,25124.44000004325,26962.240000022575,29740.254999953322,31064.069999963976,32620.029999990948,35212.01000001747,37471.89000004437,39924.13499997929,40480.36000004504,42923.854999942705,46291.955000022426,49740.23500003386,52429.23999996856,52900.04999993835],"rt":52901.82999998797,"survey":"nfc","trial_type":"survey-template","trial_index":2,"time_elapsed":94921,"internal_node_id":"0.0-2.0","task_version":"0.2"},{"item_order":[0,13,6,5,16,1,14,9,2,4,10,11,8,15,12,3,7],"responses":{"Q01":"1","Q14":"0","Q07":"0","Q06":"0","Q17":"0","Q02":"1","Q15":"0","Q10":"1","Q03":"1","Q05":"0","Q11":"4","Q12":"1","Q09":"1","Q16":"2","Q13":"2","Q04":"1","Q08":"2"},"radio_events":[9131.349999923259,12743.729999987409,14612.469999934547,16299.904999905266,19419.299999950454,23083.39999988675,24863.78999997396,26883.599999942817,28593.064999906346,31985.894999932498,33918.05999993812,35583.28999998048,39479.3649999192,42251.15999998525,43907.29499992449,47191.869999980554,48511.71499991324],"key_events":[],"mouse_events":[9131.349999923259,12743.729999987409,14612.469999934547,16299.904999905266,19419.299999950454,23083.39999988675,24863.78999997396,26883.599999942817,28593.064999906346,31985.894999932498,33918.05999993812,35583.28999998048,39479.3649999192,42251.15999998525,43907.29499992449,47191.869999980554,48511.71499991324,49450.289999949746],"rt":49451.82499999646,"survey":"pswq","trial_type":"survey-template","trial_index":3,"time_elapsed":144376,"internal_node_id":"0.0-3.0","task_version":"0.2"},{"view_history":"[{\"page_index\":0,\"viewing_time\":1901.6899999696761},{\"page_index\":1,\"viewing_time\":4804.7350000124425},{\"page_index\":2,\"viewing_time\":6075.0349999871105},{\"page_index\":3,\"viewing_time\":7292.209999985062},{\"page_index\":4,\"viewing_time\":4519.840000080876},{\"page_index\":5,\"viewing_time\":5988.0600000033155},{\"page_index\":6,\"viewing_time\":5353.780000004917},{\"page_index\":7,\"viewing_time\":2232.094999984838},{\"page_index\":8,\"viewing_time\":6946.944999974221},{\"page_index\":9,\"viewing_time\":5343.194999964908}]","rt":50457.81499997247,"trial_type":"instructions","trial_index":4,"time_elapsed":194835,"internal_node_id":"0.0-4.0-0.0","task_version":"0.2"},{"response_times":[1542.6250000018626,2093.745000078343,866.1799998953938,757.8049999428913,4343.995000002906],"keys_pressed":["rightarrow","leftarrow","rightarrow","rightarrow","leftarrow"],"horizon":5,"forced_choices":["rightarrow","leftarrow","rightarrow","rightarrow"],"right_color":"lightblue","left_color":"orange","left_mu":40,"right_mu":20,"left_numbers":[38,57,37,49,38],"right_numbers":[4,27,19,11,27],"points_earned":129,"phase":"practice","trial_type":"horizons-task","trial_index":5,"time_elapsed":205948,"internal_node_id":"0.0-4.0-1.0","task_version":"0.2"},{"response_times":[890.3500000014901,960.5000000447035,830.1399999763817,824.1350000025705,816.3499999791384,3559.385000029579,1264.53499996569,879.0049999952316,807.9549999674782,552.0749998977408],"keys_pressed":["leftarrow","leftarrow","rightarrow","rightarrow","rightarrow","leftarrow","leftarrow","rightarrow","rightarrow","rightarrow"],"horizon":10,"forced_choices":["leftarrow","leftarrow","rightarrow","rightarrow"],"right_color":"orange","left_color":"lightblue","left_mu":60,"right_mu":70,"left_numbers":[61,65,62,54,60,62,56,46,56,68],"right_numbers":[66,84,65,71,69,64,71,81,81,80],"points_earned":691,"phase":"practice","trial_type":"horizons-task","trial_index":6,"time_elapsed":218835,"internal_node_id":"0.0-4.0-2.0","task_version":"0.2"},{"view_history":"[{\"page_index\":0,\"viewing_time\":1681.8250000942498},{\"page_index\":1,\"viewing_time\":4992.489999975078},{\"page_index\":2,\"viewing_time\":3454.9999999580905},{\"page_index\":3,\"viewing_time\":5750.130000058562}]","rt":15879.750000080094,"trial_type":"instructions","trial_index":7,"time_elapsed":234717,"internal_node_id":"0.0-4.0-3.0","task_version":"0.2"},{"responses":["true","false","true"],"num_errors":0,"rt":10233.420000062324,"trial_type":"horizons-comprehension","trial_index":8,"time_elapsed":244954,"internal_node_id":"0.0-4.0-4.0","task_version":"0.2"},{"trial_type":"call-function","trial_index":9,"time_elapsed":244956,"internal_node_id":"0.0-5.0","task_version":"0.2"},{"view_history":"[{\"page_index\":0,\"viewing_time\":1529.2800000170246},{\"page_index\":1,\"viewing_time\":2838.7999999104068}]","rt":4368.284999975003,"trial_type":"instructions","trial_index":10,"time_elapsed":249324,"internal_node_id":"0.0-6.0","task_version":"0.2"},{"response_times":[1273.4599999384955,724.4400000199676,891.814999980852,2007.9149999655783,2126.369999954477,2305.225000018254,790.610000025481,688.1249999860302,640.0150000117719,1487.7700000070035],"keys_pressed":["rightarrow","leftarrow","rightarrow","leftarrow","leftarrow","leftarrow","leftarrow","leftarrow","leftarrow","leftarrow"],"horizon":10,"forced_choices":["rightarrow","leftarrow","rightarrow","leftarrow"],"right_color":"lightblue","left_color":"orange","left_mu":40,"right_mu":20,"left_numbers":[36,42,36,26,46,37,33,55,26,41],"right_numbers":[29,26,11,23,13,18,43,34,25,24],"points_earned":346,"phase":"task","trial_type":"horizons-task","trial_index":11,"time_elapsed":263765,"internal_node_id":"0.0-7.0","task_version":"0.2"},{"response_times":[810.0049999775365,415.6450000591576,735.9250000445172,731.0750000178814,705.2999999141321,588.2650000276044,527.390000061132,2368.2450000196695,673.2150000752881,487.3150000348687],"keys_pressed":["leftarrow","rightarrow","rightarrow","rightarrow","rightarrow","rightarrow","rightarrow","rightarrow","rightarrow","rightarrow"],"horizon":10,"forced_choices":["leftarrow","rightarrow","rightarrow","rightarrow"],"right_color":"orange","left_color":"lightblue","left_mu":60,"right_mu":80,"left_numbers":[59,69,66,62,74,45,58,50,60,55],"right_numbers":[85,73,99,87,82,87,55,72,97,66],"points_earned":777,"phase":"task","trial_type":"horizons-task","trial_index":12,"time_elapsed":273310,"internal_node_id":"0.0-8.0","task_version":"0.2"},{"response_times":[816.7449999600649,512.1649999637157,682.5549999484792,1333.2200000295416,2391.9950000708923],"keys_pressed":["rightarrow","leftarrow","rightarrow","rightarrow","rightarrow"],"horizon":5,"forced_choices":["rightarrow","leftarrow","rightarrow","rightarrow"],"right_color":"orange","left_color":"lightblue","left_mu":60,"right_mu":64,"left_numbers":[41,65,51,62,55],"right_numbers":[59,58,57,71,67],"points_earned":319,"phase":"task","trial_type":"horizons-task","trial_index":13,"time_elapsed":280551,"internal_node_id":"0.0-9.0","task_version":"0.2"},{"response_times":[582.6399999205023,696.6450000181794,560.8299999730662,1095.6999999471009,982.8050000360236,2017.479999922216,864.159999997355,591.9950000243261,542.3650000011548,385.97499998286366],"keys_pressed":["rightarrow","leftarrow","rightarrow","rightarrow","leftarrow","leftarrow","rightarrow","rightarrow","rightarrow","rightarrow"],"horizon":10,"forced_choices":["rightarrow","leftarrow","rightarrow","rightarrow"],"right_color":"orange","left_color":"lightblue","left_mu":60,"right_mu":64,"left_numbers":[59,63,60,51,63,44,69,64,66,48],"right_numbers":[67,51,59,71,64,59,64,63,71,74],"points_earned":639,"phase":"task","trial_type":"horizons-task","trial_index":14,"time_elapsed":290374,"internal_node_id":"0.0-10.0","task_version":"0.2"},{"response_times":[482.97499993350357,366.1050000227988,527.2849999601021,744.355000089854,1144.0650000004098,607.3549999855459,1097.0799999777228,879.5549999922514,847.9649999644607,1711.7299999808893],"keys_pressed":["rightarrow","leftarrow","rightarrow","leftarrow","rightarrow","rightarrow","rightarrow","rightarrow","rightarrow","rightarrow"],"horizon":10,"forced_choices":["rightarrow","leftarrow","rightarrow","leftarrow"],"right_color":"orange","left_color":"lightblue","left_mu":60,"right_mu":80,"left_numbers":[60,66,56,55,61,44,64,53,42,55],"right_numbers":[79,86,70,76,74,75,76,76,69,83],"points_earned":723,"phase":"task","trial_type":"horizons-task","trial_index":15,"time_elapsed":300286,"internal_node_id":"0.0-11.0","task_version":"0.2"},{"response_times":[680.9799999464303,480.7649999856949,640.8850000007078,750.5400000372902,577.9099999926984],"keys_pressed":["leftarrow","rightarrow","rightarrow","leftarrow","rightarrow"],"horizon":5,"forced_choices":["leftarrow","rightarrow","rightarrow","leftarrow"],"right_color":"orange","left_color":"lightblue","left_mu":40,"right_mu":70,"left_numbers":[47,43,42,41,47],"right_numbers":[71,70,67,64,68],"points_earned":293,"phase":"task","trial_type":"horizons-task","trial_index":16,"time_elapsed":304918,"internal_node_id":"0.0-12.0","task_version":"0.2"},{"response_times":[506.8500000052154,361.87500006053597,820.1200000476092,503.4999999916181,840.2400000486523,680.6699999142438,1079.6949999639764,442.2800000756979,357.8099999576807,328.89000000432134],"keys_pressed":["rightarrow","leftarrow","leftarrow","rightarrow","rightarrow","leftarrow","rightarrow","rightarrow","rightarrow","rightarrow"],"horizon":10,"forced_choices":["rightarrow","leftarrow","leftarrow","rightarrow"],"right_color":"orange","left_color":"lightblue","left_mu":40,"right_mu":60,"left_numbers":[37,51,49,35,43,39,32,49,40,52],"right_numbers":[62,58,43,52,54,64,57,62,61,50],"points_earned":537,"phase":"task","trial_type":"horizons-task","trial_index":17,"time_elapsed":312342,"internal_node_id":"0.0-13.0","task_version":"0.2"},{"response_times":[560.9750000294298,735.880000051111,945.619999896735,800.8100000442937,653.5750000039116],"keys_pressed":["rightarrow","rightarrow","rightarrow","leftarrow","leftarrow"],"horizon":5,"forced_choices":["rightarrow","rightarrow","rightarrow","leftarrow"],"right_color":"orange","left_color":"lightblue","left_mu":60,"right_mu":48,"left_numbers":[61,57,58,62,46],"right_numbers":[42,58,38,43,49],"points_earned":246,"phase":"task","trial_type":"horizons-task","trial_index":18,"time_elapsed":317542,"internal_node_id":"0.0-14.0","task_version":"0.2"},{"response_times":[873.4549999935552,463.8849999755621,752.2050000261515,2038.950000074692,632.6300000073388],"keys_pressed":["leftarrow","rightarrow","leftarrow","rightarrow","leftarrow"],"horizon":5,"forced_choices":["leftarrow","rightarrow","leftarrow","rightarrow"],"right_color":"orange","left_color":"lightblue","left_mu":60,"right_mu":48,"left_numbers":[66,52,58,51,60],"right_numbers":[53,54,43,40,40],"points_earned":278,"phase":"task","trial_type":"horizons-task","trial_index":19,"time_elapsed":323806,"internal_node_id":"0.0-15.0","task_version":"0.2"},{"response_times":[573.850000044331,736.0900000203401,564.0049999346957,1080.1549999741837,1839.159999974072],"keys_pressed":["rightarrow","rightarrow","leftarrow","leftarrow","leftarrow"],"horizon":5,"forced_choices":["rightarrow","rightarrow","leftarrow","leftarrow"],"right_color":"orange","left_color":"lightblue","left_mu":60,"right_mu":64,"left_numbers":[61,59,64,67,55],"right_numbers":[75,62,63,58,56],"points_earned":323,"phase":"task","trial_type":"horizons-task","trial_index":20,"time_elapsed":330102,"internal_node_id":"0.0-16.0","task_version":"0.2"},{"response_times":[560.5300000170246,735.7649999903515,2271.275000064634,1072.414999944158,1224.9499999452382],"keys_pressed":["leftarrow","rightarrow","leftarrow","rightarrow","leftarrow"],"horizon":5,"forced_choices":["leftarrow","rightarrow","leftarrow","rightarrow"],"right_color":"orange","left_color":"lightblue","left_mu":60,"right_mu":40,"left_numbers":[70,57,60,46,61],"right_numbers":[35,47,41,54,49],"points_earned":292,"phase":"task","trial_type":"horizons-task","trial_index":21,"time_elapsed":337470,"internal_node_id":"0.0-17.0","task_version":"0.2"},{"response_times":[530.3149999817833,415.64999998081475,711.5899999625981,440.1800000341609,1448.634999920614,591.0650000441819,480.2200000267476,400.2550001023337,392.19499996397644,415.2600000379607],"keys_pressed":["rightarrow","leftarrow","rightarrow","leftarrow","rightarrow","leftarrow","leftarrow","leftarrow","leftarrow","leftarrow"],"horizon":10,"forced_choices":["rightarrow","leftarrow","rightarrow","leftarrow"],"right_color":"lightblue","left_color":"orange","left_mu":40,"right_mu":28,"left_numbers":[39,45,34,36,49,35,35,29,35,46],"right_numbers":[41,20,37,29,21,18,24,25,14,31],"points_earned":360,"phase":"task","trial_type":"horizons-task","trial_index":22,"time_elapsed":344797,"internal_node_id":"0.0-18.0","task_version":"0.2"},{"response_times":[548.975000041537,372.2299999790266,305.23499997798353,428.9599999319762,959.8399999085814,3208.349999971688,704.2699999874458,399.97499994933605,512.8399999812245,423.80499991122633],"keys_pressed":["leftarrow","rightarrow","leftarrow","rightarrow","leftarrow","rightarrow","leftarrow","leftarrow","leftarrow","leftarrow"],"horizon":10,"forced_choices":["leftarrow","rightarrow","leftarrow","rightarrow"],"right_color":"orange","left_color":"lightblue","left_mu":60,"right_mu":40,"left_numbers":[64,62,62,58,67,61,69,48,70,55],"right_numbers":[39,41,26,49,39,32,45,36,40,47],"points_earned":557,"phase":"task","trial_type":"horizons-task","trial_index":23,"time_elapsed":354165,"internal_node_id":"0.0-19.0","task_version":"0.2"},{"response_times":[19885.739999939688,436.24000006821007,721.3000000920147,1278.6049999995157,424.0449999924749],"keys_pressed":["leftarrow","rightarrow","rightarrow","leftarrow","rightarrow"],"horizon":5,"forced_choices":["leftarrow","rightarrow","rightarrow","leftarrow"],"right_color":"lightblue","left_color":"orange","left_mu":40,"right_mu":52,"left_numbers":[29,39,51,32,47],"right_numbers":[55,44,54,55,44],"points_earned":203,"phase":"task","trial_type":"horizons-task","trial_index":24,"time_elapsed":378413,"internal_node_id":"0.0-20.0","task_version":"0.2"},{"response_times":[594.2150000482798,206.5500000026077,672.6900000358,592.6800000015646,663.2550000213087,448.9299999549985,461.7899999720976,463.98000000044703,423.7150000408292,384.3099999940023],"keys_pressed":["rightarrow","leftarrow","leftarrow","leftarrow","rightarrow","leftarrow","leftarrow","leftarrow","leftarrow","leftarrow"],"horizon":10,"forced_choices":["rightarrow","leftarrow","leftarrow","leftarrow"],"right_color":"lightblue","left_color":"orange","left_mu":60,"right_mu":52,"left_numbers":[53,66,74,53,55,43,57,56,57,58],"right_numbers":[61,62,58,52,44,54,67,60,53,51],"points_earned":569,"phase":"task","trial_type":"horizons-task","trial_index":25,"time_elapsed":384829,"internal_node_id":"0.0-21.0","task_version":"0.2"},{"response_times":[402.11500006262213,519.33000003919,672.6100000087172,890.430000028573,706.0300000011921],"keys_pressed":["rightarrow","rightarrow","leftarrow","leftarrow","rightarrow"],"horizon":5,"forced_choices":["rightarrow","rightarrow","leftarrow","leftarrow"],"right_color":"lightblue","left_color":"orange","left_mu":40,"right_mu":48,"left_numbers":[47,37,37,34,32],"right_numbers":[47,59,32,44,57],"points_earned":234,"phase":"task","trial_type":"horizons-task","trial_index":26,"time_elapsed":389522,"internal_node_id":"0.0-22.0","task_version":"0.2"},{"response_times":[450.3200000617653,417.5450000911951,604.0649999631569,1069.4350000703707,1847.7549999952316],"keys_pressed":["leftarrow","rightarrow","rightarrow","rightarrow","leftarrow"],"horizon":5,"forced_choices":["leftarrow","rightarrow","rightarrow","rightarrow"],"right_color":"lightblue","left_color":"orange","left_mu":40,"right_mu":20,"left_numbers":[28,30,40,52,50],"right_numbers":[23,15,40,22,32],"points_earned":155,"phase":"task","trial_type":"horizons-task","trial_index":27,"time_elapsed":395413,"internal_node_id":"0.0-23.0","task_version":"0.2"},{"response_times":[610.8600000152364,322.2950000781566,551.0549999307841,440.6299999682233,933.7450000457466,487.4999999301508,528.2900000456721,841.1700000287965,1032.0699999574572,1662.804999970831],"keys_pressed":["leftarrow","rightarrow","leftarrow","rightarrow","leftarrow","leftarrow","leftarrow","leftarrow","leftarrow","leftarrow"],"horizon":10,"forced_choices":["leftarrow","rightarrow","leftarrow","rightarrow"],"right_color":"lightblue","left_color":"orange","left_mu":40,"right_mu":36,"left_numbers":[37,44,34,36,48,44,36,44,38,31],"right_numbers":[43,38,25,22,42,23,23,27,40,39],"points_earned":372,"phase":"task","trial_type":"horizons-task","trial_index":28,"time_elapsed":404326,"internal_node_id":"0.0-24.0","task_version":"0.2"},{"response_times":[499.95500000659376,575.9499999694526,568.2050000177696,1016.5499999420717,1479.340000078082,458.9949999935925,452.5650000432506,592.9699999978766,561.1800000770018,407.4649999383837],"keys_pressed":["leftarrow","leftarrow","rightarrow","rightarrow","rightarrow","rightarrow","rightarrow","rightarrow","rightarrow","rightarrow"],"horizon":10,"forced_choices":["leftarrow","leftarrow","rightarrow","rightarrow"],"right_color":"lightblue","left_color":"orange","left_mu":60,"right_mu":90,"left_numbers":[52,65,47,57,67,74,59,74,60,55],"right_numbers":[84,85,85,86,88,98,74,94,87,79],"points_earned":808,"phase":"task","trial_type":"horizons-task","trial_index":29,"time_elapsed":412447,"internal_node_id":"0.0-25.0","task_version":"0.2"},{"response_times":[613.5050000157207,422.3849999252707,785.6100000208244,695.6650000065565,1944.1550000337884],"keys_pressed":["rightarrow","leftarrow","leftarrow","leftarrow","rightarrow"],"horizon":5,"forced_choices":["rightarrow","leftarrow","leftarrow","leftarrow"],"right_color":"orange","left_color":"lightblue","left_mu":60,"right_mu":72,"left_numbers":[63,74,58,54,61],"right_numbers":[77,76,74,72,78],"points_earned":341,"phase":"task","trial_type":"horizons-task","trial_index":30,"time_elapsed":418413,"internal_node_id":"0.0-26.0","task_version":"0.2"},{"response_times":[658.3649999229237,440.32499997410923,776.2199999997392,1110.9200000064448,1192.0599999139085],"keys_pressed":["rightarrow","leftarrow","rightarrow","rightarrow","leftarrow"],"horizon":5,"forced_choices":["rightarrow","leftarrow","rightarrow","rightarrow"],"right_color":"orange","left_color":"lightblue","left_mu":60,"right_mu":68,"left_numbers":[43,71,52,62,47],"right_numbers":[72,67,75,55,59],"points_earned":320,"phase":"task","trial_type":"horizons-task","trial_index":31,"time_elapsed":424093,"internal_node_id":"0.0-27.0","task_version":"0.2"},{"response_times":[8468.140000011772,510.01999992877245,555.2500000922009,532.8450000379235,607.8449999913573,562.2399999992922,441.6049999417737,388.0850001005456,407.950000022538,296.61999992094934],"keys_pressed":["leftarrow","rightarrow","leftarrow","leftarrow","leftarrow","rightarrow","rightarrow","rightarrow","rightarrow","rightarrow"],"horizon":10,"forced_choices":["leftarrow","rightarrow","leftarrow","leftarrow"],"right_color":"orange","left_color":"lightblue","left_mu":40,"right_mu":60,"left_numbers":[41,41,48,39,40,51,40,40,43,33],"right_numbers":[64,63,45,54,40,58,52,61,52,39],"points_earned":493,"phase":"task","trial_type":"horizons-task","trial_index":32,"time_elapsed":438367,"internal_node_id":"0.0-28.0","task_version":"0.2"},{"response_times":[596.0249999770895,550.539999967441,1062.9800000460818,670.549999922514,594.1599999787286,622.3750000353903,688.1950000533834,424.08000002615154,395.2049999497831,348.43499993439764],"keys_pressed":["leftarrow","rightarrow","rightarrow","leftarrow","leftarrow","rightarrow","leftarrow","leftarrow","leftarrow","leftarrow"],"horizon":10,"forced_choices":["leftarrow","rightarrow","rightarrow","leftarrow"],"right_color":"orange","left_color":"lightblue","left_mu":40,"right_mu":32,"left_numbers":[43,20,43,50,23,49,28,37,40,40],"right_numbers":[31,20,35,17,20,25,24,32,27,36],"points_earned":341,"phase":"task","trial_type":"horizons-task","trial_index":33,"time_elapsed":445821,"internal_node_id":"0.0-29.0","task_version":"0.2"},{"response_times":[19921.150000067428,528.7250000983477,576.0299999965355,640.309999929741,1160.6499999761581],"keys_pressed":["leftarrow","leftarrow","leftarrow","rightarrow","leftarrow"],"horizon":5,"forced_choices":["leftarrow","leftarrow","leftarrow","rightarrow"],"right_color":"orange","left_color":"lightblue","left_mu":40,"right_mu":32,"left_numbers":[40,53,26,32,45],"right_numbers":[42,29,27,34,40],"points_earned":198,"phase":"task","trial_type":"horizons-task","trial_index":34,"time_elapsed":470150,"internal_node_id":"0.0-30.0","task_version":"0.2"},{"response_times":[498.3900000806898,391.3200000533834,551.5749999321997,554.3700000271201,1349.970000097528,632.5949999736622,569.3750000791624,542.6899999147281,351.29000002052635,983.3700000308454],"keys_pressed":["rightarrow","leftarrow","leftarrow","rightarrow","rightarrow","rightarrow","rightarrow","rightarrow","rightarrow","leftarrow"],"horizon":10,"forced_choices":["rightarrow","leftarrow","leftarrow","rightarrow"],"right_color":"orange","left_color":"lightblue","left_mu":60,"right_mu":68,"left_numbers":[63,69,62,55,57,67,46,77,67,67],"right_numbers":[68,72,76,65,76,70,67,62,50,52],"points_earned":656,"phase":"task","trial_type":"horizons-task","trial_index":35,"time_elapsed":478077,"internal_node_id":"0.0-31.0","task_version":"0.2"},{"response_times":[546.2849999312311,448.21499998215586,951.2949999189004,784.3850000062957,605.1500000758097],"keys_pressed":["rightarrow","leftarrow","leftarrow","rightarrow","rightarrow"],"horizon":5,"forced_choices":["rightarrow","leftarrow","leftarrow","rightarrow"],"right_color":"orange","left_color":"lightblue","left_mu":40,"right_mu":60,"left_numbers":[62,35,33,53,32],"right_numbers":[59,57,59,73,61],"points_earned":261,"phase":"task","trial_type":"horizons-task","trial_index":36,"time_elapsed":482916,"internal_node_id":"0.0-32.0","task_version":"0.2"},{"response_times":[5413.929999922402,829.8700000159442,439.81500004883856,6111.864999984391,1106.4550000010058],"keys_pressed":["rightarrow","rightarrow","leftarrow","rightarrow","leftarrow"],"horizon":5,"forced_choices":["rightarrow","rightarrow","leftarrow","rightarrow"],"right_color":"lightblue","left_color":"orange","left_mu":40,"right_mu":36,"left_numbers":[38,21,34,43,50],"right_numbers":[37,40,45,43,21],"points_earned":204,"phase":"task","trial_type":"horizons-task","trial_index":37,"time_elapsed":498321,"internal_node_id":"0.0-33.0","task_version":"0.2"},{"response_times":[519.7649999754503,383.9249999728054,343.8499999465421,807.9000000143424,809.2650000471622,494.5999999763444,449.1700000362471,503.1050000106916,1000.0700000673532,727.7149999281392],"keys_pressed":["leftarrow","rightarrow","leftarrow","rightarrow","leftarrow","leftarrow","leftarrow","leftarrow","rightarrow","leftarrow"],"horizon":10,"forced_choices":["leftarrow","rightarrow","leftarrow","rightarrow"],"right_color":"orange","left_color":"lightblue","left_mu":60,"right_mu":48,"left_numbers":[51,66,63,71,70,64,44,53,64,70],"right_numbers":[62,45,54,42,41,45,39,54,48,51],"points_earned":550,"phase":"task","trial_type":"horizons-task","trial_index":38,"time_elapsed":505863,"internal_node_id":"0.0-34.0","task_version":"0.2"},{"response_times":[482.91499994229525,862.8199999220669,672.2699999809265,561.4650000352412,534.444999997504],"keys_pressed":["rightarrow","rightarrow","rightarrow","leftarrow","leftarrow"],"horizon":5,"forced_choices":["rightarrow","rightarrow","rightarrow","leftarrow"],"right_color":"lightblue","left_color":"orange","left_mu":40,"right_mu":10,"left_numbers":[41,39,39,41,37],"right_numbers":[13,21,13,8,12],"points_earned":125,"phase":"task","trial_type":"horizons-task","trial_index":39,"time_elapsed":510479,"internal_node_id":"0.0-35.0","task_version":"0.2"},{"response_times":[464.96000001206994,381.2749999342486,673.880000016652,905.35000001546,1061.5900000557303],"keys_pressed":["rightarrow","leftarrow","leftarrow","rightarrow","leftarrow"],"horizon":5,"forced_choices":["rightarrow","leftarrow","leftarrow","rightarrow"],"right_color":"lightblue","left_color":"orange","left_mu":60,"right_mu":30,"left_numbers":[66,67,66,51,58],"right_numbers":[32,29,40,29,31],"points_earned":252,"phase":"task","trial_type":"horizons-task","trial_index":40,"time_elapsed":515470,"internal_node_id":"0.0-36.0","task_version":"0.2"},{"response_times":[518.4449999360368,555.8750000782311,397.374999942258,323.8950000377372,359.82499993406236,728.8100000005215,397.56000007037073,576.9149999832734,481.0499999439344,230.6150000076741],"keys_pressed":["leftarrow","leftarrow","rightarrow","leftarrow","rightarrow","leftarrow","leftarrow","leftarrow","leftarrow","leftarrow"],"horizon":10,"forced_choices":["leftarrow","leftarrow","rightarrow","leftarrow"],"right_color":"orange","left_color":"lightblue","left_mu":60,"right_mu":40,"left_numbers":[65,68,70,68,62,50,78,68,65,59],"right_numbers":[44,44,34,50,40,41,35,36,39,30],"points_earned":595,"phase":"task","trial_type":"horizons-task","trial_index":41,"time_elapsed":521544,"internal_node_id":"0.0-37.0","task_version":"0.2"},{"response_times":[440.0949999690056,495.88499998208135,547.1650001127273,1269.205000018701,807.850000099279],"keys_pressed":["leftarrow","leftarrow","rightarrow","leftarrow","rightarrow"],"horizon":5,"forced_choices":["leftarrow","leftarrow","rightarrow","leftarrow"],"right_color":"orange","left_color":"lightblue","left_mu":60,"right_mu":56,"left_numbers":[61,57,55,60,62],"right_numbers":[59,43,72,38,51],"points_earned":301,"phase":"task","trial_type":"horizons-task","trial_index":42,"time_elapsed":526607,"internal_node_id":"0.0-38.0","task_version":"0.2"},{"response_times":[595.3999999910593,750.4349999362603,634.2350000049919,631.859999964945,640.6999999890104,509.15499997790903,441.6549999732524,700.370000093244,673.4249999281019,792.8149999352172],"keys_pressed":["rightarrow","rightarrow","leftarrow","rightarrow","rightarrow","rightarrow","rightarrow","leftarrow","rightarrow","leftarrow"],"horizon":10,"forced_choices":["rightarrow","rightarrow","leftarrow","rightarrow"],"right_color":"lightblue","left_color":"orange","left_mu":40,"right_mu":36,"left_numbers":[41,54,42,43,39,30,48,34,35,37],"right_numbers":[29,37,50,46,45,45,33,34,26,39],"points_earned":374,"phase":"task","trial_type":"horizons-task","trial_index":43,"time_elapsed":534479,"internal_node_id":"0.0-39.0","task_version":"0.2"},{"response_times":[497.4550000624731,344.939999980852,473.5400000354275,581.6049999557436,447.9750000173226,391.8299999786541,344.5350000401959,391.8200000189245,407.7250000555068,288.6949999956414],"keys_pressed":["rightarrow","leftarrow","rightarrow","rightarrow","rightarrow","rightarrow","rightarrow","rightarrow","rightarrow","rightarrow"],"horizon":10,"forced_choices":["rightarrow","leftarrow","rightarrow","rightarrow"],"right_color":"orange","left_color":"lightblue","left_mu":60,"right_mu":68,"left_numbers":[73,61,50,64,58,59,36,54,62,76],"right_numbers":[60,70,69,64,66,71,60,65,62,62],"points_earned":640,"phase":"task","trial_type":"horizons-task","trial_index":44,"time_elapsed":540152,"internal_node_id":"0.0-40.0","task_version":"0.2"},{"response_times":[2101.7050000373274,353.44999993685633,491.43000005278736,467.82500005792826,455.61499998439103,367.2800000058487,233.66000002715737,271.5100001078099,304.81000000145286,230.32999993301928],"keys_pressed":["rightarrow","rightarrow","rightarrow","leftarrow","leftarrow","leftarrow","leftarrow","leftarrow","leftarrow","leftarrow"],"horizon":10,"forced_choices":["rightarrow","rightarrow","rightarrow","leftarrow"],"right_color":"lightblue","left_color":"orange","left_mu":40,"right_mu":10,"left_numbers":[35,35,38,49,43,39,52,32,22,49],"right_numbers":[6,9,13,9,19,12,5,19,0,12],"points_earned":314,"phase":"task","trial_type":"horizons-task","trial_index":45,"time_elapsed":546935,"internal_node_id":"0.0-41.0","task_version":"0.2"},{"response_times":[417.99500002525747,385.6449999148026,582.3350000428036,585.4850000469014,630.8299999218434,471.99500002898276,350.9099999209866,456.7350000143051,288.18500007037073,215.89999995194376],"keys_pressed":["leftarrow","rightarrow","rightarrow","rightarrow","leftarrow","leftarrow","leftarrow","leftarrow","leftarrow","leftarrow"],"horizon":10,"forced_choices":["leftarrow","rightarrow","rightarrow","rightarrow"],"right_color":"lightblue","left_color":"orange","left_mu":40,"right_mu":20,"left_numbers":[23,60,37,35,49,31,40,49,45,38],"right_numbers":[16,22,17,9,26,21,20,31,19,18],"points_earned":323,"phase":"task","trial_type":"horizons-task","trial_index":46,"time_elapsed":552822,"internal_node_id":"0.0-42.0","task_version":"0.2"},{"response_times":[466.8999999994412,367.6800000248477,416.52000008616596,807.399999932386,410.23000003769994,431.99499999172986,399.09500000067055,374.7250000014901,280.7049999246374,227.56999998819083],"keys_pressed":["leftarrow","rightarrow","rightarrow","leftarrow","rightarrow","rightarrow","rightarrow","rightarrow","rightarrow","rightarrow"],"horizon":10,"forced_choices":["leftarrow","rightarrow","rightarrow","leftarrow"],"right_color":"orange","left_color":"lightblue","left_mu":40,"right_mu":70,"left_numbers":[49,49,40,48,29,54,37,34,35,43],"right_numbers":[71,65,74,76,68,70,58,74,80,75],"points_earned":661,"phase":"task","trial_type":"horizons-task","trial_index":47,"time_elapsed":558507,"internal_node_id":"0.0-43.0","task_version":"0.2"},{"response_times":[436.7050000000745,369.9849999975413,389.7300000535324,983.8999999919906,1647.9550000512972],"keys_pressed":["leftarrow","leftarrow","rightarrow","rightarrow","rightarrow"],"horizon":5,"forced_choices":["leftarrow","leftarrow","rightarrow","rightarrow"],"right_color":"lightblue","left_color":"orange","left_mu":60,"right_mu":52,"left_numbers":[44,57,53,51,62],"right_numbers":[36,63,49,60,51],"points_earned":261,"phase":"task","trial_type":"horizons-task","trial_index":48,"time_elapsed":563839,"internal_node_id":"0.0-44.0","task_version":"0.2"},{"response_times":[362.50000004656613,359.13500003516674,367.5299999304116,455.9950000839308,552.6599999284372,480.3800000809133,583.17499991972,336.9999999413267,254.905000096187,223.49500004202127],"keys_pressed":["leftarrow","leftarrow","rightarrow","leftarrow","rightarrow","leftarrow","leftarrow","leftarrow","leftarrow","leftarrow"],"horizon":10,"forced_choices":["leftarrow","leftarrow","rightarrow","leftarrow"],"right_color":"lightblue","left_color":"orange","left_mu":40,"right_mu":28,"left_numbers":[42,32,30,33,56,46,37,36,28,33],"right_numbers":[41,31,27,17,23,22,12,20,35,21],"points_earned":337,"phase":"task","trial_type":"horizons-task","trial_index":49,"time_elapsed":569318,"internal_node_id":"0.0-45.0","task_version":"0.2"},{"response_times":[370.54999999236315,359.86500000581145,490.02499994821846,405.64999997150153,638.2600000360981],"keys_pressed":["leftarrow","leftarrow","leftarrow","rightarrow","rightarrow"],"horizon":5,"forced_choices":["leftarrow","leftarrow","leftarrow","rightarrow"],"right_color":"lightblue","left_color":"orange","left_mu":40,"right_mu":52,"left_numbers":[48,38,39,31,55],"right_numbers":[41,55,52,46,44],"points_earned":215,"phase":"task","trial_type":"horizons-task","trial_index":50,"time_elapsed":573085,"internal_node_id":"0.0-46.0","task_version":"0.2"},{"view_history":"[{\"page_index\":0,\"viewing_time\":2084.8349999869242},{\"page_index\":1,\"viewing_time\":1296.4800000190735}]","rt":3381.7249999847263,"trial_type":"instructions","trial_index":51,"time_elapsed":576467,"internal_node_id":"0.0-47.0","task_version":"0.2"},{"response_times":[970.2500000130385,341.89499996136874,683.1999999703839,598.109999904409,520.7800000207499],"keys_pressed":["rightarrow","leftarrow","leftarrow","rightarrow","rightarrow"],"horizon":5,"forced_choices":["rightarrow","leftarrow","leftarrow","rightarrow"],"right_color":"orange","left_color":"lightblue","left_mu":60,"right_mu":68,"left_numbers":[63,50,59,55,67],"right_numbers":[70,65,86,65,69],"points_earned":313,"phase":"task","trial_type":"horizons-task","trial_index":52,"time_elapsed":581104,"internal_node_id":"0.0-48.0","task_version":"0.2"},{"response_times":[446.01999991573393,401.68999996967614,669.7799999965355,719.8699999134988,1952.7200000593439],"keys_pressed":["leftarrow","rightarrow","leftarrow","leftarrow","rightarrow"],"horizon":5,"forced_choices":["leftarrow","rightarrow","leftarrow","leftarrow"],"right_color":"orange","left_color":"lightblue","left_mu":40,"right_mu":60,"left_numbers":[52,45,39,53,41],"right_numbers":[57,57,43,57,66],"points_earned":267,"phase":"task","trial_type":"horizons-task","trial_index":53,"time_elapsed":586799,"internal_node_id":"0.0-49.0","task_version":"0.2"},{"response_times":[496.8599999556318,375.6199999479577,608.7650000117719,495.4450000077486,496.02500000037253,215.6699999468401,192.30999995488673,186.35500001255423,189.7449999814853,176.78500001784414],"keys_pressed":["rightarrow","rightarrow","leftarrow","leftarrow","leftarrow","leftarrow","leftarrow","leftarrow","leftarrow","leftarrow"],"horizon":10,"forced_choices":["rightarrow","rightarrow","leftarrow","leftarrow"],"right_color":"lightblue","left_color":"orange","left_mu":40,"right_mu":10,"left_numbers":[38,42,48,42,16,30,32,39,25,24],"right_numbers":[3,7,6,0,3,23,1,11,18,18],"points_earned":266,"phase":"task","trial_type":"horizons-task","trial_index":54,"time_elapsed":591735,"internal_node_id":"0.0-50.0","task_version":"0.2"},{"response_times":[3892.0049999142066,381.19000010192394,618.04500001017,684.8749999189749,417.4899999052286,535.3800000157207,440.2700000209734,432.0849999785423,239.96500007342547,280.0699999788776],"keys_pressed":["rightarrow","rightarrow","leftarrow","leftarrow","rightarrow","rightarrow","rightarrow","rightarrow","rightarrow","rightarrow"],"horizon":10,"forced_choices":["rightarrow","rightarrow","leftarrow","leftarrow"],"right_color":"orange","left_color":"lightblue","left_mu":60,"right_mu":64,"left_numbers":[57,58,72,56,57,56,56,65,65,55],"right_numbers":[70,62,56,70,68,71,80,51,63,66],"points_earned":659,"phase":"task","trial_type":"horizons-task","trial_index":55,"time_elapsed":601158,"internal_node_id":"0.0-51.0","task_version":"0.2"},{"response_times":[482.4749999679625,480.0550000509247,455.98500000778586,551.9599999533966,514.324999996461,501.6250000335276,690.5350000597537,222.03000006265938,177.06499993801117,132406.31999995094],"keys_pressed":["rightarrow","leftarrow","leftarrow","rightarrow","leftarrow","leftarrow","leftarrow","leftarrow","leftarrow","leftarrow"],"horizon":10,"forced_choices":["rightarrow","leftarrow","leftarrow","rightarrow"],"right_color":"lightblue","left_color":"orange","left_mu":60,"right_mu":30,"left_numbers":[55,47,70,49,56,44,43,65,55,42],"right_numbers":[41,28,28,26,25,31,32,27,30,32],"points_earned":489,"phase":"task","trial_type":"horizons-task","trial_index":56,"time_elapsed":739145,"internal_node_id":"0.0-52.0","task_version":"0.2"},{"response_times":[634.3599999090657,374.9750000424683,671.764999977313,552.629999932833,1055.7450000196695,495.62500009778887,386.0700000077486,437.67000001389533,304.2500000447035,231.61000001709908],"keys_pressed":["leftarrow","rightarrow","leftarrow","rightarrow","leftarrow","leftarrow","leftarrow","leftarrow","leftarrow","leftarrow"],"horizon":10,"forced_choices":["leftarrow","rightarrow","leftarrow","rightarrow"],"right_color":"orange","left_color":"lightblue","left_mu":60,"right_mu":56,"left_numbers":[60,69,54,59,57,61,66,45,47,65],"right_numbers":[37,57,61,55,60,45,61,51,50,60],"points_earned":567,"phase":"task","trial_type":"horizons-task","trial_index":57,"time_elapsed":745792,"internal_node_id":"0.0-53.0","task_version":"0.2"},{"response_times":[393.5499999206513,417.0249999733642,455.5549999931827,538.8650000095367,484.4250000314787,440.36000000778586,457.9649999504909,383.60499998088926,330.51500003784895,253.27000010292977],"keys_pressed":["leftarrow","rightarrow","rightarrow","rightarrow","rightarrow","leftarrow","rightarrow","rightarrow","rightarrow","rightarrow"],"horizon":10,"forced_choices":["leftarrow","rightarrow","rightarrow","rightarrow"],"right_color":"lightblue","left_color":"orange","left_mu":60,"right_mu":90,"left_numbers":[57,51,69,47,44,42,65,63,54,56],"right_numbers":[78,107,84,90,79,78,87,90,83,99],"points_earned":818,"phase":"task","trial_type":"horizons-task","trial_index":58,"time_elapsed":751450,"internal_node_id":"0.0-54.0","task_version":"0.2"},{"response_times":[488.8050000881776,415.3849999420345,705.2900000708178,446.8699999852106,627.1449999185279],"keys_pressed":["rightarrow","leftarrow","rightarrow","leftarrow","leftarrow"],"horizon":5,"forced_choices":["rightarrow","leftarrow","rightarrow","leftarrow"],"right_color":"lightblue","left_color":"orange","left_mu":40,"right_mu":20,"left_numbers":[32,51,39,35,42],"right_numbers":[11,21,11,26,17],"points_earned":150,"phase":"task","trial_type":"horizons-task","trial_index":59,"time_elapsed":755636,"internal_node_id":"0.0-55.0","task_version":"0.2"},{"response_times":[358.70999994222075,529.0450000902638,354.7600000165403,516.0199999809265,408.57500000856817],"keys_pressed":["leftarrow","leftarrow","rightarrow","leftarrow","leftarrow"],"horizon":5,"forced_choices":["leftarrow","leftarrow","rightarrow","leftarrow"],"right_color":"orange","left_color":"lightblue","left_mu":60,"right_mu":40,"left_numbers":[61,58,55,51,52],"right_numbers":[33,36,36,36,33],"points_earned":258,"phase":"task","trial_type":"horizons-task","trial_index":60,"time_elapsed":759304,"internal_node_id":"0.0-56.0","task_version":"0.2"},{"response_times":[410.26499995496124,384.11500002257526,367.89500003214926,808.8650000281632,570.1450000051409,405.4299999261275,823.8100000889972,543.5750000178814,199.4150000391528,424.7050000121817],"keys_pressed":["leftarrow","leftarrow","rightarrow","rightarrow","rightarrow","leftarrow","leftarrow","leftarrow","leftarrow","leftarrow"],"horizon":10,"forced_choices":["leftarrow","leftarrow","rightarrow","rightarrow"],"right_color":"lightblue","left_color":"orange","left_mu":60,"right_mu":52,"left_numbers":[59,67,62,57,72,58,66,48,52,62],"right_numbers":[55,52,43,49,53,52,59,43,55,55],"points_earned":557,"phase":"task","trial_type":"horizons-task","trial_index":61,"time_elapsed":765744,"internal_node_id":"0.0-57.0","task_version":"0.2"},{"response_times":[435.2900000521913,347.4449999630451,547.7249999530613,639.9900000542402,951.9899999722838],"keys_pressed":["leftarrow","rightarrow","leftarrow","leftarrow","leftarrow"],"horizon":5,"forced_choices":["leftarrow","rightarrow","leftarrow","leftarrow"],"right_color":"lightblue","left_color":"orange","left_mu":40,"right_mu":48,"left_numbers":[35,39,32,37,37],"right_numbers":[57,32,50,44,46],"points_earned":173,"phase":"task","trial_type":"horizons-task","trial_index":62,"time_elapsed":770168,"internal_node_id":"0.0-58.0","task_version":"0.2"},{"response_times":[506.8899999605492,286.99000005144626,519.9700000230223,575.6899999687448,552.0999999716878],"keys_pressed":["rightarrow","leftarrow","leftarrow","leftarrow","rightarrow"],"horizon":5,"forced_choices":["rightarrow","leftarrow","leftarrow","leftarrow"],"right_color":"lightblue","left_color":"orange","left_mu":60,"right_mu":52,"left_numbers":[68,66,50,59,59],"right_numbers":[49,39,52,43,41],"points_earned":265,"phase":"task","trial_type":"horizons-task","trial_index":63,"time_elapsed":774127,"internal_node_id":"0.0-59.0","task_version":"0.2"},{"response_times":[475.304999970831,392.05999998375773,511.20000006631017,687.6499999780208,528.8200000068173],"keys_pressed":["rightarrow","leftarrow","leftarrow","leftarrow","rightarrow"],"horizon":5,"forced_choices":["rightarrow","leftarrow","leftarrow","leftarrow"],"right_color":"orange","left_color":"lightblue","left_mu":40,"right_mu":70,"left_numbers":[48,42,38,35,41],"right_numbers":[84,66,68,66,70],"points_earned":269,"phase":"task","trial_type":"horizons-task","trial_index":64,"time_elapsed":778224,"internal_node_id":"0.0-60.0","task_version":"0.2"},{"response_times":[482.7100000111386,608.47500001546,512.0400000596419,575.4599999636412,607.5949999503791],"keys_pressed":["leftarrow","leftarrow","rightarrow","rightarrow","rightarrow"],"horizon":5,"forced_choices":["leftarrow","leftarrow","rightarrow","rightarrow"],"right_color":"orange","left_color":"lightblue","left_mu":60,"right_mu":72,"left_numbers":[73,65,61,67,52],"right_numbers":[85,79,77,64,69],"points_earned":348,"phase":"task","trial_type":"horizons-task","trial_index":65,"time_elapsed":782512,"internal_node_id":"0.0-61.0","task_version":"0.2"},{"response_times":[433.35999990813434,431.8050000583753,553.0850000213832,904.1049999650568,1392.3799999756739],"keys_pressed":["rightarrow","leftarrow","leftarrow","rightarrow","rightarrow"],"horizon":5,"forced_choices":["rightarrow","leftarrow","leftarrow","rightarrow"],"right_color":"lightblue","left_color":"orange","left_mu":40,"right_mu":44,"left_numbers":[39,48,36,38,45],"right_numbers":[51,37,53,43,30],"points_earned":208,"phase":"task","trial_type":"horizons-task","trial_index":66,"time_elapsed":787728,"internal_node_id":"0.0-62.0","task_version":"0.2"},{"response_times":[313.97999997716397,431.8249999778345,456.2399999704212,687.830000068061,345.3849999932572],"keys_pressed":["leftarrow","rightarrow","leftarrow","rightarrow","leftarrow"],"horizon":5,"forced_choices":["leftarrow","rightarrow","leftarrow","rightarrow"],"right_color":"orange","left_color":"lightblue","left_mu":60,"right_mu":56,"left_numbers":[61,46,69,48,51],"right_numbers":[62,58,54,60,71],"points_earned":299,"phase":"task","trial_type":"horizons-task","trial_index":67,"time_elapsed":791466,"internal_node_id":"0.0-63.0","task_version":"0.2"},{"response_times":[401.0300000663847,396.8550000572577,1161.989999935031,552.1400000434369,1360.270000062883],"keys_pressed":["leftarrow","rightarrow","rightarrow","leftarrow","leftarrow"],"horizon":5,"forced_choices":["leftarrow","rightarrow","rightarrow","leftarrow"],"right_color":"orange","left_color":"lightblue","left_mu":40,"right_mu":32,"left_numbers":[44,35,35,37,36],"right_numbers":[20,28,27,48,19],"points_earned":172,"phase":"task","trial_type":"horizons-task","trial_index":68,"time_elapsed":796841,"internal_node_id":"0.0-64.0","task_version":"0.2"},{"response_times":[467.3099999781698,486.50500003714114,583.9199998881668,551.9349999958649,1233.6949999444187,662.8700000001118,895.6400000024587,615.6249999767169,488.7850000523031,247.7400000207126],"keys_pressed":["leftarrow","rightarrow","leftarrow","leftarrow","leftarrow","rightarrow","rightarrow","rightarrow","rightarrow","rightarrow"],"horizon":10,"forced_choices":["leftarrow","rightarrow","leftarrow","leftarrow"],"right_color":"lightblue","left_color":"orange","left_mu":40,"right_mu":48,"left_numbers":[37,46,44,44,26,33,43,51,44,28],"right_numbers":[53,41,38,35,46,38,56,50,41,40],"points_earned":417,"phase":"task","trial_type":"horizons-task","trial_index":69,"time_elapsed":804577,"internal_node_id":"0.0-65.0","task_version":"0.2"},{"response_times":[510.40499994996935,744.3799999309704,712.9649999551475,519.7100000223145,463.20999995805323],"keys_pressed":["rightarrow","rightarrow","leftarrow","rightarrow","leftarrow"],"horizon":5,"forced_choices":["rightarrow","rightarrow","leftarrow","rightarrow"],"right_color":"lightblue","left_color":"orange","left_mu":40,"right_mu":44,"left_numbers":[44,58,48,40,20],"right_numbers":[39,33,46,43,42],"points_earned":183,"phase":"task","trial_type":"horizons-task","trial_index":70,"time_elapsed":809032,"internal_node_id":"0.0-66.0","task_version":"0.2"},{"response_times":[426.69500003103167,508.1550000468269,579.3500000145286,712.2700000181794,600.4499999107793,600.0599999679253,487.1450000209734,384.2299999669194,209.38999997451901,198.11500003561378],"keys_pressed":["rightarrow","rightarrow","leftarrow","rightarrow","leftarrow","leftarrow","leftarrow","leftarrow","leftarrow","leftarrow"],"horizon":10,"forced_choices":["rightarrow","rightarrow","leftarrow","rightarrow"],"right_color":"lightblue","left_color":"orange","left_mu":60,"right_mu":30,"left_numbers":[67,62,51,66,64,51,57,53,63,65],"right_numbers":[39,35,31,24,29,17,42,32,30,26],"points_earned":502,"phase":"task","trial_type":"horizons-task","trial_index":71,"time_elapsed":815241,"internal_node_id":"0.0-67.0","task_version":"0.2"},{"response_times":[466.2049999460578,463.564999983646,470.9750000620261,622.4099999526516,554.9250000622123,542.9650000296533,519.6650000289083,586.5400000475347,520.2300000237301,182.31499998364598],"keys_pressed":["rightarrow","rightarrow","leftarrow","rightarrow","leftarrow","leftarrow","rightarrow","leftarrow","leftarrow","leftarrow"],"horizon":10,"forced_choices":["rightarrow","rightarrow","leftarrow","rightarrow"],"right_color":"lightblue","left_color":"orange","left_mu":40,"right_mu":44,"left_numbers":[45,42,46,50,45,36,36,40,51,58],"right_numbers":[52,31,46,41,44,43,32,32,53,44],"points_earned":432,"phase":"task","trial_type":"horizons-task","trial_index":72,"time_elapsed":821673,"internal_node_id":"0.0-68.0","task_version":"0.2"},{"response_times":[385.84000000264496,488.77500009257346,415.9900000086054,813.910000026226,471.77500010002404],"keys_pressed":["leftarrow","leftarrow","rightarrow","leftarrow","leftarrow"],"horizon":5,"forced_choices":["leftarrow","leftarrow","rightarrow","leftarrow"],"right_color":"lightblue","left_color":"orange","left_mu":40,"right_mu":28,"left_numbers":[35,26,43,44,45],"right_numbers":[21,20,9,25,37],"points_earned":159,"phase":"task","trial_type":"horizons-task","trial_index":73,"time_elapsed":825752,"internal_node_id":"0.0-69.0","task_version":"0.2"},{"response_times":[571.2950000306591,650.4900000290945,614.7049999563023,558.8250000728294,1061.519999988377,1008.7550000753254,714.5949999103323,967.0000000623986,493.20499994792044,445.21500007249415],"keys_pressed":["rightarrow","rightarrow","leftarrow","leftarrow","rightarrow","rightarrow","leftarrow","rightarrow","leftarrow","rightarrow"],"horizon":10,"forced_choices":["rightarrow","rightarrow","leftarrow","leftarrow"],"right_color":"lightblue","left_color":"orange","left_mu":40,"right_mu":48,"left_numbers":[41,45,56,52,33,36,46,20,49,60],"right_numbers":[66,40,52,45,58,33,60,45,49,54],"points_earned":499,"phase":"task","trial_type":"horizons-task","trial_index":74,"time_elapsed":834340,"internal_node_id":"0.0-70.0","task_version":"0.2"},{"response_times":[583.4650000324473,454.5299999881536,975.8000000147149,2000.0500000314787,1952.419999986887],"keys_pressed":["rightarrow","leftarrow","rightarrow","leftarrow","rightarrow"],"horizon":5,"forced_choices":["rightarrow","leftarrow","rightarrow","leftarrow"],"right_color":"lightblue","left_color":"orange","left_mu":40,"right_mu":28,"left_numbers":[47,37,46,31,40],"right_numbers":[35,24,23,20,35],"points_earned":161,"phase":"task","trial_type":"horizons-task","trial_index":75,"time_elapsed":841808,"internal_node_id":"0.0-71.0","task_version":"0.2"},{"response_times":[465.3999999864027,654.0549999335781,787.9350000293925,990.6549999723211,2409.914999967441,864.0299999387935,571.5249999193475,434.1400000266731,439.7049999097362,192.27999995928258],"keys_pressed":["leftarrow","leftarrow","rightarrow","rightarrow","leftarrow","rightarrow","rightarrow","rightarrow","rightarrow","rightarrow"],"horizon":10,"forced_choices":["leftarrow","leftarrow","rightarrow","rightarrow"],"right_color":"orange","left_color":"lightblue","left_mu":60,"right_mu":72,"left_numbers":[56,64,59,57,55,63,65,74,56,70],"right_numbers":[69,60,72,76,69,72,77,72,73,65],"points_earned":682,"phase":"task","trial_type":"horizons-task","trial_index":76,"time_elapsed":851120,"internal_node_id":"0.0-72.0","task_version":"0.2"},{"response_times":[348.12500001862645,466.4700001012534,547.2549999831244,455.8650000253692,679.9799998989329,888.1700000492856,1601.7549999523908,571.7299999669194,281.9850000087172,201.67999994009733],"keys_pressed":["leftarrow","leftarrow","leftarrow","rightarrow","leftarrow","rightarrow","leftarrow","rightarrow","rightarrow","rightarrow"],"horizon":10,"forced_choices":["leftarrow","leftarrow","leftarrow","rightarrow"],"right_color":"lightblue","left_color":"orange","left_mu":40,"right_mu":52,"left_numbers":[37,48,46,29,50,44,35,33,35,38],"right_numbers":[53,47,66,58,27,59,63,45,56,51],"points_earned":485,"phase":"task","trial_type":"horizons-task","trial_index":77,"time_elapsed":858665,"internal_node_id":"0.0-73.0","task_version":"0.2"},{"response_times":[421.83500004466623,427.51499998848885,461.4049999509007,642.299999948591,615.8999999752268],"keys_pressed":["leftarrow","leftarrow","rightarrow","rightarrow","rightarrow"],"horizon":5,"forced_choices":["leftarrow","leftarrow","rightarrow","rightarrow"],"right_color":"lightblue","left_color":"orange","left_mu":60,"right_mu":90,"left_numbers":[69,53,73,72,63],"right_numbers":[96,78,82,97,84],"points_earned":385,"phase":"task","trial_type":"horizons-task","trial_index":78,"time_elapsed":862735,"internal_node_id":"0.0-74.0","task_version":"0.2"},{"response_times":[466.55000001192093,319.84000001102686,465.9799999790266,625.5300000775605,445.075000054203,1067.3149999929592,643.8999999081716,1288.1300000008196,383.7850000709295,447.89499999023974],"keys_pressed":["rightarrow","leftarrow","leftarrow","leftarrow","rightarrow","rightarrow","leftarrow","rightarrow","leftarrow","rightarrow"],"horizon":10,"forced_choices":["rightarrow","leftarrow","leftarrow","leftarrow"],"right_color":"orange","left_color":"lightblue","left_mu":60,"right_mu":72,"left_numbers":[71,67,60,55,49,52,60,50,46,56],"right_numbers":[63,80,83,67,73,54,74,75,62,71],"points_earned":624,"phase":"task","trial_type":"horizons-task","trial_index":79,"time_elapsed":870392,"internal_node_id":"0.0-75.0","task_version":"0.2"},{"response_times":[663.7450000271201,614.5500000566244,523.854999919422,474.23000005073845,325.855000060983],"keys_pressed":["leftarrow","rightarrow","rightarrow","rightarrow","rightarrow"],"horizon":5,"forced_choices":["leftarrow","rightarrow","rightarrow","rightarrow"],"right_color":"lightblue","left_color":"orange","left_mu":60,"right_mu":90,"left_numbers":[68,63,51,66,55],"right_numbers":[91,84,97,77,89],"points_earned":415,"phase":"task","trial_type":"horizons-task","trial_index":80,"time_elapsed":874497,"internal_node_id":"0.0-76.0","task_version":"0.2"},{"response_times":[353.5799999954179,360.2450001053512,474.225000012666,486.87500006053597,526.5799999469891],"keys_pressed":["leftarrow","rightarrow","rightarrow","rightarrow","rightarrow"],"horizon":5,"forced_choices":["leftarrow","rightarrow","rightarrow","rightarrow"],"right_color":"orange","left_color":"lightblue","left_mu":60,"right_mu":80,"left_numbers":[59,46,67,54,62],"right_numbers":[80,104,85,81,72],"points_earned":401,"phase":"task","trial_type":"horizons-task","trial_index":81,"time_elapsed":878200,"internal_node_id":"0.0-77.0","task_version":"0.2"},{"response_times":[515.6149999238551,383.1299999728799,672.9099999647588,502.08000000566244,697.2449999302626],"keys_pressed":["leftarrow","rightarrow","leftarrow","rightarrow","leftarrow"],"horizon":5,"forced_choices":["leftarrow","rightarrow","leftarrow","rightarrow"],"right_color":"lightblue","left_color":"orange","left_mu":40,"right_mu":36,"left_numbers":[36,41,27,41,33],"right_numbers":[35,31,53,29,25],"points_earned":156,"phase":"task","trial_type":"horizons-task","trial_index":82,"time_elapsed":882472,"internal_node_id":"0.0-78.0","task_version":"0.2"},{"response_times":[521.2449999526143,192.32999999076128,738.08000003919,421.64499999489635,808.6650000186637,607.9599999357015,535.1200000150129,407.9499999061227,261.53499993961304,146.53000002726912],"keys_pressed":["rightarrow","leftarrow","leftarrow","rightarrow","leftarrow","rightarrow","rightarrow","rightarrow","rightarrow","rightarrow"],"horizon":10,"forced_choices":["rightarrow","leftarrow","leftarrow","rightarrow"],"right_color":"lightblue","left_color":"orange","left_mu":40,"right_mu":44,"left_numbers":[35,22,48,38,36,55,42,37,37,38],"right_numbers":[51,41,43,33,43,45,40,48,41,63],"points_earned":427,"phase":"task","trial_type":"horizons-task","trial_index":83,"time_elapsed":888615,"internal_node_id":"0.0-79.0","task_version":"0.2"},{"response_times":[428.2550000352785,813.0000000819564,489.8400000529364,579.3200000189245,229.8600000794977],"keys_pressed":["rightarrow","rightarrow","leftarrow","leftarrow","leftarrow"],"horizon":5,"forced_choices":["rightarrow","rightarrow","leftarrow","leftarrow"],"right_color":"lightblue","left_color":"orange","left_mu":40,"right_mu":10,"left_numbers":[40,41,36,45,46],"right_numbers":[5,20,14,11,17],"points_earned":152,"phase":"task","trial_type":"horizons-task","trial_index":84,"time_elapsed":892658,"internal_node_id":"0.0-80.0","task_version":"0.2"},{"response_times":[487.9749999381602,456.10000006854534,472.09499997552484,468.20000000298023,404.20000010635704,664.0349999070168,456.61499991547316,894.8699999600649,1736.1299999756739,775.870000012219],"keys_pressed":["leftarrow","leftarrow","leftarrow","rightarrow","leftarrow","rightarrow","leftarrow","rightarrow","leftarrow","rightarrow"],"horizon":10,"forced_choices":["leftarrow","leftarrow","leftarrow","rightarrow"],"right_color":"orange","left_color":"lightblue","left_mu":40,"right_mu":32,"left_numbers":[34,53,50,31,46,34,30,45,36,38],"right_numbers":[32,19,36,39,17,27,16,40,33,42],"points_earned":397,"phase":"task","trial_type":"horizons-task","trial_index":85,"time_elapsed":900976,"internal_node_id":"0.0-81.0","task_version":"0.2"},{"response_times":[417.5350000150502,391.840000054799,632.7799999853596,503.76500003039837,1038.7349999509752,376.15000002551824,328.8800000445917,224.25500000827014,183.01499995868653,161.76499996799976],"keys_pressed":["rightarrow","rightarrow","rightarrow","leftarrow","leftarrow","leftarrow","leftarrow","leftarrow","leftarrow","leftarrow"],"horizon":10,"forced_choices":["rightarrow","rightarrow","rightarrow","leftarrow"],"right_color":"orange","left_color":"lightblue","left_mu":60,"right_mu":48,"left_numbers":[53,61,55,64,70,63,73,48,42,60],"right_numbers":[41,37,44,42,61,40,42,54,42,43],"points_earned":542,"phase":"task","trial_type":"horizons-task","trial_index":86,"time_elapsed":906737,"internal_node_id":"0.0-82.0","task_version":"0.2"},{"response_times":[467.3000000184402,295.1850000536069,824.5200000237674,605.8199999388307,960.1150000235066,819.7100000688806,532.4499999405816,876.4400000218302,612.5349999638274,206.7000000970438],"keys_pressed":["rightarrow","leftarrow","leftarrow","leftarrow","rightarrow","rightarrow","rightarrow","rightarrow","rightarrow","rightarrow"],"horizon":10,"forced_choices":["rightarrow","leftarrow","leftarrow","leftarrow"],"right_color":"orange","left_color":"lightblue","left_mu":40,"right_mu":70,"left_numbers":[26,34,44,42,33,38,40,31,44,34],"right_numbers":[83,71,57,72,65,68,59,80,69,85],"points_earned":629,"phase":"task","trial_type":"horizons-task","trial_index":87,"time_elapsed":914441,"internal_node_id":"0.0-83.0","task_version":"0.2"},{"response_times":[790.4199999757111,475.2399999415502,621.9699999783188,968.0450001033023,574.7599999886006],"keys_pressed":["rightarrow","leftarrow","rightarrow","leftarrow","rightarrow"],"horizon":5,"forced_choices":["rightarrow","leftarrow","rightarrow","leftarrow"],"right_color":"orange","left_color":"lightblue","left_mu":60,"right_mu":80,"left_numbers":[45,59,57,54,69],"right_numbers":[64,79,87,99,76],"points_earned":340,"phase":"task","trial_type":"horizons-task","trial_index":88,"time_elapsed":919377,"internal_node_id":"0.0-84.0","task_version":"0.2"},{"response_times":[439.9949999060482,385.17999998293817,568.570000003092,630.3899999475107,727.904999977909,779.3499999679625,508.5399999516085,506.21500005945563,376.08499999623746,621.1900000926107],"keys_pressed":["leftarrow","leftarrow","rightarrow","leftarrow","rightarrow","rightarrow","rightarrow","rightarrow","leftarrow","rightarrow"],"horizon":10,"forced_choices":["leftarrow","leftarrow","rightarrow","leftarrow"],"right_color":"orange","left_color":"lightblue","left_mu":60,"right_mu":56,"left_numbers":[58,72,65,46,59,34,63,61,58,55],"right_numbers":[64,47,54,50,60,60,62,61,47,59],"points_earned":590,"phase":"task","trial_type":"horizons-task","trial_index":89,"time_elapsed":926424,"internal_node_id":"0.0-85.0","task_version":"0.2"},{"response_times":[865.2649999130517,801.3600000413135,471.98500006925315,1007.7699999092147,815.2850000187755],"keys_pressed":["rightarrow","rightarrow","leftarrow","rightarrow","leftarrow"],"horizon":5,"forced_choices":["rightarrow","rightarrow","leftarrow","rightarrow"],"right_color":"lightblue","left_color":"orange","left_mu":60,"right_mu":30,"left_numbers":[56,48,59,71,66],"right_numbers":[25,24,21,27,28],"points_earned":201,"phase":"task","trial_type":"horizons-task","trial_index":90,"time_elapsed":931888,"internal_node_id":"0.0-86.0","task_version":"0.2"},{"response_times":[354.32000004220754,434.11499995272607,582.0700000040233,694.759999983944,492.8749999962747,386.30000001285225,400.8499999763444,359.4649999868125,496.7199999373406,199.76999994833022],"keys_pressed":["leftarrow","rightarrow","rightarrow","leftarrow","rightarrow","rightarrow","rightarrow","rightarrow","rightarrow","rightarrow"],"horizon":10,"forced_choices":["leftarrow","rightarrow","rightarrow","leftarrow"],"right_color":"lightblue","left_color":"orange","left_mu":40,"right_mu":52,"left_numbers":[42,29,49,40,50,32,30,30,38,41],"right_numbers":[41,55,63,54,59,69,55,59,48,56],"points_earned":546,"phase":"task","trial_type":"horizons-task","trial_index":91,"time_elapsed":937792,"internal_node_id":"0.0-87.0","task_version":"0.2"},{"rt":14120.304999989457,"responses":{"age":"25","gender-categorical":"Male","gender-free-response":"","ethnicity":"Not Hispanic or Latino","race":["White"],"language":"Yes","fluency":"Very well"},"survey":"demographics","trial_type":"survey-demo","trial_index":92,"time_elapsed":951917,"internal_node_id":"0.0-88.0","task_version":"0.2"},{"rt":54786.765000084415,"responses":{"difficulty":"4","fun":"4","clarity":"5","strategy":"I tried to use the past knowledge of the patterns in the puzzle to generate how the future numbers would result","feedback":"I enjoyed the game but had a hard time finding an overall consistency in the puzzle"},"survey":"debrief","trial_type":"survey-debrief","trial_index":93,"time_elapsed":1006706,"internal_node_id":"0.0-89.0","task_version":"0.2","interactions":"[{\"event\":\"blur\",\"trial\":2,\"time\":45698},{\"event\":\"focus\",\"trial\":2,\"time\":49277},{\"event\":\"blur\",\"trial\":3,\"time\":96263},{\"event\":\"focus\",\"trial\":3,\"time\":99728},{\"event\":\"blur\",\"trial\":32,\"time\":426679},{\"event\":\"focus\",\"trial\":32,\"time\":431855},{\"event\":\"blur\",\"trial\":56,\"time\":606892},{\"event\":\"focus\",\"trial\":56,\"time\":736141}]"}]