[{"view_history":"[{\"page_index\":0,\"viewing_time\":6710.654999995313}]","rt":6714.649999994435,"trial_type":"instructions","trial_index":0,"time_elapsed":6743,"internal_node_id":"0.0-0.0","task_version":"0.2"},{"item_order":[2,8,13,15,4,3,1,5,14,10,6,7,16,11,12,0,9],"responses":{"Q03":"4","Q09":"4","Q14":"4","Q16":"4","Q05":"4","Q04":"4","Q02":"2","Q06":"4","Q15":"3","Q11":"4","Q07":"4","Q08":"4","Q17":"0","Q12":"4","Q13":"4","Q01":"4","Q10":"4"},"radio_events":[13106.4750000005,21353.25500000181,24367.489999996906,27834.264999997686,32209.445000000414,38180.059999998775,42234.48500000086,44059.95000000257,50812.03000000096,54323.83000000118,59143.51999999781,65131.27499999973,68340.5649999986,74486.31000000023,81055.13999999675,83726.15000000224,92939.76999999722],"key_events":[],"mouse_events":[0.2499999973224476,13106.4750000005,21353.25500000181,24367.489999996906,27834.264999997686,32209.445000000414,35661.93999999814,38180.059999998775,42234.48500000086,44059.95000000257,50812.03000000096,54323.83000000118,59143.51999999781,65131.27499999973,68340.5649999986,74486.31000000023,81055.13999999675,83726.15000000224,86395.06999999867,92939.76999999722,95863.89500000223],"rt":95876.97499999922,"survey":"pswq","trial_type":"survey-template","trial_index":1,"time_elapsed":102636,"internal_node_id":"0.0-1.0","task_version":"0.2"},{"item_order":[5,0,7,1,12,11,10,2,8,4,6,9,3],"responses":{"Q06":"4","Q01":"4","Q08":"3","Q02":"3","Q13":"4","Q12":"2","Q11":"4","Q03":"3","Q09":"4","Q05":"4","Q07":"4","Q10":"3","Q04":"4"},"radio_events":[9116.204999998445,13160.960000001069,18733.800000001793,23169.764999998733,30797.25000000326,37241.69999999867,42615.52500000107,48356.39500000252,53944.860000003246,58877.61500000488,62485.72000000422,67175.90999999811,70440.27500000084],"key_events":[],"mouse_events":[9116.204999998445,13160.960000001069,18733.800000001793,23169.764999998733,30797.25000000326,37241.69999999867,42615.52500000107,48356.39500000252,53944.860000003246,58877.61500000488,62485.72000000422,67175.90999999811,70440.27500000084,73541.31000000052],"rt":73551.81000000448,"survey":"ius12","trial_type":"survey-template","trial_index":2,"time_elapsed":176199,"internal_node_id":"0.0-2.0","task_version":"0.2"},{"item_order":[12,2,13,11,14,1,9,10,3,0,7,6,8,4,15,5],"responses":{"Q13":"4","Q03":"4","Q14":"1","Q12":"5","Q15":"5","Q02":"3","Q10":"5","Q11":"4","Q04":"5","Q01":"5","Q08":"5","Q07":"3","Q09":"4","Q05":"4","Q16":"5","Q06":"5"},"radio_events":[6890.124999998079,6980.595000000903,14593.540000001667,21333.355000002484,27026.050000000396,40100.939999996626,45335.370000000694,55417.71500000323,62439.03000000137,65879.79500000074,72692.41000000329,78436.20499999815,88083.71500000067,96970.5099999992,105369.69500000123,113401.06999999989,123227.05000000133],"key_events":[],"mouse_events":[6890.124999998079,6980.595000000903,14593.540000001667,21333.355000002484,27026.050000000396,30888.68999999977,40100.939999996626,45335.370000000694,55417.71500000323,62439.03000000137,65879.79500000074,72692.41000000329,78436.20499999815,88083.71500000067,96970.5099999992,105369.69500000123,113401.06999999989,114811.08500000119,123227.05000000133,128368.56499999703],"rt":128380.42999999743,"survey":"nfc","trial_type":"survey-template","trial_index":3,"time_elapsed":304593,"internal_node_id":"0.0-3.0","task_version":"0.2"},{"view_history":"[{\"page_index\":0,\"viewing_time\":9113.734999998996},{\"page_index\":1,\"viewing_time\":18380.33500000165},{\"page_index\":2,\"viewing_time\":11221.84500000003},{\"page_index\":3,\"viewing_time\":9215.255000002799},{\"page_index\":4,\"viewing_time\":13661.874999997963},{\"page_index\":5,\"viewing_time\":6543.514999997569},{\"page_index\":6,\"viewing_time\":12240.310000001045},{\"page_index\":7,\"viewing_time\":15408.495000003313},{\"page_index\":8,\"viewing_time\":12451.08999999502},{\"page_index\":9,\"viewing_time\":22722.2299999994}]","rt":130958.96999999968,"trial_type":"instructions","trial_index":4,"time_elapsed":435555,"internal_node_id":"0.0-4.0-0.0","task_version":"0.2"},{"response_times":[3554.1050000028918,2409.1449999978067,2204.714999999851,1870.6500000043889,7966.350000002421],"keys_pressed":["rightarrow","leftarrow","rightarrow","rightarrow","leftarrow"],"horizon":5,"forced_choices":["rightarrow","leftarrow","rightarrow","rightarrow"],"right_color":"lightblue","left_color":"orange","left_mu":40,"right_mu":20,"left_numbers":[43,27,21,43,48],"right_numbers":[15,28,27,24,18],"points_earned":141,"phase":"practice","trial_type":"horizons-task","trial_index":5,"time_elapsed":455095,"internal_node_id":"0.0-4.0-1.0","task_version":"0.2"},{"response_times":[4056.47499999759,1177.239999997255,1663.0699999950593,782.9550000024028,2189.9499999999534,2615.570000001753,1748.1950000001234,3917.280000001483,2809.2949999991106,1725.0550000026124],"keys_pressed":["leftarrow","leftarrow","rightarrow","rightarrow","rightarrow","rightarrow","rightarrow","leftarrow","rightarrow","rightarrow"],"horizon":10,"forced_choices":["leftarrow","leftarrow","rightarrow","rightarrow"],"right_color":"orange","left_color":"lightblue","left_mu":60,"right_mu":70,"left_numbers":[62,63,72,57,67,60,70,61,52,71],"right_numbers":[73,77,80,86,64,79,59,72,56,60],"points_earned":670,"phase":"practice","trial_type":"horizons-task","trial_index":6,"time_elapsed":479293,"internal_node_id":"0.0-4.0-2.0","task_version":"0.2"},{"view_history":"[{\"page_index\":0,\"viewing_time\":3705.8800000013434},{\"page_index\":1,\"viewing_time\":6225.850000002538},{\"page_index\":2,\"viewing_time\":6490.149999997811},{\"page_index\":3,\"viewing_time\":5896.33500000491}]","rt":22320.825000002515,"trial_type":"instructions","trial_index":7,"time_elapsed":501617,"internal_node_id":"0.0-4.0-3.0","task_version":"0.2"},{"responses":["true","false","true"],"num_errors":0,"rt":16840.864999998303,"trial_type":"horizons-comprehension","trial_index":8,"time_elapsed":518465,"internal_node_id":"0.0-4.0-4.0","task_version":"0.2"},{"trial_type":"call-function","trial_index":9,"time_elapsed":518473,"internal_node_id":"0.0-5.0","task_version":"0.2"},{"view_history":"[{\"page_index\":0,\"viewing_time\":2863.42500000319},{\"page_index\":1,\"viewing_time\":5025.900000000605}]","rt":7890.545000002021,"trial_type":"instructions","trial_index":10,"time_elapsed":526365,"internal_node_id":"0.0-6.0","task_version":"0.2"},{"response_times":[2120.2699999994365,1164.714999999036,1027.6650000014342,1232.9350000000559,3880.729999997071],"keys_pressed":["leftarrow","leftarrow","leftarrow","rightarrow","rightarrow"],"horizon":5,"forced_choices":["leftarrow","leftarrow","leftarrow","rightarrow"],"right_color":"orange","left_color":"lightblue","left_mu":60,"right_mu":56,"left_numbers":[57,55,69,67,75],"right_numbers":[59,47,58,67,66],"points_earned":314,"phase":"task","trial_type":"horizons-task","trial_index":11,"time_elapsed":537313,"internal_node_id":"0.0-7.0","task_version":"0.2"},{"response_times":[1199.4499999999534,909.7099999999627,992.1950000061188,999.0150000011781,3158.6649999953806],"keys_pressed":["rightarrow","leftarrow","leftarrow","rightarrow","leftarrow"],"horizon":5,"forced_choices":["rightarrow","leftarrow","leftarrow","rightarrow"],"right_color":"orange","left_color":"lightblue","left_mu":40,"right_mu":20,"left_numbers":[29,42,44,26,52],"right_numbers":[30,19,21,12,36],"points_earned":180,"phase":"task","trial_type":"horizons-task","trial_index":12,"time_elapsed":546083,"internal_node_id":"0.0-8.0","task_version":"0.2"},{"response_times":[1477.0449999996927,1229.4949999995297,1257.999999994412,1381.6200000001118,1296.6949999972712],"keys_pressed":["leftarrow","rightarrow","rightarrow","leftarrow","rightarrow"],"horizon":5,"forced_choices":["leftarrow","rightarrow","rightarrow","leftarrow"],"right_color":"lightblue","left_color":"orange","left_mu":60,"right_mu":72,"left_numbers":[71,61,66,56,57],"right_numbers":[67,69,74,72,86],"points_earned":356,"phase":"task","trial_type":"horizons-task","trial_index":13,"time_elapsed":554238,"internal_node_id":"0.0-9.0","task_version":"0.2"},{"response_times":[1463.9249999963213,735.2850000024773,1475.3950000011828,2459.515000002226,1622.3850000023376,1652.175000002957,1149.1749999986496,853.2349999949802,555.1349999951199,501.6200000026729],"keys_pressed":["rightarrow","rightarrow","leftarrow","rightarrow","rightarrow","rightarrow","leftarrow","rightarrow","rightarrow","rightarrow"],"horizon":10,"forced_choices":["rightarrow","rightarrow","leftarrow","rightarrow"],"right_color":"lightblue","left_color":"orange","left_mu":40,"right_mu":52,"left_numbers":[53,38,47,53,41,27,25,58,39,53],"right_numbers":[44,62,66,63,57,40,53,47,54,48],"points_earned":487,"phase":"task","trial_type":"horizons-task","trial_index":14,"time_elapsed":568219,"internal_node_id":"0.0-10.0","task_version":"0.2"},{"response_times":[2661.3300000026356,786.6099999956787,1398.5699999976205,1227.9899999994086,1987.5150000008289],"keys_pressed":["leftarrow","rightarrow","leftarrow","rightarrow","leftarrow"],"horizon":5,"forced_choices":["leftarrow","rightarrow","leftarrow","rightarrow"],"right_color":"lightblue","left_color":"orange","left_mu":60,"right_mu":48,"left_numbers":[59,65,69,51,59],"right_numbers":[57,42,50,43,53],"points_earned":272,"phase":"task","trial_type":"horizons-task","trial_index":15,"time_elapsed":577805,"internal_node_id":"0.0-11.0","task_version":"0.2"},{"response_times":[1174.8899999947753,764.2650000052527,2797.6300000008196,1195.9800000041723,2115.1150000005728,1252.7350000018487,1284.2349999991711,1364.9600000062492,1221.5599999981932,597.6599999994505],"keys_pressed":["rightarrow","rightarrow","leftarrow","leftarrow","leftarrow","leftarrow","leftarrow","leftarrow","leftarrow","leftarrow"],"horizon":10,"forced_choices":["rightarrow","rightarrow","leftarrow","leftarrow"],"right_color":"orange","left_color":"lightblue","left_mu":60,"right_mu":56,"left_numbers":[64,63,71,56,69,55,61,53,56,55],"right_numbers":[46,30,64,61,53,82,57,57,42,51],"points_earned":552,"phase":"task","trial_type":"horizons-task","trial_index":16,"time_elapsed":593082,"internal_node_id":"0.0-12.0","task_version":"0.2"},{"response_times":[1218.8850000021048,889.8000000044703,1239.9700000024168,1032.1249999979045,4576.769999999553,1988.0100000009406,1201.1050000000978,807.650000002468,675.1199999998789,461.06500000320375],"keys_pressed":["rightarrow","leftarrow","rightarrow","leftarrow","leftarrow","leftarrow","rightarrow","leftarrow","leftarrow","leftarrow"],"horizon":10,"forced_choices":["rightarrow","leftarrow","rightarrow","leftarrow"],"right_color":"orange","left_color":"lightblue","left_mu":40,"right_mu":28,"left_numbers":[43,42,41,24,34,29,52,59,27,42],"right_numbers":[35,20,22,36,32,36,22,25,34,14],"points_earned":336,"phase":"task","trial_type":"horizons-task","trial_index":17,"time_elapsed":608685,"internal_node_id":"0.0-13.0","task_version":"0.2"},{"response_times":[1172.099999996135,901.1400000017602,1073.1949999971548,1300.5199999969918,2882.2399999990594],"keys_pressed":["rightarrow","rightarrow","leftarrow","rightarrow","rightarrow"],"horizon":5,"forced_choices":["rightarrow","rightarrow","leftarrow","rightarrow"],"right_color":"orange","left_color":"lightblue","left_mu":40,"right_mu":36,"left_numbers":[43,36,32,51,42],"right_numbers":[47,38,34,38,41],"points_earned":196,"phase":"task","trial_type":"horizons-task","trial_index":18,"time_elapsed":617525,"internal_node_id":"0.0-14.0","task_version":"0.2"},{"response_times":[1307.7899999989895,1159.33000000217,1177.735000004759,930.9599999978673,879.5249999966472],"keys_pressed":["leftarrow","rightarrow","rightarrow","rightarrow","rightarrow"],"horizon":5,"forced_choices":["leftarrow","rightarrow","rightarrow","rightarrow"],"right_color":"orange","left_color":"lightblue","left_mu":60,"right_mu":68,"left_numbers":[51,57,76,53,65],"right_numbers":[67,64,66,80,51],"points_earned":312,"phase":"task","trial_type":"horizons-task","trial_index":19,"time_elapsed":624490,"internal_node_id":"0.0-15.0","task_version":"0.2"},{"response_times":[1116.5750000000698,578.1800000041258,1114.5099999995437,1201.495000001276,1417.6900000020396,1448.8550000023097,1727.5300000037532,649.8749999954598,508.6749999972526,361.7000000013504],"keys_pressed":["rightarrow","rightarrow","rightarrow","leftarrow","leftarrow","leftarrow","leftarrow","leftarrow","leftarrow","leftarrow"],"horizon":10,"forced_choices":["rightarrow","rightarrow","rightarrow","leftarrow"],"right_color":"lightblue","left_color":"orange","left_mu":60,"right_mu":30,"left_numbers":[58,59,66,54,53,67,79,59,67,50],"right_numbers":[13,38,28,34,29,31,18,41,29,23],"points_earned":508,"phase":"task","trial_type":"horizons-task","trial_index":20,"time_elapsed":636128,"internal_node_id":"0.0-16.0","task_version":"0.2"},{"response_times":[960.220000000787,609.5550000027288,1066.4049999976996,1192.1300000030315,1675.6549999990966,1076.2049999975134,573.2900000002701,568.1600000024773,463.26499999850057,359.0399999958463],"keys_pressed":["leftarrow","leftarrow","rightarrow","rightarrow","rightarrow","rightarrow","rightarrow","rightarrow","rightarrow","rightarrow"],"horizon":10,"forced_choices":["leftarrow","leftarrow","rightarrow","rightarrow"],"right_color":"orange","left_color":"lightblue","left_mu":40,"right_mu":60,"left_numbers":[34,26,38,60,46,38,46,47,48,46],"right_numbers":[66,66,60,53,62,71,60,51,62,55],"points_earned":534,"phase":"task","trial_type":"horizons-task","trial_index":21,"time_elapsed":646184,"internal_node_id":"0.0-17.0","task_version":"0.2"},{"response_times":[875.5199999940814,850.4850000026636,1375.740000003134,2525.0450000021374,2074.160000003758,1878.7549999977928,615.4400000014575,451.39000000199303,367.33499999530613,369.4099999992177],"keys_pressed":["rightarrow","leftarrow","leftarrow","rightarrow","rightarrow","rightarrow","rightarrow","rightarrow","rightarrow","rightarrow"],"horizon":10,"forced_choices":["rightarrow","leftarrow","leftarrow","rightarrow"],"right_color":"lightblue","left_color":"orange","left_mu":60,"right_mu":80,"left_numbers":[66,64,48,65,73,55,55,61,51,62],"right_numbers":[81,78,90,87,75,86,83,83,87,83],"points_earned":777,"phase":"task","trial_type":"horizons-task","trial_index":22,"time_elapsed":659082,"internal_node_id":"0.0-18.0","task_version":"0.2"},{"response_times":[880.6699999987613,775.4949999945238,744.3649999987101,838.0050000050105,5608.995000002324],"keys_pressed":["rightarrow","leftarrow","leftarrow","rightarrow","leftarrow"],"horizon":5,"forced_choices":["rightarrow","leftarrow","leftarrow","rightarrow"],"right_color":"orange","left_color":"lightblue","left_mu":60,"right_mu":64,"left_numbers":[63,63,65,58,56],"right_numbers":[69,63,52,57,49],"points_earned":310,"phase":"task","trial_type":"horizons-task","trial_index":23,"time_elapsed":669442,"internal_node_id":"0.0-19.0","task_version":"0.2"},{"response_times":[1054.4149999987567,821.2700000002515,1157.8900000022259,965.9199999951525,1956.6849999973783,1032.8499999960186,1044.8049999978393,947.710000000312,3187.610000000801,772.4849999940488],"keys_pressed":["leftarrow","leftarrow","leftarrow","rightarrow","leftarrow","leftarrow","leftarrow","rightarrow","leftarrow","leftarrow"],"horizon":10,"forced_choices":["leftarrow","leftarrow","leftarrow","rightarrow"],"right_color":"orange","left_color":"lightblue","left_mu":60,"right_mu":56,"left_numbers":[74,69,57,55,73,46,47,48,70,55],"right_numbers":[48,54,66,58,50,57,56,58,57,51],"points_earned":607,"phase":"task","trial_type":"horizons-task","trial_index":24,"time_elapsed":683894,"internal_node_id":"0.0-20.0","task_version":"0.2"},{"response_times":[896.1399999971036,606.0950000028824,852.1699999982957,644.7049999989104,1184.1849999981932,1379.8000000023749,537.7900000021327,480.6399999943096,348.4000000025844,332.0250000032829],"keys_pressed":["leftarrow","leftarrow","rightarrow","rightarrow","leftarrow","leftarrow","leftarrow","leftarrow","leftarrow","leftarrow"],"horizon":10,"forced_choices":["leftarrow","leftarrow","rightarrow","rightarrow"],"right_color":"lightblue","left_color":"orange","left_mu":60,"right_mu":30,"left_numbers":[59,61,55,63,63,55,59,63,55,58],"right_numbers":[28,44,30,18,14,25,32,21,32,45],"points_earned":521,"phase":"task","trial_type":"horizons-task","trial_index":25,"time_elapsed":692668,"internal_node_id":"0.0-21.0","task_version":"0.2"},{"response_times":[1027.4300000017975,574.8699999968521,1236.2550000033807,679.9250000040047,1569.2649999982677,1078.2599999946542,710.4049999979325,1018.9849999950966,936.119999998482,1783.5949999935692],"keys_pressed":["rightarrow","rightarrow","leftarrow","leftarrow","rightarrow","rightarrow","rightarrow","rightarrow","rightarrow","rightarrow"],"horizon":10,"forced_choices":["rightarrow","rightarrow","leftarrow","leftarrow"],"right_color":"orange","left_color":"lightblue","left_mu":40,"right_mu":44,"left_numbers":[31,39,26,41,35,30,44,29,38,40],"right_numbers":[39,45,34,44,44,45,38,42,35,55],"points_earned":410,"phase":"task","trial_type":"horizons-task","trial_index":26,"time_elapsed":704793,"internal_node_id":"0.0-22.0","task_version":"0.2"},{"response_times":[1052.0949999991572,704.1900000039022,693.4099999999162,1048.845000004745,1354.3799999969779,1254.949999995064,587.6449999996694,523.5300000058487,448.9099999992177,396.24000000185333],"keys_pressed":["leftarrow","leftarrow","rightarrow","leftarrow","rightarrow","rightarrow","rightarrow","rightarrow","rightarrow","rightarrow"],"horizon":10,"forced_choices":["leftarrow","leftarrow","rightarrow","leftarrow"],"right_color":"lightblue","left_color":"orange","left_mu":60,"right_mu":72,"left_numbers":[51,54,54,56,62,60,61,64,50,53],"right_numbers":[86,72,74,67,67,65,66,73,66,65],"points_earned":637,"phase":"task","trial_type":"horizons-task","trial_index":27,"time_elapsed":714368,"internal_node_id":"0.0-23.0","task_version":"0.2"},{"response_times":[1124.0850000029895,646.5850000021746,868.8750000002328,592.1349999989616,8570.380000004661,6052.44999999553,1325.6499999987427,1087.5549999981886,1662.064999996801,540.779999995837],"keys_pressed":["leftarrow","leftarrow","rightarrow","rightarrow","leftarrow","leftarrow","leftarrow","leftarrow","leftarrow","leftarrow"],"horizon":10,"forced_choices":["leftarrow","leftarrow","rightarrow","rightarrow"],"right_color":"lightblue","left_color":"orange","left_mu":60,"right_mu":52,"left_numbers":[57,59,39,58,58,68,40,50,63,47],"right_numbers":[45,57,64,47,59,50,43,40,43,50],"points_earned":553,"phase":"task","trial_type":"horizons-task","trial_index":28,"time_elapsed":738349,"internal_node_id":"0.0-24.0","task_version":"0.2"},{"response_times":[925.2750000014203,526.2849999999162,816.3500000010245,1316.8999999979278,1775.9299999962095],"keys_pressed":["leftarrow","leftarrow","rightarrow","leftarrow","rightarrow"],"horizon":5,"forced_choices":["leftarrow","leftarrow","rightarrow","leftarrow"],"right_color":"lightblue","left_color":"orange","left_mu":60,"right_mu":52,"left_numbers":[54,55,70,55,68],"right_numbers":[64,54,65,67,42],"points_earned":271,"phase":"task","trial_type":"horizons-task","trial_index":29,"time_elapsed":745222,"internal_node_id":"0.0-25.0","task_version":"0.2"},{"response_times":[728.2750000013039,991.0749999980908,715.7749999968801,772.4249999956228,1091.1600000036415,808.3900000056019,614.2550000004703,401.25999999884516,397.9149999942165,380.9049999981653],"keys_pressed":["rightarrow","leftarrow","leftarrow","leftarrow","rightarrow","rightarrow","rightarrow","rightarrow","rightarrow","rightarrow"],"horizon":10,"forced_choices":["rightarrow","leftarrow","leftarrow","leftarrow"],"right_color":"lightblue","left_color":"orange","left_mu":60,"right_mu":90,"left_numbers":[51,50,55,54,53,68,58,61,69,52],"right_numbers":[99,85,84,90,96,91,94,74,80,81],"points_earned":774,"phase":"task","trial_type":"horizons-task","trial_index":30,"time_elapsed":753632,"internal_node_id":"0.0-26.0","task_version":"0.2"},{"response_times":[911.2300000051036,471.6850000041304,742.1849999955157,827.3300000000745,6596.519999999204],"keys_pressed":["leftarrow","leftarrow","rightarrow","rightarrow","leftarrow"],"horizon":5,"forced_choices":["leftarrow","leftarrow","rightarrow","rightarrow"],"right_color":"lightblue","left_color":"orange","left_mu":60,"right_mu":52,"left_numbers":[54,52,72,49,52],"right_numbers":[49,52,53,50,60],"points_earned":261,"phase":"task","trial_type":"horizons-task","trial_index":31,"time_elapsed":764690,"internal_node_id":"0.0-27.0","task_version":"0.2"},{"response_times":[1003.8850000054808,862.7249999990454,835.5799999990268,803.5600000002887,1152.7300000016112,1004.1899999997113,618.0450000028359,337.66499999910593,357.55499999504536,376.52499999967404],"keys_pressed":["leftarrow","rightarrow","leftarrow","rightarrow","leftarrow","leftarrow","leftarrow","leftarrow","leftarrow","leftarrow"],"horizon":10,"forced_choices":["leftarrow","rightarrow","leftarrow","rightarrow"],"right_color":"lightblue","left_color":"orange","left_mu":40,"right_mu":10,"left_numbers":[44,27,40,42,32,31,35,44,47,54],"right_numbers":[2,14,18,13,11,0,9,20,0,11],"points_earned":354,"phase":"task","trial_type":"horizons-task","trial_index":32,"time_elapsed":773552,"internal_node_id":"0.0-28.0","task_version":"0.2"},{"response_times":[859.5200000053737,735.5199999946635,846.8950000023469,878.1299999973271,4243.649999996764],"keys_pressed":["leftarrow","rightarrow","rightarrow","rightarrow","leftarrow"],"horizon":5,"forced_choices":["leftarrow","rightarrow","rightarrow","rightarrow"],"right_color":"lightblue","left_color":"orange","left_mu":60,"right_mu":48,"left_numbers":[53,56,62,61,68],"right_numbers":[56,57,44,47,37],"points_earned":269,"phase":"task","trial_type":"horizons-task","trial_index":33,"time_elapsed":782626,"internal_node_id":"0.0-29.0","task_version":"0.2"},{"response_times":[933.1349999993108,935.5950000025332,708.5799999985611,1110.5250000037486,2211.0200000025798],"keys_pressed":["rightarrow","leftarrow","leftarrow","rightarrow","leftarrow"],"horizon":5,"forced_choices":["rightarrow","leftarrow","leftarrow","rightarrow"],"right_color":"orange","left_color":"lightblue","left_mu":40,"right_mu":32,"left_numbers":[49,39,45,47,41],"right_numbers":[37,25,23,31,28],"points_earned":193,"phase":"task","trial_type":"horizons-task","trial_index":34,"time_elapsed":790037,"internal_node_id":"0.0-30.0","task_version":"0.2"},{"response_times":[937.8450000004377,803.1100000006845,897.8849999984959,908.0350000003818,1073.1599999999162],"keys_pressed":["rightarrow","leftarrow","rightarrow","rightarrow","leftarrow"],"horizon":5,"forced_choices":["rightarrow","leftarrow","rightarrow","rightarrow"],"right_color":"lightblue","left_color":"orange","left_mu":40,"right_mu":10,"left_numbers":[33,43,40,42,24],"right_numbers":[20,6,10,22,12],"points_earned":119,"phase":"task","trial_type":"horizons-task","trial_index":35,"time_elapsed":796168,"internal_node_id":"0.0-31.0","task_version":"0.2"},{"response_times":[1061.8050000048243,750.9900000004563,717.4699999960139,1128.8199999982025,2625.820000001113],"keys_pressed":["rightarrow","leftarrow","leftarrow","leftarrow","rightarrow"],"horizon":5,"forced_choices":["rightarrow","leftarrow","leftarrow","leftarrow"],"right_color":"lightblue","left_color":"orange","left_mu":40,"right_mu":48,"left_numbers":[37,58,41,33,27],"right_numbers":[55,49,46,51,61],"points_earned":248,"phase":"task","trial_type":"horizons-task","trial_index":36,"time_elapsed":803972,"internal_node_id":"0.0-32.0","task_version":"0.2"},{"response_times":[991.6400000001304,468.5500000050524,788.6799999978393,680.7299999999814,2124.5999999954365],"keys_pressed":["rightarrow","rightarrow","leftarrow","leftarrow","leftarrow"],"horizon":5,"forced_choices":["rightarrow","rightarrow","leftarrow","leftarrow"],"right_color":"orange","left_color":"lightblue","left_mu":40,"right_mu":36,"left_numbers":[41,43,49,39,35],"right_numbers":[38,31,30,45,39],"points_earned":192,"phase":"task","trial_type":"horizons-task","trial_index":37,"time_elapsed":810538,"internal_node_id":"0.0-33.0","task_version":"0.2"},{"response_times":[1185.7250000030035,755.7349999988219,829.9150000021327,735.9050000013085,5603.175000003888,1321.159999999567,536.7450000048848,467.70500000263564,409.285000001546,399.6599999954924],"keys_pressed":["leftarrow","rightarrow","rightarrow","leftarrow","rightarrow","rightarrow","rightarrow","rightarrow","rightarrow","rightarrow"],"horizon":10,"forced_choices":["leftarrow","rightarrow","rightarrow","leftarrow"],"right_color":"lightblue","left_color":"orange","left_mu":40,"right_mu":52,"left_numbers":[35,34,60,39,38,37,39,40,46,45],"right_numbers":[51,53,56,46,40,43,47,50,41,54],"points_earned":458,"phase":"task","trial_type":"horizons-task","trial_index":38,"time_elapsed":824292,"internal_node_id":"0.0-34.0","task_version":"0.2"},{"response_times":[1269.9250000005122,665.600000000326,644.3900000012945,638.8149999983143,1485.7999999949243,1023.0000000010477,584.8200000036741,672.664999998291,478.9749999982305,383.1300000019837],"keys_pressed":["leftarrow","rightarrow","leftarrow","rightarrow","leftarrow","leftarrow","leftarrow","leftarrow","leftarrow","leftarrow"],"horizon":10,"forced_choices":["leftarrow","rightarrow","leftarrow","rightarrow"],"right_color":"lightblue","left_color":"orange","left_mu":60,"right_mu":40,"left_numbers":[68,66,53,57,59,58,54,58,47,64],"right_numbers":[24,34,48,33,44,48,32,45,55,41],"points_earned":528,"phase":"task","trial_type":"horizons-task","trial_index":39,"time_elapsed":833656,"internal_node_id":"0.0-35.0","task_version":"0.2"},{"response_times":[995.195000003092,593.7199999970617,713.8800000030315,752.3300000029849,1232.4250000020256,740.2849999999162,786.4499999997206,478.835000001709,333.9150000028312,356.9500000011176],"keys_pressed":["leftarrow","leftarrow","leftarrow","rightarrow","rightarrow","rightarrow","rightarrow","rightarrow","rightarrow","rightarrow"],"horizon":10,"forced_choices":["leftarrow","leftarrow","leftarrow","rightarrow"],"right_color":"orange","left_color":"lightblue","left_mu":40,"right_mu":70,"left_numbers":[45,36,44,55,30,25,36,34,38,36],"right_numbers":[67,81,58,60,85,73,49,74,66,73],"points_earned":605,"phase":"task","trial_type":"horizons-task","trial_index":40,"time_elapsed":842150,"internal_node_id":"0.0-36.0","task_version":"0.2"},{"response_times":[1542.6100000040606,637.470000001369,668.8450000002049,604.715000001248,8116.579999994487,1526.2149999981048,1768.7700000024633,1389.1299999959301,1965.3399999951944,897.5999999966007],"keys_pressed":["rightarrow","leftarrow","leftarrow","rightarrow","leftarrow","rightarrow","rightarrow","leftarrow","leftarrow","leftarrow"],"horizon":10,"forced_choices":["rightarrow","leftarrow","leftarrow","rightarrow"],"right_color":"orange","left_color":"lightblue","left_mu":40,"right_mu":32,"left_numbers":[53,26,32,29,22,41,42,40,32,41],"right_numbers":[33,38,19,24,17,35,20,36,27,25],"points_earned":305,"phase":"task","trial_type":"horizons-task","trial_index":41,"time_elapsed":862775,"internal_node_id":"0.0-37.0","task_version":"0.2"},{"response_times":[1178.5549999985378,650.724999999511,801.0050000011688,635.6200000009267,685.5349999968894],"keys_pressed":["leftarrow","leftarrow","leftarrow","rightarrow","rightarrow"],"horizon":5,"forced_choices":["leftarrow","leftarrow","leftarrow","rightarrow"],"right_color":"orange","left_color":"lightblue","left_mu":40,"right_mu":70,"left_numbers":[34,31,36,37,34],"right_numbers":[79,68,70,77,70],"points_earned":248,"phase":"task","trial_type":"horizons-task","trial_index":42,"time_elapsed":868235,"internal_node_id":"0.0-38.0","task_version":"0.2"},{"response_times":[1046.150000001886,713.2950000013225,884.4700000045123,810.2599999983795,921.4200000059791,639.6499999973457,708.1949999991339,485.9349999970291,445.1199999967357,390.6550000028219],"keys_pressed":["rightarrow","rightarrow","leftarrow","rightarrow","rightarrow","rightarrow","rightarrow","rightarrow","rightarrow","rightarrow"],"horizon":10,"forced_choices":["rightarrow","rightarrow","leftarrow","rightarrow"],"right_color":"orange","left_color":"lightblue","left_mu":40,"right_mu":60,"left_numbers":[33,38,28,44,33,42,27,29,48,38],"right_numbers":[82,60,51,59,54,58,52,60,67,60],"points_earned":580,"phase":"task","trial_type":"horizons-task","trial_index":43,"time_elapsed":876800,"internal_node_id":"0.0-39.0","task_version":"0.2"},{"response_times":[1056.3349999939092,737.2199999953154,676.6700000008568,692.1350000047823,1495.8150000020396,605.2100000014761,449.1100000012666,419.66999999573454,265.3599999976577,343.8300000051968],"keys_pressed":["leftarrow","rightarrow","leftarrow","rightarrow","rightarrow","rightarrow","rightarrow","rightarrow","rightarrow","rightarrow"],"horizon":10,"forced_choices":["leftarrow","rightarrow","leftarrow","rightarrow"],"right_color":"orange","left_color":"lightblue","left_mu":40,"right_mu":70,"left_numbers":[41,16,46,47,45,28,41,45,31,38],"right_numbers":[76,71,67,78,75,79,77,71,77,62],"points_earned":677,"phase":"task","trial_type":"horizons-task","trial_index":44,"time_elapsed":885051,"internal_node_id":"0.0-40.0","task_version":"0.2"},{"response_times":[1300.6099999983562,553.9549999956507,568.5799999992596,624.0099999995437,1366.830000006361],"keys_pressed":["leftarrow","leftarrow","rightarrow","leftarrow","rightarrow"],"horizon":5,"forced_choices":["leftarrow","leftarrow","rightarrow","leftarrow"],"right_color":"lightblue","left_color":"orange","left_mu":60,"right_mu":72,"left_numbers":[57,58,67,67,52],"right_numbers":[55,67,85,67,58],"points_earned":325,"phase":"task","trial_type":"horizons-task","trial_index":45,"time_elapsed":890972,"internal_node_id":"0.0-41.0","task_version":"0.2"},{"response_times":[1003.0649999971502,697.4699999990407,750.979999997071,998.6050000006799,2362.280000001192],"keys_pressed":["rightarrow","leftarrow","rightarrow","leftarrow","rightarrow"],"horizon":5,"forced_choices":["rightarrow","leftarrow","rightarrow","leftarrow"],"right_color":"orange","left_color":"lightblue","left_mu":60,"right_mu":68,"left_numbers":[66,60,52,53,45],"right_numbers":[56,75,82,50,91],"points_earned":342,"phase":"task","trial_type":"horizons-task","trial_index":46,"time_elapsed":898293,"internal_node_id":"0.0-42.0","task_version":"0.2"},{"response_times":[761.6599999964237,531.0500000051688,1023.6650000006193,992.6349999950035,778.805000001681],"keys_pressed":["rightarrow","leftarrow","leftarrow","leftarrow","rightarrow"],"horizon":5,"forced_choices":["rightarrow","leftarrow","leftarrow","leftarrow"],"right_color":"lightblue","left_color":"orange","left_mu":60,"right_mu":90,"left_numbers":[57,59,61,67,64],"right_numbers":[104,78,100,82,87],"points_earned":378,"phase":"task","trial_type":"horizons-task","trial_index":47,"time_elapsed":903889,"internal_node_id":"0.0-43.0","task_version":"0.2"},{"response_times":[899.2849999994505,762.0349999996834,647.0300000001444,707.2949999928242,1537.3250000048429],"keys_pressed":["rightarrow","leftarrow","rightarrow","leftarrow","leftarrow"],"horizon":5,"forced_choices":["rightarrow","leftarrow","rightarrow","leftarrow"],"right_color":"orange","left_color":"lightblue","left_mu":40,"right_mu":28,"left_numbers":[38,35,36,45,40],"right_numbers":[23,30,30,31,26],"points_earned":173,"phase":"task","trial_type":"horizons-task","trial_index":48,"time_elapsed":909954,"internal_node_id":"0.0-44.0","task_version":"0.2"},{"response_times":[933.2299999950919,577.8449999998556,757.3350000020582,1309.444999998901,2738.3100000005215],"keys_pressed":["rightarrow","rightarrow","leftarrow","leftarrow","leftarrow"],"horizon":5,"forced_choices":["rightarrow","rightarrow","leftarrow","leftarrow"],"right_color":"orange","left_color":"lightblue","left_mu":60,"right_mu":56,"left_numbers":[56,51,58,63,57],"right_numbers":[61,58,57,53,62],"points_earned":297,"phase":"task","trial_type":"horizons-task","trial_index":49,"time_elapsed":917782,"internal_node_id":"0.0-45.0","task_version":"0.2"},{"response_times":[1049.7250000044005,641.8100000009872,550.82499999844,745.8449999976438,3809.1199999980163],"keys_pressed":["leftarrow","rightarrow","leftarrow","leftarrow","leftarrow"],"horizon":5,"forced_choices":["leftarrow","rightarrow","leftarrow","leftarrow"],"right_color":"orange","left_color":"lightblue","left_mu":40,"right_mu":28,"left_numbers":[44,50,34,36,42],"right_numbers":[35,35,29,32,21],"points_earned":191,"phase":"task","trial_type":"horizons-task","trial_index":50,"time_elapsed":926091,"internal_node_id":"0.0-46.0","task_version":"0.2"},{"view_history":"[{\"page_index\":0,\"viewing_time\":16118.11999999918},{\"page_index\":1,\"viewing_time\":3784.5400000006193}]","rt":19904.29500000039,"trial_type":"instructions","trial_index":51,"time_elapsed":946002,"internal_node_id":"0.0-47.0","task_version":"0.2"},{"response_times":[2357.0899999977555,981.7350000012666,858.8299999972805,635.6749999977183,1794.7149999963585],"keys_pressed":["leftarrow","rightarrow","rightarrow","leftarrow","rightarrow"],"horizon":5,"forced_choices":["leftarrow","rightarrow","rightarrow","leftarrow"],"right_color":"lightblue","left_color":"orange","left_mu":40,"right_mu":48,"left_numbers":[41,56,25,42,43],"right_numbers":[49,57,40,40,61],"points_earned":241,"phase":"task","trial_type":"horizons-task","trial_index":52,"time_elapsed":954147,"internal_node_id":"0.0-48.0","task_version":"0.2"},{"response_times":[1090.829999993788,437.2000000003027,816.4050000050338,458.65000000048894,2439.2450000013923,861.010000000475,439.7349999998696,279.82999999949243,310.53999999864027,373.1550000010757],"keys_pressed":["rightarrow","rightarrow","leftarrow","leftarrow","leftarrow","leftarrow","leftarrow","leftarrow","leftarrow","leftarrow"],"horizon":10,"forced_choices":["rightarrow","rightarrow","leftarrow","leftarrow"],"right_color":"orange","left_color":"lightblue","left_mu":40,"right_mu":36,"left_numbers":[34,36,43,51,49,44,48,50,36,47],"right_numbers":[25,26,21,26,49,37,33,33,36,31],"points_earned":419,"phase":"task","trial_type":"horizons-task","trial_index":53,"time_elapsed":963164,"internal_node_id":"0.0-49.0","task_version":"0.2"},{"response_times":[794.78499999817,601.2249999984633,533.4199999996927,1091.330000002985,2154.3749999981374,709.2699999994365,544.4399999978486,542.8449999963632,512.5950000002049,595.8099999988917],"keys_pressed":["leftarrow","rightarrow","leftarrow","leftarrow","leftarrow","leftarrow","leftarrow","leftarrow","leftarrow","leftarrow"],"horizon":10,"forced_choices":["leftarrow","rightarrow","leftarrow","leftarrow"],"right_color":"orange","left_color":"lightblue","left_mu":40,"right_mu":28,"left_numbers":[41,39,40,53,44,34,41,36,43,51],"right_numbers":[45,37,23,34,20,40,21,25,11,44],"points_earned":420,"phase":"task","trial_type":"horizons-task","trial_index":54,"time_elapsed":972753,"internal_node_id":"0.0-50.0","task_version":"0.2"},{"response_times":[872.029999998631,670.9350000019185,471.08500000461936,586.475000003702,7247.934999999357,2185.325000005774,2249.4900000019697,711.9149999998044,944.1099999967264,634.7349999996368],"keys_pressed":["leftarrow","rightarrow","leftarrow","rightarrow","leftarrow","leftarrow","leftarrow","leftarrow","leftarrow","leftarrow"],"horizon":10,"forced_choices":["leftarrow","rightarrow","leftarrow","rightarrow"],"right_color":"lightblue","left_color":"orange","left_mu":60,"right_mu":48,"left_numbers":[44,57,61,53,58,49,69,60,60,75],"right_numbers":[46,45,49,55,32,46,48,47,41,41],"points_earned":576,"phase":"task","trial_type":"horizons-task","trial_index":55,"time_elapsed":990837,"internal_node_id":"0.0-51.0","task_version":"0.2"},{"response_times":[804.1049999955576,630.0799999953015,718.0349999980535,928.9849999987055,1079.3950000007171,750.0249999939697,452.8050000007497,415.2800000011921,381.6999999980908,372.10999999661],"keys_pressed":["leftarrow","rightarrow","rightarrow","rightarrow","rightarrow","rightarrow","rightarrow","rightarrow","rightarrow","rightarrow"],"horizon":10,"forced_choices":["leftarrow","rightarrow","rightarrow","rightarrow"],"right_color":"orange","left_color":"lightblue","left_mu":60,"right_mu":68,"left_numbers":[55,66,51,49,60,58,53,64,64,72],"right_numbers":[61,66,72,67,75,71,67,74,77,74],"points_earned":698,"phase":"task","trial_type":"horizons-task","trial_index":56,"time_elapsed":998876,"internal_node_id":"0.0-52.0","task_version":"0.2"},{"response_times":[1184.3550000048708,564.0599999970291,913.5749999985565,719.9800000016112,1557.715000002645],"keys_pressed":["leftarrow","rightarrow","leftarrow","rightarrow","rightarrow"],"horizon":5,"forced_choices":["leftarrow","rightarrow","leftarrow","rightarrow"],"right_color":"orange","left_color":"lightblue","left_mu":40,"right_mu":70,"left_numbers":[33,38,40,56,39],"right_numbers":[76,65,67,64,59],"points_earned":261,"phase":"task","trial_type":"horizons-task","trial_index":57,"time_elapsed":1005322,"internal_node_id":"0.0-53.0","task_version":"0.2"},{"response_times":[1430.8400000010151,683.1149999997579,550.4749999963678,728.0300000057323,1274.750000004191],"keys_pressed":["leftarrow","rightarrow","leftarrow","leftarrow","rightarrow"],"horizon":5,"forced_choices":["leftarrow","rightarrow","leftarrow","leftarrow"],"right_color":"lightblue","left_color":"orange","left_mu":60,"right_mu":80,"left_numbers":[66,65,71,49,53],"right_numbers":[85,83,75,85,78],"points_earned":347,"phase":"task","trial_type":"horizons-task","trial_index":58,"time_elapsed":1011499,"internal_node_id":"0.0-54.0","task_version":"0.2"},{"response_times":[776.3400000039255,635.999999998603,555.9099999954924,569.6949999982025,2068.5149999989662,957.3850000014063,735.9100000031758,453.75000000046566,373.9399999976158,335.0900000005495],"keys_pressed":["rightarrow","leftarrow","rightarrow","leftarrow","rightarrow","rightarrow","rightarrow","rightarrow","rightarrow","rightarrow"],"horizon":10,"forced_choices":["rightarrow","leftarrow","rightarrow","leftarrow"],"right_color":"orange","left_color":"lightblue","left_mu":60,"right_mu":68,"left_numbers":[55,66,56,55,52,62,51,60,72,67],"right_numbers":[61,66,80,60,72,74,71,58,80,60],"points_earned":677,"phase":"task","trial_type":"horizons-task","trial_index":59,"time_elapsed":1020474,"internal_node_id":"0.0-55.0","task_version":"0.2"},{"response_times":[735.8000000022585,567.2150000028778,670.1649999958463,615.7099999981001,2096.975000000326,1159.7049999982119,653.6000000052154,419.819999995525,366.5899999978719,333.52000000013504],"keys_pressed":["rightarrow","leftarrow","leftarrow","rightarrow","leftarrow","leftarrow","leftarrow","leftarrow","leftarrow","leftarrow"],"horizon":10,"forced_choices":["rightarrow","leftarrow","leftarrow","rightarrow"],"right_color":"orange","left_color":"lightblue","left_mu":40,"right_mu":20,"left_numbers":[41,50,39,24,41,38,34,38,30,30],"right_numbers":[13,27,21,29,14,21,22,39,27,19],"points_earned":342,"phase":"task","trial_type":"horizons-task","trial_index":60,"time_elapsed":1029604,"internal_node_id":"0.0-56.0","task_version":"0.2"},{"response_times":[1198.7300000037067,798.6200000015087,712.4849999963772,668.6900000059977,1261.3799999963958],"keys_pressed":["leftarrow","leftarrow","rightarrow","rightarrow","leftarrow"],"horizon":5,"forced_choices":["leftarrow","leftarrow","rightarrow","rightarrow"],"right_color":"lightblue","left_color":"orange","left_mu":60,"right_mu":30,"left_numbers":[56,65,58,61,59],"right_numbers":[37,27,27,24,21],"points_earned":231,"phase":"task","trial_type":"horizons-task","trial_index":61,"time_elapsed":1035753,"internal_node_id":"0.0-57.0","task_version":"0.2"},{"response_times":[839.979999997071,444.0050000047777,512.4950000026729,631.6799999986542,1257.9100000002654,666.9350000011036,886.6550000021234,792.9899999945192,529.779999997234,365.4449999957578],"keys_pressed":["rightarrow","rightarrow","rightarrow","leftarrow","rightarrow","rightarrow","rightarrow","rightarrow","rightarrow","rightarrow"],"horizon":10,"forced_choices":["rightarrow","rightarrow","rightarrow","leftarrow"],"right_color":"orange","left_color":"lightblue","left_mu":40,"right_mu":44,"left_numbers":[48,34,47,31,43,36,40,47,41,52],"right_numbers":[55,43,50,32,47,22,52,50,44,31],"points_earned":425,"phase":"task","trial_type":"horizons-task","trial_index":62,"time_elapsed":1044193,"internal_node_id":"0.0-58.0","task_version":"0.2"},{"response_times":[794.4750000024214,529.1550000037532,613.9399999956368,525.2150000014808,1218.2949999989942],"keys_pressed":["rightarrow","leftarrow","rightarrow","leftarrow","rightarrow"],"horizon":5,"forced_choices":["rightarrow","leftarrow","rightarrow","leftarrow"],"right_color":"lightblue","left_color":"orange","left_mu":60,"right_mu":90,"left_numbers":[57,63,59,70,59],"right_numbers":[88,83,86,78,99],"points_earned":406,"phase":"task","trial_type":"horizons-task","trial_index":63,"time_elapsed":1049382,"internal_node_id":"0.0-59.0","task_version":"0.2"},{"response_times":[755.6350000014063,469.04999999981374,553.5400000009686,605.6699999971315,980.0050000047777],"keys_pressed":["rightarrow","rightarrow","rightarrow","leftarrow","rightarrow"],"horizon":5,"forced_choices":["rightarrow","rightarrow","rightarrow","leftarrow"],"right_color":"orange","left_color":"lightblue","left_mu":40,"right_mu":44,"left_numbers":[52,51,50,36,46],"right_numbers":[47,51,41,33,42],"points_earned":217,"phase":"task","trial_type":"horizons-task","trial_index":64,"time_elapsed":1054257,"internal_node_id":"0.0-60.0","task_version":"0.2"},{"response_times":[994.8349999978673,452.9899999978952,647.9000000036322,626.9899999969639,1476.399999999674,876.0100000000093,904.2750000008382,1236.7149999989197,542.5600000016857,326.95000000251457],"keys_pressed":["leftarrow","leftarrow","rightarrow","leftarrow","leftarrow","leftarrow","leftarrow","leftarrow","leftarrow","leftarrow"],"horizon":10,"forced_choices":["leftarrow","leftarrow","rightarrow","leftarrow"],"right_color":"lightblue","left_color":"orange","left_mu":60,"right_mu":52,"left_numbers":[60,63,61,67,46,50,49,65,70,67],"right_numbers":[44,49,40,47,63,44,54,46,55,46],"points_earned":577,"phase":"task","trial_type":"horizons-task","trial_index":65,"time_elapsed":1063852,"internal_node_id":"0.0-61.0","task_version":"0.2"},{"response_times":[959.9000000015367,736.259999997681,655.1950000068173,530.1050000051036,1789.049999999348,929.2800000039861,876.5500000007451,611.6899999980815,566.6600000038743,369.61999999778345],"keys_pressed":["leftarrow","rightarrow","rightarrow","leftarrow","rightarrow","rightarrow","rightarrow","rightarrow","rightarrow","rightarrow"],"horizon":10,"forced_choices":["leftarrow","rightarrow","rightarrow","leftarrow"],"right_color":"lightblue","left_color":"orange","left_mu":60,"right_mu":72,"left_numbers":[49,63,74,62,62,63,60,58,72,62],"right_numbers":[53,72,72,67,71,68,64,93,75,83],"points_earned":709,"phase":"task","trial_type":"horizons-task","trial_index":66,"time_elapsed":1073385,"internal_node_id":"0.0-62.0","task_version":"0.2"},{"response_times":[1057.710000000894,517.234999999404,565.5049999987241,525.6900000022724,1416.2100000032224],"keys_pressed":["leftarrow","rightarrow","rightarrow","leftarrow","rightarrow"],"horizon":5,"forced_choices":["leftarrow","rightarrow","rightarrow","leftarrow"],"right_color":"lightblue","left_color":"orange","left_mu":40,"right_mu":52,"left_numbers":[44,40,48,33,33],"right_numbers":[56,59,42,61,49],"points_earned":227,"phase":"task","trial_type":"horizons-task","trial_index":67,"time_elapsed":1078977,"internal_node_id":"0.0-63.0","task_version":"0.2"},{"response_times":[744.0800000040326,452.3150000022724,632.7400000011548,523.3850000002421,3119.5349999980535,1243.9050000030547,673.9500000041444,1856.344999999972,423.4100000031758,284.69500000216067],"keys_pressed":["rightarrow","rightarrow","leftarrow","rightarrow","leftarrow","leftarrow","leftarrow","leftarrow","leftarrow","leftarrow"],"horizon":10,"forced_choices":["rightarrow","rightarrow","leftarrow","rightarrow"],"right_color":"orange","left_color":"lightblue","left_mu":40,"right_mu":36,"left_numbers":[47,30,37,40,36,48,37,28,47,42],"right_numbers":[35,29,43,33,24,44,56,28,33,24],"points_earned":372,"phase":"task","trial_type":"horizons-task","trial_index":68,"time_elapsed":1090444,"internal_node_id":"0.0-64.0","task_version":"0.2"},{"response_times":[974.9350000056438,521.0599999991246,596.7749999980442,622.4950000031386,1847.9100000041071,954.7800000000279,984.5500000012107,1279.0249999961816,351.1099999959115,313.2049999986775],"keys_pressed":["leftarrow","leftarrow","rightarrow","leftarrow","rightarrow","rightarrow","rightarrow","rightarrow","rightarrow","rightarrow"],"horizon":10,"forced_choices":["leftarrow","leftarrow","rightarrow","leftarrow"],"right_color":"orange","left_color":"lightblue","left_mu":60,"right_mu":64,"left_numbers":[60,50,54,50,54,54,56,77,64,69],"right_numbers":[59,57,63,51,59,46,71,58,74,56],"points_earned":587,"phase":"task","trial_type":"horizons-task","trial_index":69,"time_elapsed":1100401,"internal_node_id":"0.0-65.0","task_version":"0.2"},{"response_times":[1202.3150000022724,565.2750000008382,589.070000001695,665.2249999970663,1326.580000000773],"keys_pressed":["leftarrow","rightarrow","leftarrow","rightarrow","leftarrow"],"horizon":5,"forced_choices":["leftarrow","rightarrow","leftarrow","rightarrow"],"right_color":"lightblue","left_color":"orange","left_mu":40,"right_mu":10,"left_numbers":[43,28,43,33,42],"right_numbers":[0,13,21,21,16],"points_earned":162,"phase":"task","trial_type":"horizons-task","trial_index":70,"time_elapsed":1106258,"internal_node_id":"0.0-66.0","task_version":"0.2"},{"response_times":[1002.4150000028312,664.8400000049733,844.3699999989476,1248.6800000043586,2806.2200000060257,810.5999999970663,1216.1049999995157,472.38500000094064,325.98500000312924,298.59499999298714],"keys_pressed":["leftarrow","rightarrow","rightarrow","rightarrow","leftarrow","leftarrow","leftarrow","leftarrow","leftarrow","leftarrow"],"horizon":10,"forced_choices":["leftarrow","rightarrow","rightarrow","rightarrow"],"right_color":"lightblue","left_color":"orange","left_mu":60,"right_mu":40,"left_numbers":[64,60,67,50,58,72,52,67,61,57],"right_numbers":[48,25,42,31,45,49,43,38,45,33],"points_earned":529,"phase":"task","trial_type":"horizons-task","trial_index":71,"time_elapsed":1117462,"internal_node_id":"0.0-67.0","task_version":"0.2"},{"response_times":[872.2600000037346,910.3049999978393,810.5450000001583,716.1699999996927,3211.6649999953806,1337.7400000027847,750.079999997979,355.7199999995064,271.1499999933876,325.5799999970477],"keys_pressed":["rightarrow","leftarrow","leftarrow","rightarrow","rightarrow","rightarrow","rightarrow","rightarrow","rightarrow","rightarrow"],"horizon":10,"forced_choices":["rightarrow","leftarrow","leftarrow","rightarrow"],"right_color":"orange","left_color":"lightblue","left_mu":60,"right_mu":64,"left_numbers":[78,53,62,57,44,56,57,51,50,56],"right_numbers":[67,60,57,77,60,71,71,65,74,60],"points_earned":660,"phase":"task","trial_type":"horizons-task","trial_index":72,"time_elapsed":1128534,"internal_node_id":"0.0-68.0","task_version":"0.2"},{"response_times":[717.7500000034925,575.4500000039116,694.9099999982864,587.8650000013877,1262.609999998007,1580.2849999964237,496.06499999947846,267.35000000172295,278.57500000391155,627.6550000037532],"keys_pressed":["rightarrow","leftarrow","rightarrow","rightarrow","leftarrow","leftarrow","leftarrow","leftarrow","leftarrow","leftarrow"],"horizon":10,"forced_choices":["rightarrow","leftarrow","rightarrow","rightarrow"],"right_color":"lightblue","left_color":"orange","left_mu":40,"right_mu":10,"left_numbers":[43,41,30,44,29,37,40,48,41,32],"right_numbers":[17,19,13,10,17,7,1,4,0,0],"points_earned":308,"phase":"task","trial_type":"horizons-task","trial_index":73,"time_elapsed":1137134,"internal_node_id":"0.0-69.0","task_version":"0.2"},{"response_times":[856.4100000003818,558.1600000003818,610.9300000027288,588.1199999931268,3062.085000005085],"keys_pressed":["rightarrow","leftarrow","rightarrow","rightarrow","leftarrow"],"horizon":5,"forced_choices":["rightarrow","leftarrow","rightarrow","rightarrow"],"right_color":"orange","left_color":"lightblue","left_mu":40,"right_mu":32,"left_numbers":[46,39,34,35,32],"right_numbers":[21,34,39,32,47],"points_earned":163,"phase":"task","trial_type":"horizons-task","trial_index":74,"time_elapsed":1144320,"internal_node_id":"0.0-70.0","task_version":"0.2"},{"response_times":[905.1449999969918,548.3500000045169,783.6600000008475,835.0050000008196,1704.8950000025798,1081.219999999972,652.4550000031013,477.74500000383705,368.4500000018161,304.570000000298],"keys_pressed":["rightarrow","leftarrow","leftarrow","leftarrow","leftarrow","leftarrow","leftarrow","leftarrow","leftarrow","leftarrow"],"horizon":10,"forced_choices":["rightarrow","leftarrow","leftarrow","leftarrow"],"right_color":"orange","left_color":"lightblue","left_mu":40,"right_mu":20,"left_numbers":[43,40,30,30,66,37,52,42,34,47],"right_numbers":[28,6,0,41,21,34,16,14,23,25],"points_earned":406,"phase":"task","trial_type":"horizons-task","trial_index":75,"time_elapsed":1153492,"internal_node_id":"0.0-71.0","task_version":"0.2"},{"response_times":[1066.3949999944307,716.8049999962095,707.6349999988452,786.4100000006147,1788.3699999947567,598.1649999958463,506.35999999940395,234.9499999980908,314.53999999933876,496.40499999793246],"keys_pressed":["rightarrow","leftarrow","rightarrow","leftarrow","rightarrow","rightarrow","rightarrow","rightarrow","rightarrow","rightarrow"],"horizon":10,"forced_choices":["rightarrow","leftarrow","rightarrow","leftarrow"],"right_color":"lightblue","left_color":"orange","left_mu":60,"right_mu":90,"left_numbers":[64,62,52,62,46,56,52,69,62,69],"right_numbers":[93,85,94,90,101,102,94,80,97,88],"points_earned":873,"phase":"task","trial_type":"horizons-task","trial_index":76,"time_elapsed":1162214,"internal_node_id":"0.0-72.0","task_version":"0.2"},{"response_times":[704.68999999878,593.2350000001024,500.6400000057183,775.6749999972526,7047.955000001704,1810.4999999997672,1043.2799999979325,576.8449999960139,280.7949999989942,348.0199999974575],"keys_pressed":["rightarrow","leftarrow","rightarrow","rightarrow","leftarrow","leftarrow","leftarrow","leftarrow","leftarrow","leftarrow"],"horizon":10,"forced_choices":["rightarrow","leftarrow","rightarrow","rightarrow"],"right_color":"orange","left_color":"lightblue","left_mu":40,"right_mu":32,"left_numbers":[35,27,53,34,39,41,33,39,51,53],"right_numbers":[36,25,28,21,37,36,26,39,22,30],"points_earned":368,"phase":"task","trial_type":"horizons-task","trial_index":77,"time_elapsed":1177406,"internal_node_id":"0.0-73.0","task_version":"0.2"},{"response_times":[984.1999999990221,487.33499999786727,594.0899999986868,610.0149999985006,711.6999999997206],"keys_pressed":["rightarrow","rightarrow","rightarrow","leftarrow","leftarrow"],"horizon":5,"forced_choices":["rightarrow","rightarrow","rightarrow","leftarrow"],"right_color":"lightblue","left_color":"orange","left_mu":60,"right_mu":30,"left_numbers":[63,53,60,54,49],"right_numbers":[23,30,16,27,18],"points_earned":172,"phase":"task","trial_type":"horizons-task","trial_index":78,"time_elapsed":1182320,"internal_node_id":"0.0-74.0","task_version":"0.2"},{"response_times":[1738.1300000052433,547.9500000001863,671.1950000026263,643.8899999994319,8635.524999998044],"keys_pressed":["leftarrow","leftarrow","rightarrow","leftarrow","rightarrow"],"horizon":5,"forced_choices":["leftarrow","leftarrow","rightarrow","leftarrow"],"right_color":"orange","left_color":"lightblue","left_mu":60,"right_mu":64,"left_numbers":[60,73,55,61,65],"right_numbers":[59,42,66,59,57],"points_earned":317,"phase":"task","trial_type":"horizons-task","trial_index":79,"time_elapsed":1196069,"internal_node_id":"0.0-75.0","task_version":"0.2"},{"response_times":[832.2499999995343,485.53499999968335,693.3750000025611,489.6200000003446,3044.7750000020023],"keys_pressed":["rightarrow","rightarrow","leftarrow","leftarrow","rightarrow"],"horizon":5,"forced_choices":["rightarrow","rightarrow","leftarrow","leftarrow"],"right_color":"orange","left_color":"lightblue","left_mu":40,"right_mu":44,"left_numbers":[45,44,39,34,53],"right_numbers":[45,37,48,35,44],"points_earned":199,"phase":"task","trial_type":"horizons-task","trial_index":80,"time_elapsed":1203125,"internal_node_id":"0.0-76.0","task_version":"0.2"},{"response_times":[841.0300000032876,814.5700000021607,735.730000000447,624.3000000030734,1565.645000002347,701.1349999958184,933.2599999981467,424.9049999997951,235.10999999428168,380.60499999835156],"keys_pressed":["leftarrow","rightarrow","leftarrow","leftarrow","rightarrow","rightarrow","rightarrow","rightarrow","rightarrow","rightarrow"],"horizon":10,"forced_choices":["leftarrow","rightarrow","leftarrow","leftarrow"],"right_color":"lightblue","left_color":"orange","left_mu":60,"right_mu":80,"left_numbers":[60,65,65,55,57,71,55,56,63,60],"right_numbers":[87,81,58,76,90,73,78,78,83,76],"points_earned":739,"phase":"task","trial_type":"horizons-task","trial_index":81,"time_elapsed":1211890,"internal_node_id":"0.0-77.0","task_version":"0.2"},{"response_times":[966.0700000021607,568.335000003688,559.9199999996927,519.2150000000838,1820.1049999988172,963.9499999976251,1972.5850000032224,1016.5350000024773,400.5650000036694,305.52000000164844],"keys_pressed":["leftarrow","rightarrow","rightarrow","leftarrow","rightarrow","rightarrow","rightarrow","rightarrow","rightarrow","rightarrow"],"horizon":10,"forced_choices":["leftarrow","rightarrow","rightarrow","leftarrow"],"right_color":"lightblue","left_color":"orange","left_mu":40,"right_mu":48,"left_numbers":[48,44,37,40,30,29,36,38,39,31],"right_numbers":[36,67,47,38,53,39,52,59,49,32],"points_earned":486,"phase":"task","trial_type":"horizons-task","trial_index":82,"time_elapsed":1222493,"internal_node_id":"0.0-78.0","task_version":"0.2"},{"response_times":[787.0249999978114,543.0300000007264,591.6749999960884,528.319999997504,1245.7599999979138],"keys_pressed":["rightarrow","leftarrow","leftarrow","rightarrow","rightarrow"],"horizon":5,"forced_choices":["rightarrow","leftarrow","leftarrow","rightarrow"],"right_color":"lightblue","left_color":"orange","left_mu":60,"right_mu":80,"left_numbers":[62,61,67,81,69],"right_numbers":[79,71,99,83,66],"points_earned":356,"phase":"task","trial_type":"horizons-task","trial_index":83,"time_elapsed":1227699,"internal_node_id":"0.0-79.0","task_version":"0.2"},{"response_times":[1037.2250000000931,499.4599999990314,700.8050000006333,1211.9450000026263,3910.970000004396],"keys_pressed":["rightarrow","rightarrow","leftarrow","rightarrow","rightarrow"],"horizon":5,"forced_choices":["rightarrow","rightarrow","leftarrow","rightarrow"],"right_color":"lightblue","left_color":"orange","left_mu":40,"right_mu":52,"left_numbers":[35,53,51,29,46],"right_numbers":[46,65,53,46,66],"points_earned":274,"phase":"task","trial_type":"horizons-task","trial_index":84,"time_elapsed":1236566,"internal_node_id":"0.0-80.0","task_version":"0.2"},{"response_times":[940.0900000038091,458.73500000010245,547.2949999966659,566.915000003064,883.7349999956787],"keys_pressed":["leftarrow","leftarrow","rightarrow","rightarrow","rightarrow"],"horizon":5,"forced_choices":["leftarrow","leftarrow","rightarrow","rightarrow"],"right_color":"orange","left_color":"lightblue","left_mu":40,"right_mu":60,"left_numbers":[34,33,34,43,39],"right_numbers":[53,73,61,66,50],"points_earned":244,"phase":"task","trial_type":"horizons-task","trial_index":85,"time_elapsed":1241477,"internal_node_id":"0.0-81.0","task_version":"0.2"},{"response_times":[875.4350000019185,591.0249999943189,677.2500000006985,708.3999999959487,1019.5600000007544],"keys_pressed":["rightarrow","leftarrow","leftarrow","leftarrow","leftarrow"],"horizon":5,"forced_choices":["rightarrow","leftarrow","leftarrow","leftarrow"],"right_color":"orange","left_color":"lightblue","left_mu":40,"right_mu":20,"left_numbers":[33,44,39,47,43],"right_numbers":[20,4,11,27,21],"points_earned":193,"phase":"task","trial_type":"horizons-task","trial_index":86,"time_elapsed":1246856,"internal_node_id":"0.0-82.0","task_version":"0.2"},{"response_times":[1295.714999993099,716.4450000056531,595.4850000052247,683.5300000021234,1523.205000004964],"keys_pressed":["leftarrow","rightarrow","rightarrow","rightarrow","leftarrow"],"horizon":5,"forced_choices":["leftarrow","rightarrow","rightarrow","rightarrow"],"right_color":"lightblue","left_color":"orange","left_mu":60,"right_mu":40,"left_numbers":[55,54,46,57,74],"right_numbers":[43,47,45,24,53],"points_earned":245,"phase":"task","trial_type":"horizons-task","trial_index":87,"time_elapsed":1253179,"internal_node_id":"0.0-83.0","task_version":"0.2"},{"response_times":[1445.180000002496,680.8300000047311,623.52000000095,585.0399999981746,1650.8149999934249],"keys_pressed":["leftarrow","rightarrow","leftarrow","rightarrow","leftarrow"],"horizon":5,"forced_choices":["leftarrow","rightarrow","leftarrow","rightarrow"],"right_color":"lightblue","left_color":"orange","left_mu":60,"right_mu":40,"left_numbers":[50,51,57,50,48],"right_numbers":[50,37,34,33,39],"points_earned":225,"phase":"task","trial_type":"horizons-task","trial_index":88,"time_elapsed":1259675,"internal_node_id":"0.0-84.0","task_version":"0.2"},{"response_times":[993.4549999961164,532.5799999991432,942.7199999990407,538.1000000052154,2502.2099999985658,2768.824999999255,2074.4649999979883,507.0599999963306,335.9049999997951,282.0800000044983],"keys_pressed":["rightarrow","leftarrow","leftarrow","leftarrow","rightarrow","leftarrow","leftarrow","leftarrow","leftarrow","leftarrow"],"horizon":10,"forced_choices":["rightarrow","leftarrow","leftarrow","leftarrow"],"right_color":"lightblue","left_color":"orange","left_mu":40,"right_mu":48,"left_numbers":[31,38,45,32,32,44,41,41,39,46],"right_numbers":[37,54,36,54,35,48,67,40,54,34],"points_earned":398,"phase":"task","trial_type":"horizons-task","trial_index":89,"time_elapsed":1272661,"internal_node_id":"0.0-85.0","task_version":"0.2"},{"response_times":[1086.3899999968708,566.0249999999069,604.8549999978859,748.9950000015087,1588.014999993844],"keys_pressed":["rightarrow","rightarrow","leftarrow","rightarrow","rightarrow"],"horizon":5,"forced_choices":["rightarrow","rightarrow","leftarrow","rightarrow"],"right_color":"orange","left_color":"lightblue","left_mu":40,"right_mu":60,"left_numbers":[41,53,23,40,39],"right_numbers":[56,88,60,59,61],"points_earned":287,"phase":"task","trial_type":"horizons-task","trial_index":90,"time_elapsed":1278763,"internal_node_id":"0.0-86.0","task_version":"0.2"},{"response_times":[933.6750000002794,539.9199999957345,550.7649999998976,555.4449999982025,1673.450000002049,944.4600000060163,544.6950000040233,823.7349999982398,475.37000000011176,305.8649999948684],"keys_pressed":["leftarrow","rightarrow","rightarrow","rightarrow","leftarrow","leftarrow","leftarrow","leftarrow","leftarrow","leftarrow"],"horizon":10,"forced_choices":["leftarrow","rightarrow","rightarrow","rightarrow"],"right_color":"lightblue","left_color":"orange","left_mu":60,"right_mu":48,"left_numbers":[57,67,54,77,61,60,47,64,63,68],"right_numbers":[42,53,44,40,38,48,42,41,44,34],"points_earned":557,"phase":"task","trial_type":"horizons-task","trial_index":91,"time_elapsed":1287619,"internal_node_id":"0.0-87.0","task_version":"0.2"},{"rt":35921.849999998696,"responses":{"age":"59","gender-categorical":"Male","gender-free-response":"","ethnicity":"Not Hispanic or Latino","race":["White"],"language":"Yes","fluency":"Very well"},"survey":"demographics","trial_type":"survey-demo","trial_index":92,"time_elapsed":1323554,"internal_node_id":"0.0-88.0","task_version":"0.2"},{"rt":59085.67000000039,"responses":{"difficulty":"4","fun":"4","clarity":"5","strategy":"Yes, just looked for the averages of the first four tries.","feedback":""},"survey":"debrief","trial_type":"survey-debrief","trial_index":93,"time_elapsed":1382648,"internal_node_id":"0.0-89.0","task_version":"0.2","interactions":"[]"}]