[{"view_history":"[{\"page_index\":0,\"viewing_time\":2284.155000001192}]","rt":2284.650000045076,"trial_type":"instructions","trial_index":0,"time_elapsed":2288,"internal_node_id":"0.0-0.0","task_version":"0.2"},{"item_order":[12,2,0,15,8,9,11,14,10,5,6,13,3,7,4,1],"responses":{"Q13":"4","Q03":"4","Q01":"4","Q16":"4","Q09":"4","Q10":"3","Q12":"5","Q15":"5","Q11":"3","Q06":"3","Q07":"5","Q14":"4","Q04":"4","Q08":"4","Q05":"5","Q02":"5"},"radio_events":[7323.005000012927,7738.725000061095,11122.979999985546,12570.814999984577,13538.990000030026,18378.78999998793,20586.695000063628,22218.789999955334,25874.895000015385,30386.565000051633,33850.90499999933,34770.67999995779,37378.58999997843,40386.67000003625,42666.58499999903,43770.59500000905],"key_events":[],"mouse_events":[0.9350000182166696,5850.9199999971315,6701.0299999965355,7090.960000059567,7323.005000012927,7738.725000061095,10578.7400000263,11122.979999985546,12050.859999959357,12570.814999984577,13066.590000060387,13538.990000030026,17690.30500005465,18378.78999998793,20034.809999982826,20586.695000063628,22218.789999955334,25874.895000015385,29762.68499996513,30386.565000051633,31602.740000002086,33850.90499999933,34770.67999995779,36866.60499998834,37378.58999997843,40010.18500002101,40386.67000003625,42666.58499999903,43770.59500000905,44507.00500002131],"rt":44510.4950000532,"survey":"nfc","trial_type":"survey-template","trial_index":1,"time_elapsed":46805,"internal_node_id":"0.0-1.0","task_version":"0.2"},{"item_order":[12,15,6,16,1,14,3,0,13,11,2,7,9,8,5,4,10],"responses":{"Q13":"1","Q16":"1","Q07":"1","Q17":"0","Q02":"1","Q15":"1","Q04":"2","Q01":"2","Q14":"2","Q12":"1","Q03":"3","Q08":"0","Q10":"4","Q09":"1","Q06":"1","Q05":"1","Q11":"3"},"radio_events":[5234.869999927469,6858.799999929033,7371.139999944717,10722.674999968149,15186.67500000447,17290.719999931753,20507.050000014715,21546.939999912865,24634.689999977127,25218.61999994144,27690.60500001069,29898.485000012442,31538.609999930486,33826.449999934994,38338.40000000782,43090.714999940246,43722.68000000622,45051.02499993518],"key_events":[],"mouse_events":[5234.869999927469,6003.075000015087,6394.729999941774,6858.799999929033,7371.139999944717,10722.674999968149,13618.855000007898,15186.67500000447,17290.719999931753,18258.834999985993,20507.050000014715,21546.939999912865,24634.689999977127,25218.61999994144,27690.60500001069,28386.51499990374,28986.59499990754,29898.485000012442,31538.609999930486,33826.449999934994,38338.40000000782,38978.39999990538,40570.459999958985,40810.6699999189,41282.54499996547,41555.01499993261,41915.01499991864,42258.53999995161,42666.45000001881,43090.714999940246,43314.57499996759,43722.68000000622,44066.35999993887,45051.02499993518,45706.90999994986],"rt":45709.284999989904,"survey":"pswq","trial_type":"survey-template","trial_index":2,"time_elapsed":92523,"internal_node_id":"0.0-2.0","task_version":"0.2"},{"item_order":[1,3,5,10,4,0,11,2,7,8,6,12,9],"responses":{"Q02":"2","Q04":"3","Q06":"1","Q11":"2","Q05":"3","Q01":"3","Q12":"2","Q03":"0","Q08":"2","Q09":"2","Q07":"2","Q13":"4","Q10":"1"},"radio_events":[10861.125000054017,12221.185000031255,13093.420000048354,16373.165000113659,17445.180000038818,18477.33500006143,20637.285000062548,24053.46000008285,27340.860000113025,28516.860000090674,28980.91500008013,31740.935000008903,32772.88000006229,35773.07000011206],"key_events":[],"mouse_events":[10397.440000087954,10861.125000054017,11324.735000031069,12221.185000031255,13093.420000048354,13573.070000042208,13926.000000094064,14653.47500005737,16373.165000113659,17445.180000038818,18477.33500006143,20637.285000062548,24053.46000008285,27340.860000113025,28516.860000090674,28980.91500008013,31740.935000008903,32772.88000006229,35292.75000002235,35773.07000011206,36517.235000035726],"rt":36519.12000006996,"survey":"ius12","trial_type":"survey-template","trial_index":3,"time_elapsed":129051,"internal_node_id":"0.0-3.0","task_version":"0.2"},{"view_history":"[{\"page_index\":0,\"viewing_time\":4408.309999969788},{\"page_index\":1,\"viewing_time\":2998.3099999371916},{\"page_index\":2,\"viewing_time\":7511.91000000108},{\"page_index\":3,\"viewing_time\":4472.065000096336},{\"page_index\":4,\"viewing_time\":3879.465000005439},{\"page_index\":5,\"viewing_time\":1697.1749999793246},{\"page_index\":6,\"viewing_time\":3974.9549999833107},{\"page_index\":7,\"viewing_time\":10816.02499994915},{\"page_index\":8,\"viewing_time\":6415.804999996908},{\"page_index\":9,\"viewing_time\":4241.115000098944}]","rt":50415.559999994,"trial_type":"instructions","trial_index":4,"time_elapsed":179471,"internal_node_id":"0.0-4.0-0.0","task_version":"0.2"},{"response_times":[1030.919999931939,591.3400000426918,479.9800000619143,479.90500007290393,5231.870000017807],"keys_pressed":["rightarrow","leftarrow","rightarrow","rightarrow","leftarrow"],"horizon":5,"forced_choices":["rightarrow","leftarrow","rightarrow","rightarrow"],"right_color":"lightblue","left_color":"orange","left_mu":40,"right_mu":20,"left_numbers":[35,43,31,44,46],"right_numbers":[15,14,27,24,29],"points_earned":155,"phase":"practice","trial_type":"horizons-task","trial_index":5,"time_elapsed":188790,"internal_node_id":"0.0-4.0-1.0","task_version":"0.2"},{"response_times":[1185.895000002347,551.3700000010431,496.58000003546476,455.19000000786036,2816.83000002522,1415.250000078231,600.0849999254569,616.1549999378622,767.920000012964,1991.840000031516],"keys_pressed":["leftarrow","leftarrow","rightarrow","rightarrow","rightarrow","rightarrow","rightarrow","rightarrow","rightarrow","leftarrow"],"horizon":10,"forced_choices":["leftarrow","leftarrow","rightarrow","rightarrow"],"right_color":"orange","left_color":"lightblue","left_mu":60,"right_mu":70,"left_numbers":[58,58,52,65,72,53,71,57,61,65],"right_numbers":[78,70,65,74,68,74,70,73,71,71],"points_earned":676,"phase":"practice","trial_type":"horizons-task","trial_index":6,"time_elapsed":201190,"internal_node_id":"0.0-4.0-2.0","task_version":"0.2"},{"view_history":"[{\"page_index\":0,\"viewing_time\":1577.7900000102818},{\"page_index\":1,\"viewing_time\":1463.884999975562},{\"page_index\":2,\"viewing_time\":1079.909999971278},{\"page_index\":3,\"viewing_time\":2727.7549999998882}]","rt":6849.674999946728,"trial_type":"instructions","trial_index":7,"time_elapsed":208041,"internal_node_id":"0.0-4.0-3.0","task_version":"0.2"},{"responses":["true","false","true"],"num_errors":0,"rt":8102.305000065826,"trial_type":"horizons-comprehension","trial_index":8,"time_elapsed":216146,"internal_node_id":"0.0-4.0-4.0","task_version":"0.2"},{"trial_type":"call-function","trial_index":9,"time_elapsed":216153,"internal_node_id":"0.0-5.0","task_version":"0.2"},{"view_history":"[{\"page_index\":0,\"viewing_time\":814.1149999573827},{\"page_index\":1,\"viewing_time\":1856.5050000324845}]","rt":2670.9399999817833,"trial_type":"instructions","trial_index":10,"time_elapsed":218825,"internal_node_id":"0.0-6.0","task_version":"0.2"},{"response_times":[2593.150000087917,480.1900000311434,415.79999995883554,440.085000009276,2073.495000018738],"keys_pressed":["leftarrow","leftarrow","rightarrow","leftarrow","rightarrow"],"horizon":5,"forced_choices":["leftarrow","leftarrow","rightarrow","leftarrow"],"right_color":"lightblue","left_color":"orange","left_mu":40,"right_mu":32,"left_numbers":[42,31,27,48,35],"right_numbers":[28,25,48,28,18],"points_earned":187,"phase":"task","trial_type":"horizons-task","trial_index":11,"time_elapsed":226335,"internal_node_id":"0.0-7.0","task_version":"0.2"},{"response_times":[953.014999977313,487.98999993596226,528.1149999937043,463.6000000173226,1287.8700000001118],"keys_pressed":["leftarrow","leftarrow","leftarrow","rightarrow","rightarrow"],"horizon":5,"forced_choices":["leftarrow","leftarrow","leftarrow","rightarrow"],"right_color":"orange","left_color":"lightblue","left_mu":40,"right_mu":48,"left_numbers":[37,25,29,38,43],"right_numbers":[57,63,34,48,54],"points_earned":193,"phase":"task","trial_type":"horizons-task","trial_index":12,"time_elapsed":231557,"internal_node_id":"0.0-8.0","task_version":"0.2"},{"response_times":[586.2099999794737,360.3199999779463,504.06500010285527,479.6449999557808,1296.1099999956787,424.5100000407547,383.9400000870228,231.41500004567206,384.01499995961785,240.08000001776963],"keys_pressed":["rightarrow","leftarrow","leftarrow","rightarrow","rightarrow","rightarrow","rightarrow","rightarrow","rightarrow","rightarrow"],"horizon":10,"forced_choices":["rightarrow","leftarrow","leftarrow","rightarrow"],"right_color":"lightblue","left_color":"orange","left_mu":60,"right_mu":80,"left_numbers":[69,64,57,51,56,52,46,65,50,44],"right_numbers":[77,76,74,70,81,79,91,74,70,73],"points_earned":736,"phase":"task","trial_type":"horizons-task","trial_index":13,"time_elapsed":237949,"internal_node_id":"0.0-9.0","task_version":"0.2"},{"response_times":[514.2750000813976,504.50000003911555,463.7449999572709,376.15000002551824,1831.8100000033155,687.7849999582395,856.0549999820068,799.9350000172853,544.0299999900162,407.73500001523644],"keys_pressed":["leftarrow","leftarrow","rightarrow","leftarrow","leftarrow","rightarrow","leftarrow","rightarrow","leftarrow","leftarrow"],"horizon":10,"forced_choices":["leftarrow","leftarrow","rightarrow","leftarrow"],"right_color":"lightblue","left_color":"orange","left_mu":40,"right_mu":32,"left_numbers":[34,42,29,39,30,39,51,33,25,37],"right_numbers":[41,33,42,53,34,27,31,26,31,30],"points_earned":353,"phase":"task","trial_type":"horizons-task","trial_index":14,"time_elapsed":246438,"internal_node_id":"0.0-10.0","task_version":"0.2"},{"response_times":[915.2050000848249,366.69500009156764,352.004999993369,535.9499999321997,1184.125000028871,735.8550000935793,912.0350000448525,687.9249999765307,704.0699999779463,216.0450000083074],"keys_pressed":["leftarrow","rightarrow","leftarrow","leftarrow","leftarrow","rightarrow","rightarrow","leftarrow","leftarrow","leftarrow"],"horizon":10,"forced_choices":["leftarrow","rightarrow","leftarrow","leftarrow"],"right_color":"lightblue","left_color":"orange","left_mu":60,"right_mu":52,"left_numbers":[60,70,63,67,54,66,76,72,60,62],"right_numbers":[44,58,58,72,48,63,41,57,48,61],"points_earned":600,"phase":"task","trial_type":"horizons-task","trial_index":15,"time_elapsed":254550,"internal_node_id":"0.0-11.0","task_version":"0.2"},{"response_times":[713.7649999931455,392.2650000313297,535.9450000105426,575.5799999460578,3104.9450000282377],"keys_pressed":["rightarrow","leftarrow","leftarrow","rightarrow","rightarrow"],"horizon":5,"forced_choices":["rightarrow","leftarrow","leftarrow","rightarrow"],"right_color":"lightblue","left_color":"orange","left_mu":40,"right_mu":70,"left_numbers":[36,43,26,38,51],"right_numbers":[59,65,61,58,72],"points_earned":258,"phase":"task","trial_type":"horizons-task","trial_index":16,"time_elapsed":261374,"internal_node_id":"0.0-12.0","task_version":"0.2"},{"response_times":[537.6950000645593,495.9900000831112,399.9100000364706,464.3899999791756,1119.209999917075],"keys_pressed":["rightarrow","rightarrow","leftarrow","leftarrow","rightarrow"],"horizon":5,"forced_choices":["rightarrow","rightarrow","leftarrow","leftarrow"],"right_color":"lightblue","left_color":"orange","left_mu":40,"right_mu":44,"left_numbers":[25,44,55,30,53],"right_numbers":[55,45,43,54,46],"points_earned":231,"phase":"task","trial_type":"horizons-task","trial_index":17,"time_elapsed":265893,"internal_node_id":"0.0-13.0","task_version":"0.2"},{"response_times":[482.27000003680587,464.24000000115484,416.01000004447997,336.1949999816716,687.4949999619275],"keys_pressed":["rightarrow","rightarrow","leftarrow","rightarrow","rightarrow"],"horizon":5,"forced_choices":["rightarrow","rightarrow","leftarrow","rightarrow"],"right_color":"orange","left_color":"lightblue","left_mu":40,"right_mu":60,"left_numbers":[47,45,41,33,42],"right_numbers":[59,59,63,59,59],"points_earned":277,"phase":"task","trial_type":"horizons-task","trial_index":18,"time_elapsed":269782,"internal_node_id":"0.0-14.0","task_version":"0.2"},{"response_times":[642.4300000071526,607.3300000280142,391.98499999474734,639.7750000469387,1040.2849999954924],"keys_pressed":["rightarrow","rightarrow","leftarrow","leftarrow","leftarrow"],"horizon":5,"forced_choices":["rightarrow","rightarrow","leftarrow","leftarrow"],"right_color":"lightblue","left_color":"orange","left_mu":60,"right_mu":40,"left_numbers":[54,64,62,75,70],"right_numbers":[38,47,33,59,31],"points_earned":292,"phase":"task","trial_type":"horizons-task","trial_index":19,"time_elapsed":274605,"internal_node_id":"0.0-15.0","task_version":"0.2"},{"response_times":[1362.4350000172853,311.794999986887,431.97500007227063,399.9450000701472,1488.3749999571592,783.545000012964,456.01999992504716,232.00000007636845,160.18499992787838,159.66999996453524],"keys_pressed":["rightarrow","leftarrow","leftarrow","leftarrow","rightarrow","leftarrow","rightarrow","rightarrow","rightarrow","rightarrow"],"horizon":10,"forced_choices":["rightarrow","leftarrow","leftarrow","leftarrow"],"right_color":"lightblue","left_color":"orange","left_mu":60,"right_mu":80,"left_numbers":[62,65,48,55,56,63,61,58,69,55],"right_numbers":[88,82,77,84,87,84,81,80,76,86],"points_earned":729,"phase":"task","trial_type":"horizons-task","trial_index":20,"time_elapsed":281893,"internal_node_id":"0.0-16.0","task_version":"0.2"},{"response_times":[514.3950000638142,368.1499999947846,431.8549999734387,480.2299999864772,1199.6049999725074,552.1050000097603,847.914999932982,2295.9000000264496,432.18000000342727,272.2150000045076],"keys_pressed":["leftarrow","rightarrow","rightarrow","rightarrow","leftarrow","rightarrow","leftarrow","leftarrow","leftarrow","leftarrow"],"horizon":10,"forced_choices":["leftarrow","rightarrow","rightarrow","rightarrow"],"right_color":"orange","left_color":"lightblue","left_mu":60,"right_mu":48,"left_numbers":[57,69,69,53,45,58,60,68,65,66],"right_numbers":[35,46,56,54,44,49,63,48,68,57],"points_earned":566,"phase":"task","trial_type":"horizons-task","trial_index":21,"time_elapsed":290791,"internal_node_id":"0.0-17.0","task_version":"0.2"},{"response_times":[817.6349999848753,439.089999999851,415.94999993685633,391.88499993178993,1679.8699999926612,576.3949999818578,887.555000022985,1984.5750000094995,647.3100000293925,184.44500002078712],"keys_pressed":["leftarrow","rightarrow","rightarrow","leftarrow","leftarrow","rightarrow","leftarrow","rightarrow","leftarrow","leftarrow"],"horizon":10,"forced_choices":["leftarrow","rightarrow","rightarrow","leftarrow"],"right_color":"lightblue","left_color":"orange","left_mu":40,"right_mu":32,"left_numbers":[48,49,47,35,27,39,43,58,29,40],"right_numbers":[29,28,35,25,25,32,34,16,31,41],"points_earned":333,"phase":"task","trial_type":"horizons-task","trial_index":22,"time_elapsed":300319,"internal_node_id":"0.0-18.0","task_version":"0.2"},{"response_times":[561.2700000638142,391.59999997355044,376.76999997347593,391.1549999611452,887.6850000815466],"keys_pressed":["leftarrow","rightarrow","leftarrow","rightarrow","leftarrow"],"horizon":5,"forced_choices":["leftarrow","rightarrow","leftarrow","rightarrow"],"right_color":"lightblue","left_color":"orange","left_mu":40,"right_mu":28,"left_numbers":[25,45,33,44,34],"right_numbers":[20,28,15,17,36],"points_earned":137,"phase":"task","trial_type":"horizons-task","trial_index":23,"time_elapsed":304429,"internal_node_id":"0.0-19.0","task_version":"0.2"},{"response_times":[978.9249999448657,695.9450000431389,375.5850000306964,488.3200000040233,1095.6399999558926,640.235000057146,199.98999999370426,199.75500006694347,104.19500002171844,159.89499993156642],"keys_pressed":["rightarrow","rightarrow","leftarrow","leftarrow","rightarrow","rightarrow","rightarrow","rightarrow","rightarrow","rightarrow"],"horizon":10,"forced_choices":["rightarrow","rightarrow","leftarrow","leftarrow"],"right_color":"lightblue","left_color":"orange","left_mu":40,"right_mu":52,"left_numbers":[40,33,26,31,30,38,36,34,39,51],"right_numbers":[63,51,47,35,64,47,46,57,47,53],"points_earned":485,"phase":"task","trial_type":"horizons-task","trial_index":24,"time_elapsed":310869,"internal_node_id":"0.0-20.0","task_version":"0.2"},{"response_times":[859.1200000373647,455.36499994341284,295.6799999810755,256.15999998990446,968.5149999568239,487.6149999909103,376.36999995447695,231.64499993436038,167.905000038445,160.29500006698072],"keys_pressed":["leftarrow","rightarrow","leftarrow","rightarrow","rightarrow","leftarrow","rightarrow","rightarrow","rightarrow","rightarrow"],"horizon":10,"forced_choices":["leftarrow","rightarrow","leftarrow","rightarrow"],"right_color":"orange","left_color":"lightblue","left_mu":60,"right_mu":72,"left_numbers":[54,61,61,64,46,51,46,67,57,57],"right_numbers":[84,80,71,75,73,68,72,64,65,63],"points_earned":658,"phase":"task","trial_type":"horizons-task","trial_index":25,"time_elapsed":316630,"internal_node_id":"0.0-21.0","task_version":"0.2"},{"response_times":[793.7249999959022,391.6149999713525,616.5899999905378,479.91500003263354,495.7050000084564,472.28999994695187,871.9699999783188,223.80999999586493,199.86499997321516,616.5799999143928],"keys_pressed":["leftarrow","rightarrow","rightarrow","rightarrow","rightarrow","rightarrow","leftarrow","leftarrow","leftarrow","leftarrow"],"horizon":10,"forced_choices":["leftarrow","rightarrow","rightarrow","rightarrow"],"right_color":"lightblue","left_color":"orange","left_mu":40,"right_mu":28,"left_numbers":[35,41,37,50,38,32,47,40,56,32],"right_numbers":[16,15,27,37,13,21,33,16,36,26],"points_earned":323,"phase":"task","trial_type":"horizons-task","trial_index":26,"time_elapsed":323294,"internal_node_id":"0.0-22.0","task_version":"0.2"},{"response_times":[913.6500000022352,367.8749999962747,583.7850000243634,439.92499995511025,1288.065000087954],"keys_pressed":["rightarrow","leftarrow","leftarrow","rightarrow","rightarrow"],"horizon":5,"forced_choices":["rightarrow","leftarrow","leftarrow","rightarrow"],"right_color":"orange","left_color":"lightblue","left_mu":40,"right_mu":60,"left_numbers":[40,49,38,43,34],"right_numbers":[63,54,59,61,56],"points_earned":267,"phase":"task","trial_type":"horizons-task","trial_index":27,"time_elapsed":328389,"internal_node_id":"0.0-23.0","task_version":"0.2"},{"response_times":[458.81500001996756,431.6050000488758,391.9599999208003,559.7149999812245,1151.9550000084564,424.7949999989942,182.84500006120652,144.26000008825213,152.34999998938292,143.7900000018999],"keys_pressed":["leftarrow","leftarrow","rightarrow","rightarrow","leftarrow","leftarrow","leftarrow","leftarrow","leftarrow","leftarrow"],"horizon":10,"forced_choices":["leftarrow","leftarrow","rightarrow","rightarrow"],"right_color":"lightblue","left_color":"orange","left_mu":40,"right_mu":10,"left_numbers":[59,38,52,44,43,32,38,47,43,44],"right_numbers":[8,18,0,14,0,16,10,14,14,12],"points_earned":358,"phase":"task","trial_type":"horizons-task","trial_index":28,"time_elapsed":333933,"internal_node_id":"0.0-24.0","task_version":"0.2"},{"response_times":[1465.9349999856204,520.1400000369176,407.81999996397644,839.9150000186637,864.1799999168143],"keys_pressed":["leftarrow","leftarrow","rightarrow","rightarrow","rightarrow"],"horizon":5,"forced_choices":["leftarrow","leftarrow","rightarrow","rightarrow"],"right_color":"orange","left_color":"lightblue","left_mu":40,"right_mu":36,"left_numbers":[39,38,38,28,46],"right_numbers":[36,41,40,41,23],"points_earned":181,"phase":"task","trial_type":"horizons-task","trial_index":29,"time_elapsed":339533,"internal_node_id":"0.0-25.0","task_version":"0.2"},{"response_times":[1089.9799999315292,495.67500001285225,424.03499991633,289.11500005051494,1903.470000019297,751.479999977164,600.2500000176951,423.34500001743436,856.2049999600276,671.6749999905005],"keys_pressed":["leftarrow","leftarrow","rightarrow","leftarrow","rightarrow","leftarrow","rightarrow","leftarrow","rightarrow","leftarrow"],"horizon":10,"forced_choices":["leftarrow","leftarrow","rightarrow","leftarrow"],"right_color":"orange","left_color":"lightblue","left_mu":60,"right_mu":68,"left_numbers":[49,54,67,72,61,61,54,74,67,56],"right_numbers":[75,52,79,78,61,71,73,68,59,68],"points_earned":638,"phase":"task","trial_type":"horizons-task","trial_index":30,"time_elapsed":348541,"internal_node_id":"0.0-26.0","task_version":"0.2"},{"response_times":[530.0200000638142,375.7800000021234,400.80499998293817,583.3650000859052,1440.5200000619516],"keys_pressed":["leftarrow","rightarrow","leftarrow","rightarrow","rightarrow"],"horizon":5,"forced_choices":["leftarrow","rightarrow","leftarrow","rightarrow"],"right_color":"orange","left_color":"lightblue","left_mu":60,"right_mu":72,"left_numbers":[49,55,74,74,51],"right_numbers":[70,76,66,63,77],"points_earned":339,"phase":"task","trial_type":"horizons-task","trial_index":31,"time_elapsed":353374,"internal_node_id":"0.0-27.0","task_version":"0.2"},{"response_times":[585.0300000747666,399.44499998819083,344.3599999882281,319.7249999502674,799.9400000553578],"keys_pressed":["rightarrow","leftarrow","rightarrow","leftarrow","leftarrow"],"horizon":5,"forced_choices":["rightarrow","leftarrow","rightarrow","leftarrow"],"right_color":"orange","left_color":"lightblue","left_mu":60,"right_mu":48,"left_numbers":[51,42,54,51,59],"right_numbers":[44,39,38,63,40],"points_earned":234,"phase":"task","trial_type":"horizons-task","trial_index":32,"time_elapsed":357325,"internal_node_id":"0.0-28.0","task_version":"0.2"},{"response_times":[898.3299999963492,575.5600000265986,392.04499998595566,527.8150000376627,463.98999996017665],"keys_pressed":["leftarrow","leftarrow","rightarrow","rightarrow","leftarrow"],"horizon":5,"forced_choices":["leftarrow","leftarrow","rightarrow","rightarrow"],"right_color":"lightblue","left_color":"orange","left_mu":60,"right_mu":56,"left_numbers":[60,48,55,55,73],"right_numbers":[36,60,46,53,43],"points_earned":280,"phase":"task","trial_type":"horizons-task","trial_index":33,"time_elapsed":361685,"internal_node_id":"0.0-29.0","task_version":"0.2"},{"response_times":[602.6399999391288,711.4999999757856,368.15499991644174,439.68000006861985,1144.0700000384822,967.8099999437109,440.3950000414625,175.98000005818903,175.69000006187707,167.82999993301928],"keys_pressed":["leftarrow","leftarrow","rightarrow","rightarrow","leftarrow","rightarrow","leftarrow","leftarrow","leftarrow","leftarrow"],"horizon":10,"forced_choices":["leftarrow","leftarrow","rightarrow","rightarrow"],"right_color":"lightblue","left_color":"orange","left_mu":60,"right_mu":56,"left_numbers":[71,68,67,65,65,50,52,62,61,57],"right_numbers":[40,66,48,45,59,43,58,62,49,49],"points_earned":572,"phase":"task","trial_type":"horizons-task","trial_index":34,"time_elapsed":368381,"internal_node_id":"0.0-30.0","task_version":"0.2"},{"response_times":[658.0300000496209,503.9850000757724,416.4499999023974,319.8250000132248,911.6700000595301],"keys_pressed":["rightarrow","rightarrow","leftarrow","rightarrow","rightarrow"],"horizon":5,"forced_choices":["rightarrow","rightarrow","leftarrow","rightarrow"],"right_color":"orange","left_color":"lightblue","left_mu":60,"right_mu":90,"left_numbers":[62,43,77,65,51],"right_numbers":[102,97,85,91,101],"points_earned":468,"phase":"task","trial_type":"horizons-task","trial_index":35,"time_elapsed":372693,"internal_node_id":"0.0-31.0","task_version":"0.2"},{"response_times":[490.49999995622784,510.91499999165535,424.460000009276,408.07999996468425,432.0150000276044,895.6699999980628,232.27999999653548,199.57000005524606,127.86500004585832,168.1400000816211],"keys_pressed":["rightarrow","rightarrow","leftarrow","leftarrow","rightarrow","leftarrow","leftarrow","leftarrow","leftarrow","leftarrow"],"horizon":10,"forced_choices":["rightarrow","rightarrow","leftarrow","leftarrow"],"right_color":"lightblue","left_color":"orange","left_mu":60,"right_mu":40,"left_numbers":[74,63,47,64,49,63,63,57,49,66],"right_numbers":[30,32,50,22,36,37,36,49,32,33],"points_earned":507,"phase":"task","trial_type":"horizons-task","trial_index":36,"time_elapsed":378084,"internal_node_id":"0.0-32.0","task_version":"0.2"},{"response_times":[522.6399999810383,328.1100000021979,495.91999989934266,456.1049999902025,943.7299999408424],"keys_pressed":["leftarrow","rightarrow","rightarrow","rightarrow","rightarrow"],"horizon":5,"forced_choices":["leftarrow","rightarrow","rightarrow","rightarrow"],"right_color":"orange","left_color":"lightblue","left_mu":60,"right_mu":48,"left_numbers":[57,63,63,56,62],"right_numbers":[51,61,40,33,35],"points_earned":226,"phase":"task","trial_type":"horizons-task","trial_index":37,"time_elapsed":382332,"internal_node_id":"0.0-33.0","task_version":"0.2"},{"response_times":[450.514999916777,344.47499993257225,239.95499999728054,431.8249999778345,815.8950000070035,199.750000028871,487.8099999623373,168.55499998200685,167.394999996759,167.7800000179559],"keys_pressed":["leftarrow","rightarrow","leftarrow","rightarrow","rightarrow","rightarrow","rightarrow","rightarrow","rightarrow","rightarrow"],"horizon":10,"forced_choices":["leftarrow","rightarrow","leftarrow","rightarrow"],"right_color":"orange","left_color":"lightblue","left_mu":60,"right_mu":90,"left_numbers":[54,44,62,53,61,57,55,52,61,59],"right_numbers":[97,88,79,90,89,98,102,94,103,87],"points_earned":867,"phase":"task","trial_type":"horizons-task","trial_index":38,"time_elapsed":387309,"internal_node_id":"0.0-34.0","task_version":"0.2"},{"response_times":[418.3750000083819,367.59499995969236,224.33999995701015,455.65999997779727,560.2649999782443],"keys_pressed":["leftarrow","rightarrow","leftarrow","rightarrow","rightarrow"],"horizon":5,"forced_choices":["leftarrow","rightarrow","leftarrow","rightarrow"],"right_color":"orange","left_color":"lightblue","left_mu":60,"right_mu":90,"left_numbers":[56,53,58,50,57],"right_numbers":[87,100,77,90,82],"points_earned":386,"phase":"task","trial_type":"horizons-task","trial_index":39,"time_elapsed":390838,"internal_node_id":"0.0-35.0","task_version":"0.2"},{"response_times":[569.3299999693409,335.6599999824539,224.51500000897795,623.4549999935552,945.5699999816716,446.2249999633059,208.03999993950129,208.11000000685453,160.12999997474253,167.79500001575798],"keys_pressed":["rightarrow","leftarrow","rightarrow","rightarrow","leftarrow","leftarrow","leftarrow","leftarrow","leftarrow","leftarrow"],"horizon":10,"forced_choices":["rightarrow","leftarrow","rightarrow","rightarrow"],"right_color":"lightblue","left_color":"orange","left_mu":40,"right_mu":10,"left_numbers":[30,37,40,39,36,39,52,32,46,54],"right_numbers":[12,18,13,3,17,29,4,12,20,8],"points_earned":324,"phase":"task","trial_type":"horizons-task","trial_index":40,"time_elapsed":396229,"internal_node_id":"0.0-36.0","task_version":"0.2"},{"response_times":[418.07500005234033,568.0249999277294,336.3050000043586,391.72499999403954,592.1000000089407,416.31000000052154,351.0250000981614,248.06499993428588,152.2150000091642,160.0849999813363],"keys_pressed":["rightarrow","rightarrow","leftarrow","rightarrow","rightarrow","leftarrow","rightarrow","rightarrow","rightarrow","rightarrow"],"horizon":10,"forced_choices":["rightarrow","rightarrow","leftarrow","rightarrow"],"right_color":"orange","left_color":"lightblue","left_mu":60,"right_mu":90,"left_numbers":[56,63,64,54,65,60,72,63,65,47],"right_numbers":[91,69,91,85,90,82,85,92,96,91],"points_earned":823,"phase":"task","trial_type":"horizons-task","trial_index":41,"time_elapsed":401365,"internal_node_id":"0.0-37.0","task_version":"0.2"},{"response_times":[954.1549999266863,511.79500005673617,503.92499996814877,432.77499999385327,775.5350000225008],"keys_pressed":["rightarrow","rightarrow","rightarrow","leftarrow","rightarrow"],"horizon":5,"forced_choices":["rightarrow","rightarrow","rightarrow","leftarrow"],"right_color":"lightblue","left_color":"orange","left_mu":60,"right_mu":56,"left_numbers":[77,47,54,52,58],"right_numbers":[50,54,47,48,64],"points_earned":267,"phase":"task","trial_type":"horizons-task","trial_index":42,"time_elapsed":406044,"internal_node_id":"0.0-38.0","task_version":"0.2"},{"response_times":[474.53999996650964,440.169999958016,527.6600000215694,440.0300000561401,527.8299999190494],"keys_pressed":["rightarrow","rightarrow","rightarrow","leftarrow","leftarrow"],"horizon":5,"forced_choices":["rightarrow","rightarrow","rightarrow","leftarrow"],"right_color":"orange","left_color":"lightblue","left_mu":60,"right_mu":30,"left_numbers":[64,51,66,65,52],"right_numbers":[28,25,16,27,27],"points_earned":186,"phase":"task","trial_type":"horizons-task","trial_index":43,"time_elapsed":409957,"internal_node_id":"0.0-39.0","task_version":"0.2"},{"response_times":[873.3200000133365,287.95999998692423,528.1400000676513,447.77000008616596,1024.1099999984726],"keys_pressed":["leftarrow","rightarrow","rightarrow","rightarrow","leftarrow"],"horizon":5,"forced_choices":["leftarrow","rightarrow","rightarrow","rightarrow"],"right_color":"lightblue","left_color":"orange","left_mu":40,"right_mu":28,"left_numbers":[49,37,25,33,47],"right_numbers":[26,28,27,27,23],"points_earned":178,"phase":"task","trial_type":"horizons-task","trial_index":44,"time_elapsed":414620,"internal_node_id":"0.0-40.0","task_version":"0.2"},{"response_times":[467.5449999049306,343.33499998319894,511.4449999528006,439.97499998658895,1376.4999998966232,415.5800000298768,528.0450000427663,192.07499991171062,159.97000003699213,183.7400000076741],"keys_pressed":["leftarrow","rightarrow","rightarrow","rightarrow","leftarrow","rightarrow","rightarrow","rightarrow","rightarrow","rightarrow"],"horizon":10,"forced_choices":["leftarrow","rightarrow","rightarrow","rightarrow"],"right_color":"orange","left_color":"lightblue","left_mu":60,"right_mu":72,"left_numbers":[70,50,70,54,61,62,62,58,54,51],"right_numbers":[60,66,71,68,65,77,61,75,78,54],"points_earned":681,"phase":"task","trial_type":"horizons-task","trial_index":45,"time_elapsed":420741,"internal_node_id":"0.0-41.0","task_version":"0.2"},{"response_times":[585.9899999340996,199.76999994833022,288.2349999854341,479.62000011466444,983.7699999334291],"keys_pressed":["rightarrow","leftarrow","rightarrow","rightarrow","leftarrow"],"horizon":5,"forced_choices":["rightarrow","leftarrow","rightarrow","rightarrow"],"right_color":"lightblue","left_color":"orange","left_mu":40,"right_mu":10,"left_numbers":[41,44,38,50,50],"right_numbers":[0,13,20,12,1],"points_earned":126,"phase":"task","trial_type":"horizons-task","trial_index":46,"time_elapsed":424780,"internal_node_id":"0.0-42.0","task_version":"0.2"},{"response_times":[539.7550000343472,278.8200000068173,536.2600000808015,463.82000006269664,1136.214999947697,839.8749999469146,351.8800000892952,184.4500000588596,167.47500002384186,199.68499999959022],"keys_pressed":["rightarrow","leftarrow","leftarrow","leftarrow","rightarrow","rightarrow","leftarrow","leftarrow","leftarrow","leftarrow"],"horizon":10,"forced_choices":["rightarrow","leftarrow","leftarrow","leftarrow"],"right_color":"orange","left_color":"lightblue","left_mu":40,"right_mu":20,"left_numbers":[34,33,43,52,36,39,32,41,64,44],"right_numbers":[0,29,17,26,14,11,14,23,9,24],"points_earned":334,"phase":"task","trial_type":"horizons-task","trial_index":47,"time_elapsed":430980,"internal_node_id":"0.0-43.0","task_version":"0.2"},{"response_times":[1114.560000016354,455.9700000099838,560.2749999379739,336.02500008419156,1015.8999999985099],"keys_pressed":["leftarrow","leftarrow","rightarrow","leftarrow","rightarrow"],"horizon":5,"forced_choices":["leftarrow","leftarrow","rightarrow","leftarrow"],"right_color":"orange","left_color":"lightblue","left_mu":60,"right_mu":64,"left_numbers":[60,62,41,62,63],"right_numbers":[56,53,70,49,60],"points_earned":314,"phase":"task","trial_type":"horizons-task","trial_index":48,"time_elapsed":435964,"internal_node_id":"0.0-44.0","task_version":"0.2"},{"response_times":[715.5849999981001,454.8900000518188,416.0299999639392,583.4650000324473,464.15000001434237],"keys_pressed":["leftarrow","rightarrow","leftarrow","leftarrow","rightarrow"],"horizon":5,"forced_choices":["leftarrow","rightarrow","leftarrow","leftarrow"],"right_color":"lightblue","left_color":"orange","left_mu":60,"right_mu":52,"left_numbers":[62,48,53,59,71],"right_numbers":[53,53,51,62,64],"points_earned":291,"phase":"task","trial_type":"horizons-task","trial_index":49,"time_elapsed":440101,"internal_node_id":"0.0-45.0","task_version":"0.2"},{"response_times":[657.355000032112,424.2099999682978,336.3749999552965,303.30999998841435,248.52000002283603,1383.934999932535,559.9100000690669,239.5750000141561,240.36499997600913,239.76999998558313],"keys_pressed":["leftarrow","leftarrow","rightarrow","leftarrow","rightarrow","leftarrow","rightarrow","rightarrow","rightarrow","rightarrow"],"horizon":10,"forced_choices":["leftarrow","leftarrow","rightarrow","leftarrow"],"right_color":"orange","left_color":"lightblue","left_mu":60,"right_mu":64,"left_numbers":[62,65,69,59,57,50,58,54,51,66],"right_numbers":[54,76,72,75,68,75,57,74,51,75],"points_earned":633,"phase":"task","trial_type":"horizons-task","trial_index":50,"time_elapsed":446237,"internal_node_id":"0.0-46.0","task_version":"0.2"},{"view_history":"[{\"page_index\":0,\"viewing_time\":2528.3849999541417},{\"page_index\":1,\"viewing_time\":2013.3800000185147}]","rt":4542.179999989457,"trial_type":"instructions","trial_index":51,"time_elapsed":450780,"internal_node_id":"0.0-47.0","task_version":"0.2"},{"response_times":[990.0850000558421,368.90000000130385,526.964999968186,519.9550000252202,487.9000000655651],"keys_pressed":["rightarrow","leftarrow","leftarrow","leftarrow","rightarrow"],"horizon":5,"forced_choices":["rightarrow","leftarrow","leftarrow","leftarrow"],"right_color":"lightblue","left_color":"orange","left_mu":60,"right_mu":80,"left_numbers":[42,63,60,61,58],"right_numbers":[98,72,87,74,78],"points_earned":360,"phase":"task","trial_type":"horizons-task","trial_index":52,"time_elapsed":455181,"internal_node_id":"0.0-48.0","task_version":"0.2"},{"response_times":[1025.9200000436977,287.91999991517514,519.6500000311062,448.6250000772998,295.51500000525266,1185.4099999181926,182.6949999667704,200.0449999468401,167.75000002235174,167.95000003185123],"keys_pressed":["leftarrow","rightarrow","rightarrow","leftarrow","rightarrow","leftarrow","rightarrow","rightarrow","rightarrow","rightarrow"],"horizon":10,"forced_choices":["leftarrow","rightarrow","rightarrow","leftarrow"],"right_color":"orange","left_color":"lightblue","left_mu":40,"right_mu":48,"left_numbers":[36,59,40,53,23,52,30,49,43,35],"right_numbers":[54,50,66,43,66,36,50,39,44,47],"points_earned":503,"phase":"task","trial_type":"horizons-task","trial_index":53,"time_elapsed":461165,"internal_node_id":"0.0-49.0","task_version":"0.2"},{"response_times":[433.80499992053956,335.8800000278279,240.24500011000782,551.6550000756979,1584.0050000697374,496.2150000501424,351.77499998826534,191.9050000142306,160.44999996665865,175.48999993596226],"keys_pressed":["rightarrow","leftarrow","rightarrow","leftarrow","rightarrow","leftarrow","leftarrow","leftarrow","leftarrow","leftarrow"],"horizon":10,"forced_choices":["rightarrow","leftarrow","rightarrow","leftarrow"],"right_color":"lightblue","left_color":"orange","left_mu":60,"right_mu":52,"left_numbers":[72,70,65,59,57,52,59,70,49,40],"right_numbers":[58,50,46,48,48,58,58,60,62,53],"points_earned":551,"phase":"task","trial_type":"horizons-task","trial_index":54,"time_elapsed":467188,"internal_node_id":"0.0-50.0","task_version":"0.2"},{"response_times":[435.35000004339963,231.50500003248453,535.8700000215322,503.8499999791384,464.4449999323115,631.3900001114234,224.01000000536442,192.16999993659556,159.77000002749264,151.8049999140203],"keys_pressed":["rightarrow","leftarrow","leftarrow","leftarrow","rightarrow","rightarrow","rightarrow","rightarrow","rightarrow","rightarrow"],"horizon":10,"forced_choices":["rightarrow","leftarrow","leftarrow","leftarrow"],"right_color":"lightblue","left_color":"orange","left_mu":40,"right_mu":52,"left_numbers":[37,35,38,38,43,41,29,38,46,35],"right_numbers":[42,23,36,49,50,48,54,50,50,52],"points_earned":457,"phase":"task","trial_type":"horizons-task","trial_index":55,"time_elapsed":472221,"internal_node_id":"0.0-51.0","task_version":"0.2"},{"response_times":[825.8900000946596,384.1099999845028,279.97499995399266,295.96500005573034,495.8299999125302],"keys_pressed":["rightarrow","leftarrow","rightarrow","leftarrow","rightarrow"],"horizon":5,"forced_choices":["rightarrow","leftarrow","rightarrow","leftarrow"],"right_color":"lightblue","left_color":"orange","left_mu":60,"right_mu":52,"left_numbers":[53,63,67,53,53],"right_numbers":[43,48,37,63,55],"points_earned":251,"phase":"task","trial_type":"horizons-task","trial_index":56,"time_elapsed":476004,"internal_node_id":"0.0-52.0","task_version":"0.2"},{"response_times":[794.0049999160692,320.06499997805804,376.0699999984354,648.3899999875575,791.3100000005215,520.699999993667,519.4549999432638,360.2449999889359,783.7000000290573,192.0300000347197],"keys_pressed":["leftarrow","rightarrow","leftarrow","leftarrow","rightarrow","leftarrow","rightarrow","leftarrow","leftarrow","leftarrow"],"horizon":10,"forced_choices":["leftarrow","rightarrow","leftarrow","leftarrow"],"right_color":"lightblue","left_color":"orange","left_mu":40,"right_mu":44,"left_numbers":[34,37,31,39,44,43,52,57,36,31],"right_numbers":[51,65,41,56,44,41,35,41,43,50],"points_earned":415,"phase":"task","trial_type":"horizons-task","trial_index":57,"time_elapsed":482813,"internal_node_id":"0.0-53.0","task_version":"0.2"},{"response_times":[834.0249999891967,663.6799999978393,360.2050000336021,415.8100000349805,391.84499997645617],"keys_pressed":["rightarrow","rightarrow","leftarrow","rightarrow","leftarrow"],"horizon":5,"forced_choices":["rightarrow","rightarrow","leftarrow","rightarrow"],"right_color":"lightblue","left_color":"orange","left_mu":60,"right_mu":40,"left_numbers":[55,51,65,62,44],"right_numbers":[27,42,43,43,31],"points_earned":221,"phase":"task","trial_type":"horizons-task","trial_index":58,"time_elapsed":486981,"internal_node_id":"0.0-54.0","task_version":"0.2"},{"response_times":[513.9750000089407,559.6999999834225,456.0249999631196,584.0499999467283,1352.735000080429,1191.1700000055134,439.92499995511025,264.3400001106784,223.58500002883375,224.3699999526143],"keys_pressed":["rightarrow","rightarrow","leftarrow","leftarrow","rightarrow","leftarrow","rightarrow","rightarrow","rightarrow","rightarrow"],"horizon":10,"forced_choices":["rightarrow","rightarrow","leftarrow","leftarrow"],"right_color":"lightblue","left_color":"orange","left_mu":40,"right_mu":44,"left_numbers":[42,26,42,41,41,41,27,31,44,50],"right_numbers":[38,52,44,50,48,32,42,53,38,38],"points_earned":433,"phase":"task","trial_type":"horizons-task","trial_index":59,"time_elapsed":494293,"internal_node_id":"0.0-55.0","task_version":"0.2"},{"response_times":[1985.664999927394,544.1650000866503,504.164999932982,503.7699999520555,543.7999999849126],"keys_pressed":["rightarrow","leftarrow","leftarrow","rightarrow","rightarrow"],"horizon":5,"forced_choices":["rightarrow","leftarrow","leftarrow","rightarrow"],"right_color":"lightblue","left_color":"orange","left_mu":60,"right_mu":80,"left_numbers":[63,70,63,73,43],"right_numbers":[85,91,80,85,74],"points_earned":377,"phase":"task","trial_type":"horizons-task","trial_index":60,"time_elapsed":499876,"internal_node_id":"0.0-56.0","task_version":"0.2"},{"response_times":[683.4249999374151,414.8649999406189,551.9900000654161,559.9000001093373,935.715000028722,504.11500001791865,488.1850000238046,239.66500000096858,223.90500002074987,240.46500003896654],"keys_pressed":["leftarrow","rightarrow","rightarrow","leftarrow","rightarrow","rightarrow","rightarrow","rightarrow","rightarrow","rightarrow"],"horizon":10,"forced_choices":["leftarrow","rightarrow","rightarrow","leftarrow"],"right_color":"orange","left_color":"lightblue","left_mu":60,"right_mu":68,"left_numbers":[29,58,46,65,74,51,54,70,62,56],"right_numbers":[84,57,70,49,83,75,65,78,64,76],"points_earned":662,"phase":"task","trial_type":"horizons-task","trial_index":61,"time_elapsed":506221,"internal_node_id":"0.0-57.0","task_version":"0.2"},{"response_times":[465.8100000815466,544.1600000485778,431.8050000583753,504.24999999813735,231.6700000083074,1208.4800000302494,471.4699999894947,216.4550001034513,183.34999994840473,193.06499999947846],"keys_pressed":["rightarrow","rightarrow","rightarrow","leftarrow","rightarrow","leftarrow","leftarrow","leftarrow","leftarrow","leftarrow"],"horizon":10,"forced_choices":["rightarrow","rightarrow","rightarrow","leftarrow"],"right_color":"orange","left_color":"lightblue","left_mu":60,"right_mu":30,"left_numbers":[61,61,52,60,61,67,59,53,72,65],"right_numbers":[15,25,27,27,25,40,30,21,33,28],"points_earned":468,"phase":"task","trial_type":"horizons-task","trial_index":62,"time_elapsed":512174,"internal_node_id":"0.0-58.0","task_version":"0.2"},{"response_times":[1048.880000016652,607.8599999891594,407.9400000628084,680.2749999333173,816.12000009045],"keys_pressed":["leftarrow","leftarrow","rightarrow","rightarrow","leftarrow"],"horizon":5,"forced_choices":["leftarrow","leftarrow","rightarrow","rightarrow"],"right_color":"lightblue","left_color":"orange","left_mu":40,"right_mu":10,"left_numbers":[40,38,31,40,48],"right_numbers":[7,9,9,9,4],"points_earned":144,"phase":"task","trial_type":"horizons-task","trial_index":63,"time_elapsed":517237,"internal_node_id":"0.0-59.0","task_version":"0.2"},{"response_times":[978.0350000364706,391.9649999588728,343.3849998982623,448.2749999733642,272.1450000535697,1384.65499994345,255.159999942407,152.31999999377877,152.22500008530915,151.4600000809878],"keys_pressed":["rightarrow","leftarrow","rightarrow","leftarrow","rightarrow","leftarrow","leftarrow","leftarrow","leftarrow","leftarrow"],"horizon":10,"forced_choices":["rightarrow","leftarrow","rightarrow","leftarrow"],"right_color":"orange","left_color":"lightblue","left_mu":60,"right_mu":48,"left_numbers":[57,62,58,58,46,57,65,54,47,53],"right_numbers":[47,56,52,50,63,40,38,59,53,39],"points_earned":558,"phase":"task","trial_type":"horizons-task","trial_index":64,"time_elapsed":523268,"internal_node_id":"0.0-60.0","task_version":"0.2"},{"response_times":[906.1099999817088,352.3999999742955,463.274999987334,488.0249999696389,895.9350000368431],"keys_pressed":["rightarrow","leftarrow","leftarrow","leftarrow","leftarrow"],"horizon":5,"forced_choices":["rightarrow","leftarrow","leftarrow","leftarrow"],"right_color":"orange","left_color":"lightblue","left_mu":40,"right_mu":20,"left_numbers":[44,41,44,24,42],"right_numbers":[25,20,29,5,29],"points_earned":176,"phase":"task","trial_type":"horizons-task","trial_index":65,"time_elapsed":527876,"internal_node_id":"0.0-61.0","task_version":"0.2"},{"response_times":[530.0949999364093,312.0300000300631,480.03499989863485,752.1300000371411,687.900000018999,247.83500004559755,232.759999926202,191.2500000325963,215.94000002369285,200.32499998342246],"keys_pressed":["rightarrow","leftarrow","leftarrow","rightarrow","rightarrow","rightarrow","rightarrow","rightarrow","rightarrow","rightarrow"],"horizon":10,"forced_choices":["rightarrow","leftarrow","leftarrow","rightarrow"],"right_color":"orange","left_color":"lightblue","left_mu":40,"right_mu":60,"left_numbers":[51,33,48,41,33,43,38,51,52,42],"right_numbers":[50,52,60,65,59,60,62,71,71,54],"points_earned":573,"phase":"task","trial_type":"horizons-task","trial_index":66,"time_elapsed":533229,"internal_node_id":"0.0-62.0","task_version":"0.2"},{"response_times":[506.0199999716133,216.1049999995157,335.72500001173466,432.0050000678748,480.53499998059124],"keys_pressed":["rightarrow","leftarrow","rightarrow","rightarrow","rightarrow"],"horizon":5,"forced_choices":["rightarrow","leftarrow","rightarrow","rightarrow"],"right_color":"lightblue","left_color":"orange","left_mu":40,"right_mu":70,"left_numbers":[33,39,38,49,41],"right_numbers":[77,96,69,87,73],"points_earned":345,"phase":"task","trial_type":"horizons-task","trial_index":67,"time_elapsed":536702,"internal_node_id":"0.0-63.0","task_version":"0.2"},{"response_times":[656.539999996312,456.0899999924004,479.96500006411225,352.03499998897314,880.2799999248236],"keys_pressed":["leftarrow","leftarrow","rightarrow","leftarrow","leftarrow"],"horizon":5,"forced_choices":["leftarrow","leftarrow","rightarrow","leftarrow"],"right_color":"orange","left_color":"lightblue","left_mu":60,"right_mu":68,"left_numbers":[67,46,69,66,57],"right_numbers":[70,70,66,57,71],"points_earned":302,"phase":"task","trial_type":"horizons-task","trial_index":68,"time_elapsed":541029,"internal_node_id":"0.0-64.0","task_version":"0.2"},{"response_times":[706.0549999587238,431.54999997932464,551.6350000398234,408.4700000239536,919.6950000477955,431.86999997124076,455.9700000099838,416.25999996904284,448.0749999638647,191.51500007137656],"keys_pressed":["rightarrow","rightarrow","leftarrow","rightarrow","leftarrow","rightarrow","leftarrow","rightarrow","leftarrow","leftarrow"],"horizon":10,"forced_choices":["rightarrow","rightarrow","leftarrow","rightarrow"],"right_color":"lightblue","left_color":"orange","left_mu":60,"right_mu":40,"left_numbers":[55,56,46,61,55,70,65,64,65,58],"right_numbers":[31,43,25,39,39,48,28,46,48,47],"points_earned":496,"phase":"task","trial_type":"horizons-task","trial_index":69,"time_elapsed":547493,"internal_node_id":"0.0-65.0","task_version":"0.2"},{"response_times":[521.3199999416247,344.0150000387803,575.8899999782443,600.0350000103936,439.9200000334531],"keys_pressed":["rightarrow","leftarrow","leftarrow","leftarrow","rightarrow"],"horizon":5,"forced_choices":["rightarrow","leftarrow","leftarrow","leftarrow"],"right_color":"lightblue","left_color":"orange","left_mu":40,"right_mu":52,"left_numbers":[33,35,25,35,42],"right_numbers":[40,56,42,55,50],"points_earned":185,"phase":"task","trial_type":"horizons-task","trial_index":70,"time_elapsed":551476,"internal_node_id":"0.0-66.0","task_version":"0.2"},{"response_times":[498.2750000199303,567.1199999051169,479.8700000392273,448.219999903813,784.0500000165775,416.01500008255243,455.8149999938905,512.165000080131,767.519999993965,272.715000086464],"keys_pressed":["leftarrow","leftarrow","leftarrow","rightarrow","leftarrow","rightarrow","leftarrow","rightarrow","rightarrow","rightarrow"],"horizon":10,"forced_choices":["leftarrow","leftarrow","leftarrow","rightarrow"],"right_color":"orange","left_color":"lightblue","left_mu":40,"right_mu":36,"left_numbers":[45,45,45,32,40,52,29,38,26,42],"right_numbers":[20,34,25,45,27,38,44,33,24,47],"points_earned":391,"phase":"task","trial_type":"horizons-task","trial_index":71,"time_elapsed":559021,"internal_node_id":"0.0-67.0","task_version":"0.2"},{"response_times":[48488.7550000567,368.4750000247732,391.50000002700835,440.4550000326708,663.5450000176206],"keys_pressed":["leftarrow","rightarrow","rightarrow","leftarrow","rightarrow"],"horizon":5,"forced_choices":["leftarrow","rightarrow","rightarrow","leftarrow"],"right_color":"lightblue","left_color":"orange","left_mu":40,"right_mu":32,"left_numbers":[38,34,37,36,33],"right_numbers":[27,31,36,42,40],"points_earned":181,"phase":"task","trial_type":"horizons-task","trial_index":72,"time_elapsed":610876,"internal_node_id":"0.0-68.0","task_version":"0.2"},{"response_times":[465.9949999768287,352.77499991934747,574.9599999981001,463.89000001363456,336.30999992601573],"keys_pressed":["leftarrow","rightarrow","rightarrow","leftarrow","rightarrow"],"horizon":5,"forced_choices":["leftarrow","rightarrow","rightarrow","leftarrow"],"right_color":"orange","left_color":"lightblue","left_mu":60,"right_mu":68,"left_numbers":[52,46,55,52,48],"right_numbers":[59,62,70,69,64],"points_earned":300,"phase":"task","trial_type":"horizons-task","trial_index":73,"time_elapsed":614572,"internal_node_id":"0.0-69.0","task_version":"0.2"},{"response_times":[490.02499994821846,383.83000006433576,352.0400000270456,335.9700000146404,272.2500000381842],"keys_pressed":["rightarrow","leftarrow","rightarrow","leftarrow","leftarrow"],"horizon":5,"forced_choices":["rightarrow","leftarrow","rightarrow","leftarrow"],"right_color":"orange","left_color":"lightblue","left_mu":40,"right_mu":20,"left_numbers":[45,40,46,48,27],"right_numbers":[29,15,22,22,8],"points_earned":166,"phase":"task","trial_type":"horizons-task","trial_index":74,"time_elapsed":617909,"internal_node_id":"0.0-70.0","task_version":"0.2"},{"response_times":[385.6249999953434,567.9699999745935,311.9550000410527,528.1099999556318,375.6099999882281,696.239999961108,191.81999994907528,200.41000004857779,199.55499994102865,207.96999998856336],"keys_pressed":["leftarrow","leftarrow","rightarrow","rightarrow","leftarrow","leftarrow","leftarrow","leftarrow","leftarrow","leftarrow"],"horizon":10,"forced_choices":["leftarrow","leftarrow","rightarrow","rightarrow"],"right_color":"orange","left_color":"lightblue","left_mu":40,"right_mu":36,"left_numbers":[48,38,45,34,50,49,31,37,41,44],"right_numbers":[40,30,35,35,30,34,45,48,36,34],"points_earned":408,"phase":"task","trial_type":"horizons-task","trial_index":75,"time_elapsed":623076,"internal_node_id":"0.0-71.0","task_version":"0.2"},{"response_times":[396.39999996870756,310.85500004701316,224.00500008370727,359.53000001609325,991.9350000564009,416.1150000290945,215.94000002369285,191.980000003241,239.73999998997897,216.11000003758818],"keys_pressed":["leftarrow","rightarrow","leftarrow","rightarrow","leftarrow","leftarrow","leftarrow","leftarrow","leftarrow","leftarrow"],"horizon":10,"forced_choices":["leftarrow","rightarrow","leftarrow","rightarrow"],"right_color":"lightblue","left_color":"orange","left_mu":40,"right_mu":28,"left_numbers":[30,36,42,37,55,41,29,34,60,30],"right_numbers":[25,37,38,28,28,28,21,12,29,31],"points_earned":386,"phase":"task","trial_type":"horizons-task","trial_index":76,"time_elapsed":628140,"internal_node_id":"0.0-72.0","task_version":"0.2"},{"response_times":[618.4150000335649,360.1299999281764,304.30499999783933,415.62500002328306,767.8499999456108,399.9550000298768,272.4550000857562,183.32499999087304,184.08999999519438,160.40000005159527],"keys_pressed":["rightarrow","leftarrow","rightarrow","leftarrow","rightarrow","leftarrow","leftarrow","leftarrow","leftarrow","leftarrow"],"horizon":10,"forced_choices":["rightarrow","leftarrow","rightarrow","leftarrow"],"right_color":"orange","left_color":"lightblue","left_mu":40,"right_mu":20,"left_numbers":[30,42,41,32,45,40,36,45,39,40],"right_numbers":[38,16,16,22,13,21,4,25,3,25],"points_earned":341,"phase":"task","trial_type":"horizons-task","trial_index":77,"time_elapsed":633308,"internal_node_id":"0.0-73.0","task_version":"0.2"},{"response_times":[754.8599999863654,535.2350000757724,344.0349999582395,536.2200000090525,207.91999995708466,176.03500001132488,175.96499994397163,151.79000003263354,160.03999998793006,143.95499997772276],"keys_pressed":["rightarrow","rightarrow","leftarrow","rightarrow","rightarrow","rightarrow","rightarrow","rightarrow","rightarrow","rightarrow"],"horizon":10,"forced_choices":["rightarrow","rightarrow","leftarrow","rightarrow"],"right_color":"orange","left_color":"lightblue","left_mu":40,"right_mu":60,"left_numbers":[29,36,32,21,43,50,50,38,45,34],"right_numbers":[66,73,74,61,63,81,42,60,60,51],"points_earned":589,"phase":"task","trial_type":"horizons-task","trial_index":78,"time_elapsed":637997,"internal_node_id":"0.0-74.0","task_version":"0.2"},{"response_times":[601.5749999787658,336.0450000036508,255.93999994453043,495.9900000831112,416.1649999441579,247.87500000093132,191.96500000543892,144.06000007875264,175.67499994765967,160.20499996375293],"keys_pressed":["rightarrow","leftarrow","rightarrow","rightarrow","leftarrow","rightarrow","rightarrow","rightarrow","rightarrow","rightarrow"],"horizon":10,"forced_choices":["rightarrow","leftarrow","rightarrow","rightarrow"],"right_color":"lightblue","left_color":"orange","left_mu":40,"right_mu":70,"left_numbers":[62,22,38,38,31,44,33,27,48,51],"right_numbers":[60,66,73,79,73,67,74,78,68,74],"points_earned":626,"phase":"task","trial_type":"horizons-task","trial_index":79,"time_elapsed":642524,"internal_node_id":"0.0-75.0","task_version":"0.2"},{"response_times":[505.87500003166497,383.9350000489503,647.9500000132248,376.4900000533089,415.86999990977347],"keys_pressed":["leftarrow","rightarrow","rightarrow","leftarrow","rightarrow"],"horizon":5,"forced_choices":["leftarrow","rightarrow","rightarrow","leftarrow"],"right_color":"orange","left_color":"lightblue","left_mu":40,"right_mu":48,"left_numbers":[49,56,49,38,34],"right_numbers":[51,48,28,41,41],"points_earned":204,"phase":"task","trial_type":"horizons-task","trial_index":80,"time_elapsed":646357,"internal_node_id":"0.0-76.0","task_version":"0.2"},{"response_times":[817.2950000735,416.2800000049174,312.1650000102818,559.8549999995157,312.11000005714595],"keys_pressed":["leftarrow","rightarrow","leftarrow","rightarrow","leftarrow"],"horizon":5,"forced_choices":["leftarrow","rightarrow","leftarrow","rightarrow"],"right_color":"orange","left_color":"lightblue","left_mu":60,"right_mu":30,"left_numbers":[65,71,57,70,58],"right_numbers":[57,33,37,23,45],"points_earned":236,"phase":"task","trial_type":"horizons-task","trial_index":81,"time_elapsed":650277,"internal_node_id":"0.0-77.0","task_version":"0.2"},{"response_times":[585.1450000191107,655.7100000791252,583.8549999753013,463.7949999887496,312.1899999678135],"keys_pressed":["leftarrow","leftarrow","leftarrow","rightarrow","leftarrow"],"horizon":5,"forced_choices":["leftarrow","leftarrow","leftarrow","rightarrow"],"right_color":"orange","left_color":"lightblue","left_mu":40,"right_mu":36,"left_numbers":[31,47,39,33,36],"right_numbers":[29,45,35,32,35],"points_earned":185,"phase":"task","trial_type":"horizons-task","trial_index":82,"time_elapsed":654381,"internal_node_id":"0.0-78.0","task_version":"0.2"},{"response_times":[530.4849999956787,607.3700000997633,471.96999995503575,888.0000000353903,487.33500007074326],"keys_pressed":["rightarrow","rightarrow","leftarrow","leftarrow","rightarrow"],"horizon":5,"forced_choices":["rightarrow","rightarrow","leftarrow","leftarrow"],"right_color":"lightblue","left_color":"orange","left_mu":40,"right_mu":52,"left_numbers":[57,46,36,42,36],"right_numbers":[51,60,54,60,46],"points_earned":235,"phase":"task","trial_type":"horizons-task","trial_index":83,"time_elapsed":658868,"internal_node_id":"0.0-79.0","task_version":"0.2"},{"response_times":[458.44499999657273,295.769999967888,480.295000015758,760.0699999602512,240.39999989327043],"keys_pressed":["leftarrow","rightarrow","rightarrow","rightarrow","leftarrow"],"horizon":5,"forced_choices":["leftarrow","rightarrow","rightarrow","rightarrow"],"right_color":"orange","left_color":"lightblue","left_mu":60,"right_mu":72,"left_numbers":[43,70,60,61,64],"right_numbers":[78,93,63,79,77],"points_earned":342,"phase":"task","trial_type":"horizons-task","trial_index":84,"time_elapsed":662604,"internal_node_id":"0.0-80.0","task_version":"0.2"},{"response_times":[1817.960000014864,520.7350000273436,478.8249999983236,345.51499993540347,1062.5599999912083,183.91000002156943,200.15499996952713,167.86500008311123,151.70000004582107,160.3350000223145],"keys_pressed":["rightarrow","leftarrow","leftarrow","rightarrow","rightarrow","rightarrow","rightarrow","rightarrow","rightarrow","rightarrow"],"horizon":10,"forced_choices":["rightarrow","leftarrow","leftarrow","rightarrow"],"right_color":"lightblue","left_color":"orange","left_mu":40,"right_mu":70,"left_numbers":[36,43,39,30,42,44,51,44,34,37],"right_numbers":[68,52,55,77,79,68,60,69,67,78],"points_earned":648,"phase":"task","trial_type":"horizons-task","trial_index":85,"time_elapsed":669196,"internal_node_id":"0.0-81.0","task_version":"0.2"},{"response_times":[473.2699999585748,367.8550000768155,296.4900000952184,447.93000002391636,319.8000000556931],"keys_pressed":["leftarrow","rightarrow","leftarrow","leftarrow","rightarrow"],"horizon":5,"forced_choices":["leftarrow","rightarrow","leftarrow","leftarrow"],"right_color":"lightblue","left_color":"orange","left_mu":40,"right_mu":44,"left_numbers":[35,45,48,44,33],"right_numbers":[32,47,33,47,38],"points_earned":212,"phase":"task","trial_type":"horizons-task","trial_index":86,"time_elapsed":672603,"internal_node_id":"0.0-82.0","task_version":"0.2"},{"response_times":[570.1400000834838,335.95000009518117,487.944999942556,552.3850000463426,359.485000022687],"keys_pressed":["rightarrow","leftarrow","leftarrow","rightarrow","leftarrow"],"horizon":5,"forced_choices":["rightarrow","leftarrow","leftarrow","rightarrow"],"right_color":"orange","left_color":"lightblue","left_mu":60,"right_mu":64,"left_numbers":[66,62,64,72,59],"right_numbers":[54,80,54,69,49],"points_earned":308,"phase":"task","trial_type":"horizons-task","trial_index":87,"time_elapsed":676411,"internal_node_id":"0.0-83.0","task_version":"0.2"},{"response_times":[506.7749998997897,327.3050000425428,183.97999997250736,400.37499996833503,207.520000054501,1168.0399999022484,280.06499994080514,175.85500003769994,207.8999999212101,208.14500004053116],"keys_pressed":["leftarrow","rightarrow","leftarrow","rightarrow","leftarrow","leftarrow","leftarrow","leftarrow","leftarrow","leftarrow"],"horizon":10,"forced_choices":["leftarrow","rightarrow","leftarrow","rightarrow"],"right_color":"orange","left_color":"lightblue","left_mu":60,"right_mu":30,"left_numbers":[62,52,54,62,58,77,66,45,56,57],"right_numbers":[39,35,7,31,24,34,26,36,23,39],"points_earned":541,"phase":"task","trial_type":"horizons-task","trial_index":88,"time_elapsed":681580,"internal_node_id":"0.0-84.0","task_version":"0.2"},{"response_times":[721.5999999316409,535.6449999380857,471.84500005096197,263.99500004481524,1320.064999978058,280.73499992024153,279.59499997086823,311.9650000007823,200.14999993145466,207.56000000983477],"keys_pressed":["rightarrow","rightarrow","rightarrow","leftarrow","leftarrow","rightarrow","leftarrow","leftarrow","leftarrow","leftarrow"],"horizon":10,"forced_choices":["rightarrow","rightarrow","rightarrow","leftarrow"],"right_color":"lightblue","left_color":"orange","left_mu":60,"right_mu":56,"left_numbers":[50,54,50,69,65,48,44,63,39,45],"right_numbers":[58,56,58,65,45,48,58,56,57,56],"points_earned":545,"phase":"task","trial_type":"horizons-task","trial_index":89,"time_elapsed":687675,"internal_node_id":"0.0-85.0","task_version":"0.2"},{"response_times":[731.279999949038,422.89000004529953,359.8449999699369,527.959999977611,384.1849999735132,711.5050000138581,584.1999999247491,231.95000004488975,319.870000006631,216.23999997973442],"keys_pressed":["leftarrow","leftarrow","leftarrow","rightarrow","leftarrow","rightarrow","leftarrow","rightarrow","rightarrow","rightarrow"],"horizon":10,"forced_choices":["leftarrow","leftarrow","leftarrow","rightarrow"],"right_color":"orange","left_color":"lightblue","left_mu":40,"right_mu":48,"left_numbers":[41,37,46,32,39,33,30,53,34,53],"right_numbers":[51,38,39,46,58,49,56,47,58,47],"points_earned":440,"phase":"task","trial_type":"horizons-task","trial_index":90,"time_elapsed":693667,"internal_node_id":"0.0-86.0","task_version":"0.2"},{"response_times":[786.2300000851974,328.15499999560416,823.6200000392273,656.2200000043958,447.7800000458956,288.2349999854341,400.0099999830127,919.8700000997633,208.45500007271767,215.54000000469387],"keys_pressed":["rightarrow","leftarrow","leftarrow","rightarrow","leftarrow","rightarrow","rightarrow","rightarrow","rightarrow","rightarrow"],"horizon":10,"forced_choices":["rightarrow","leftarrow","leftarrow","rightarrow"],"right_color":"orange","left_color":"lightblue","left_mu":60,"right_mu":64,"left_numbers":[69,58,51,61,52,46,62,47,59,54],"right_numbers":[61,59,67,65,59,62,64,67,52,70],"points_earned":602,"phase":"task","trial_type":"horizons-task","trial_index":91,"time_elapsed":700244,"internal_node_id":"0.0-87.0","task_version":"0.2"},{"rt":18683.339999988675,"responses":{"age":"18","gender-categorical":"Male","gender-free-response":"","ethnicity":"Not Hispanic or Latino","race":["Asian"],"language":"No","fluency":"Very well"},"survey":"demographics","trial_type":"survey-demo","trial_index":92,"time_elapsed":718930,"internal_node_id":"0.0-88.0","task_version":"0.2"},{"rt":16761.954999994487,"responses":{"difficulty":"5","fun":"4","clarity":"5","strategy":"no","feedback":"no"},"survey":"debrief","trial_type":"survey-debrief","trial_index":93,"time_elapsed":735700,"internal_node_id":"0.0-89.0","task_version":"0.2","interactions":"[{\"event\":\"blur\",\"trial\":71,\"time\":558101},{\"event\":\"focus\",\"trial\":72,\"time\":606358}]"}]