[{"view_history":"[{\"page_index\":0,\"viewing_time\":2542.229999904521}]","rt":2542.824999894947,"trial_type":"instructions","trial_index":0,"time_elapsed":2557,"internal_node_id":"0.0-0.0","task_version":"0.2"},{"item_order":[8,12,4,10,9,5,3,6,1,7,0,11,2],"responses":{"Q09":"1","Q13":"4","Q05":"1","Q11":"2","Q10":"1","Q06":"0","Q04":"3","Q07":"1","Q02":"3","Q08":"2","Q01":"1","Q12":"1","Q03":"0"},"radio_events":[5788.644999964163,10784.274999983609,15082.049999968149,17767.98499992583,20096.199999912642,23147.904999903403,27155.684999888763,30100.619999924675,35518.14999990165,38435.699999914505,43432.039999985136,46516.145000001416,52898.04999995977,55110.36999989301],"key_events":[],"mouse_events":[0.06999995093792677,4812.0799999451265,5788.644999964163,7468.75999995973,10784.274999983609,15082.049999968149,16288.314999896102,17767.98499992583,18930.30499992892,20096.199999912642,23147.904999903403,27155.684999888763,29102.00499999337,29546.065000002272,30100.619999924675,35518.14999990165,37776.074999943376,38435.699999914505,43432.039999985136,46516.145000001416,51306.06499989517,52416.42999998294,52898.04999995977,54727.6449999772,55110.36999989301,56394.57999996375],"rt":56396.82999998331,"survey":"ius12","trial_type":"survey-template","trial_index":1,"time_elapsed":58958,"internal_node_id":"0.0-1.0","task_version":"0.2"},{"item_order":[10,7,1,15,0,5,13,3,6,14,12,11,2,8,9,4],"responses":{"Q11":"2","Q08":"4","Q02":"2","Q16":"5","Q01":"3","Q06":"3","Q14":"1","Q04":"3","Q07":"4","Q15":"2","Q13":"4","Q12":"4","Q03":"4","Q09":"3","Q10":"2","Q05":"3"},"radio_events":[6026.319999946281,9132.100000046194,11476.275000022724,13239.900000044145,15893.9900000114,20392.134999972768,23686.254999949597,27870.009999955073,33513.61000002362,33927.610000013374,34667.93500003405,38665.04500003066,48182.12999997195,51514.04999999795,56975.62000004109,59171.95500002708,62143.904999946244,65671.91000003368,70687.62500002049,75670.10500002652,78261.70000003185],"key_events":[],"mouse_events":[6026.319999946281,8752.355000004172,9132.100000046194,11476.275000022724,13239.900000044145,15893.9900000114,20392.134999972768,23686.254999949597,27870.009999955073,32517.609999980778,32882.07499997225,33197.43499998003,33513.61000002362,33927.610000013374,34667.93500003405,38665.04500003066,48182.12999997195,51514.04999999795,55522.02999999281,56123.82500001695,56975.62000004109,58307.72000004072,59171.95500002708,62143.904999946244,65671.91000003368,70687.62500002049,74199.92499996442,75670.10500002652,78261.70000003185,79364.41499995999],"rt":79367.34999995679,"survey":"nfc","trial_type":"survey-template","trial_index":2,"time_elapsed":138333,"internal_node_id":"0.0-2.0","task_version":"0.2"},{"item_order":[6,3,16,7,0,12,11,14,4,9,5,15,8,1,13,10,2],"responses":{"Q07":"2","Q04":"2","Q17":"0","Q08":"3","Q01":"3","Q13":"2","Q12":"2","Q15":"2","Q05":"3","Q10":"4","Q06":"2","Q16":"3","Q09":"2","Q02":"2","Q14":"2","Q11":"4","Q03":"4"},"radio_events":[5154.974999953993,7107.304999954067,9373.065000050701,48736.69000004884,51021.984999999404,60737.304999958724,63656.820000032894,66200.88500005659,67600.8950000396,79169.19000004418,81396.59500005655,85493.03500005044,87804.89999998827,91743.05000004824,93963.36499997415,95648.56999996118,100305.06000004243,102606.78499995265],"key_events":[],"mouse_events":[3503.0900000128895,5154.974999953993,6037.02000004705,7107.304999954067,8981.254999991506,9373.065000050701,48736.69000004884,50081.194999977015,51021.984999999404,60737.304999958724,63656.820000032894,66200.88500005659,67600.8950000396,79169.19000004418,81396.59500005655,85493.03500005044,87323.30000004731,87804.89999998827,91743.05000004824,93963.36499997415,95648.56999996118,100305.06000004243,102606.78499995265,105703.07000004686],"rt":105705.89500002097,"survey":"pswq","trial_type":"survey-template","trial_index":3,"time_elapsed":244047,"internal_node_id":"0.0-3.0","task_version":"0.2"},{"view_history":"[{\"page_index\":0,\"viewing_time\":3595.270000048913},{\"page_index\":1,\"viewing_time\":4573.86999996379},{\"page_index\":2,\"viewing_time\":7133.74499999918},{\"page_index\":3,\"viewing_time\":14774.289999972098},{\"page_index\":4,\"viewing_time\":5602.030000067316},{\"page_index\":5,\"viewing_time\":3783.729999908246},{\"page_index\":6,\"viewing_time\":8194.250000058673},{\"page_index\":7,\"viewing_time\":8688.52500000503},{\"page_index\":8,\"viewing_time\":10925.849999999627},{\"page_index\":9,\"viewing_time\":6125.374999945052}]","rt":73397.64500001911,"trial_type":"instructions","trial_index":4,"time_elapsed":317449,"internal_node_id":"0.0-4.0-0.0","task_version":"0.2"},{"response_times":[1090.4299999820068,486.72499996609986,358.47500001545995,412.5249999342486,2571.8099999940023],"keys_pressed":["rightarrow","leftarrow","rightarrow","rightarrow","leftarrow"],"horizon":5,"forced_choices":["rightarrow","leftarrow","rightarrow","rightarrow"],"right_color":"lightblue","left_color":"orange","left_mu":40,"right_mu":20,"left_numbers":[36,40,46,47,27],"right_numbers":[15,25,26,43,11],"points_earned":151,"phase":"practice","trial_type":"horizons-task","trial_index":5,"time_elapsed":323880,"internal_node_id":"0.0-4.0-1.0","task_version":"0.2"},{"response_times":[726.4199999626726,569.1099999239668,426.81999993510544,389.64999991003424,590.7450000522658,1998.105000006035,430.30499992892146,342.5200000638142,303.3900000154972,393.5449999989942],"keys_pressed":["leftarrow","leftarrow","rightarrow","rightarrow","leftarrow","rightarrow","rightarrow","rightarrow","rightarrow","rightarrow"],"horizon":10,"forced_choices":["leftarrow","leftarrow","rightarrow","rightarrow"],"right_color":"orange","left_color":"lightblue","left_mu":60,"right_mu":70,"left_numbers":[60,48,57,60,64,63,51,51,66,53],"right_numbers":[80,69,77,74,68,62,66,68,74,67],"points_earned":660,"phase":"practice","trial_type":"horizons-task","trial_index":6,"time_elapsed":331556,"internal_node_id":"0.0-4.0-2.0","task_version":"0.2"},{"view_history":"[{\"page_index\":0,\"viewing_time\":2554.8600000329316},{\"page_index\":1,\"viewing_time\":2082.064999965951},{\"page_index\":2,\"viewing_time\":3778.5600000061095},{\"page_index\":3,\"viewing_time\":2313.425000058487}]","rt":10729.225000017323,"trial_type":"instructions","trial_index":7,"time_elapsed":342286,"internal_node_id":"0.0-4.0-3.0","task_version":"0.2"},{"responses":["true","false","true"],"num_errors":0,"rt":8088.564999983646,"trial_type":"horizons-comprehension","trial_index":8,"time_elapsed":350377,"internal_node_id":"0.0-4.0-4.0","task_version":"0.2"},{"trial_type":"call-function","trial_index":9,"time_elapsed":350383,"internal_node_id":"0.0-5.0","task_version":"0.2"},{"view_history":"[{\"page_index\":0,\"viewing_time\":1070.0700000161305},{\"page_index\":1,\"viewing_time\":2508.3550000563264}]","rt":3578.745000064373,"trial_type":"instructions","trial_index":10,"time_elapsed":353963,"internal_node_id":"0.0-6.0","task_version":"0.2"},{"response_times":[1135.535000008531,903.3749999944121,462.9300000378862,895.4299999168143,1069.334999890998],"keys_pressed":["leftarrow","leftarrow","rightarrow","rightarrow","leftarrow"],"horizon":5,"forced_choices":["leftarrow","leftarrow","rightarrow","rightarrow"],"right_color":"orange","left_color":"lightblue","left_mu":40,"right_mu":48,"left_numbers":[57,46,42,30,38],"right_numbers":[61,52,43,45,53],"points_earned":229,"phase":"task","trial_type":"horizons-task","trial_index":11,"time_elapsed":359936,"internal_node_id":"0.0-7.0","task_version":"0.2"},{"response_times":[757.9299999633804,389.4800000125542,403.1200000317767,403.4549999050796,1444.0350000513718,355.15000007580966,312.6099999062717,285.17499996814877,289.640000090003,367.39999998826534],"keys_pressed":["rightarrow","rightarrow","rightarrow","leftarrow","leftarrow","leftarrow","leftarrow","leftarrow","leftarrow","leftarrow"],"horizon":10,"forced_choices":["rightarrow","rightarrow","rightarrow","leftarrow"],"right_color":"lightblue","left_color":"orange","left_mu":40,"right_mu":36,"left_numbers":[45,49,52,42,40,30,37,37,40,41],"right_numbers":[43,30,35,45,25,25,27,28,35,31],"points_earned":375,"phase":"task","trial_type":"horizons-task","trial_index":12,"time_elapsed":366448,"internal_node_id":"0.0-8.0","task_version":"0.2"},{"response_times":[764.5449999254197,367.73499997798353,505.41499990504235,692.46499997098,1013.5700000682846],"keys_pressed":["leftarrow","rightarrow","rightarrow","leftarrow","leftarrow"],"horizon":5,"forced_choices":["leftarrow","rightarrow","rightarrow","leftarrow"],"right_color":"lightblue","left_color":"orange","left_mu":60,"right_mu":40,"left_numbers":[57,57,72,56,66],"right_numbers":[44,45,38,42,47],"points_earned":262,"phase":"task","trial_type":"horizons-task","trial_index":13,"time_elapsed":371312,"internal_node_id":"0.0-9.0","task_version":"0.2"},{"response_times":[3132.8750000102445,483.3449999568984,679.4750000117347,365.9900000784546,1013.3599999826401],"keys_pressed":["leftarrow","leftarrow","rightarrow","rightarrow","leftarrow"],"horizon":5,"forced_choices":["leftarrow","leftarrow","rightarrow","rightarrow"],"right_color":"lightblue","left_color":"orange","left_mu":60,"right_mu":72,"left_numbers":[69,56,59,63,59],"right_numbers":[71,58,67,70,63],"points_earned":321,"phase":"task","trial_type":"horizons-task","trial_index":14,"time_elapsed":378491,"internal_node_id":"0.0-10.0","task_version":"0.2"},{"response_times":[1139.4449999788776,590.6249999534339,1436.6450000088662,747.1699999878183,2085.7099998975173],"keys_pressed":["leftarrow","rightarrow","leftarrow","leftarrow","rightarrow"],"horizon":5,"forced_choices":["leftarrow","rightarrow","leftarrow","leftarrow"],"right_color":"lightblue","left_color":"orange","left_mu":40,"right_mu":52,"left_numbers":[38,36,33,41,40],"right_numbers":[52,60,53,58,56],"points_earned":228,"phase":"task","trial_type":"horizons-task","trial_index":15,"time_elapsed":385995,"internal_node_id":"0.0-11.0","task_version":"0.2"},{"response_times":[635.4750000173226,382.03999993856996,367.16500006150454,384.37500002328306,684.1499999864027],"keys_pressed":["rightarrow","leftarrow","rightarrow","leftarrow","leftarrow"],"horizon":5,"forced_choices":["rightarrow","leftarrow","rightarrow","leftarrow"],"right_color":"orange","left_color":"lightblue","left_mu":40,"right_mu":32,"left_numbers":[38,40,37,33,57],"right_numbers":[24,38,13,45,28],"points_earned":167,"phase":"task","trial_type":"horizons-task","trial_index":16,"time_elapsed":389952,"internal_node_id":"0.0-12.0","task_version":"0.2"},{"response_times":[519.9149999534711,357.8350000316277,331.37000002898276,395.0050000566989,384.74999996833503,1217.3900000052527,210.76499996706843,204.24499991349876,333.3600000478327,453.5599999362603],"keys_pressed":["leftarrow","rightarrow","leftarrow","leftarrow","leftarrow","leftarrow","leftarrow","leftarrow","leftarrow","leftarrow"],"horizon":10,"forced_choices":["leftarrow","rightarrow","leftarrow","leftarrow"],"right_color":"lightblue","left_color":"orange","left_mu":60,"right_mu":40,"left_numbers":[66,44,77,64,46,64,64,67,71,70],"right_numbers":[35,41,40,37,47,30,41,40,47,40],"points_earned":630,"phase":"task","trial_type":"horizons-task","trial_index":17,"time_elapsed":395865,"internal_node_id":"0.0-13.0","task_version":"0.2"},{"response_times":[562.7999999560416,318.07499995920807,403.96000002510846,331.9449999835342,913.9349999604747],"keys_pressed":["rightarrow","leftarrow","rightarrow","leftarrow","leftarrow"],"horizon":5,"forced_choices":["rightarrow","leftarrow","rightarrow","leftarrow"],"right_color":"lightblue","left_color":"orange","left_mu":40,"right_mu":52,"left_numbers":[31,36,34,41,31],"right_numbers":[38,62,60,63,61],"points_earned":206,"phase":"task","trial_type":"horizons-task","trial_index":18,"time_elapsed":399900,"internal_node_id":"0.0-14.0","task_version":"0.2"},{"response_times":[389.24000004772097,339.7649999242276,370.54999999236315,445.0850000139326,958.9200000045821],"keys_pressed":["rightarrow","leftarrow","rightarrow","rightarrow","rightarrow"],"horizon":5,"forced_choices":["rightarrow","leftarrow","rightarrow","rightarrow"],"right_color":"orange","left_color":"lightblue","left_mu":40,"right_mu":44,"left_numbers":[49,34,39,41,49],"right_numbers":[45,53,32,36,42],"points_earned":189,"phase":"task","trial_type":"horizons-task","trial_index":19,"time_elapsed":403929,"internal_node_id":"0.0-15.0","task_version":"0.2"},{"response_times":[443.11500003095716,306.9649999961257,420.1250000623986,423.48500003572553,568.2350000133738,199.87000001128763,167.81999997328967,146.3199999416247,157.74499997496605,478.06500003207475],"keys_pressed":["rightarrow","leftarrow","leftarrow","leftarrow","rightarrow","rightarrow","rightarrow","rightarrow","rightarrow","rightarrow"],"horizon":10,"forced_choices":["rightarrow","leftarrow","leftarrow","leftarrow"],"right_color":"orange","left_color":"lightblue","left_mu":40,"right_mu":70,"left_numbers":[30,54,39,36,45,25,49,44,48,28],"right_numbers":[69,67,70,69,71,58,69,84,74,67],"points_earned":621,"phase":"task","trial_type":"horizons-task","trial_index":20,"time_elapsed":408747,"internal_node_id":"0.0-16.0","task_version":"0.2"},{"response_times":[524.9099999200553,360.40000000502914,338.4599999990314,544.5599999511614,722.8399999439716],"keys_pressed":["leftarrow","leftarrow","rightarrow","leftarrow","rightarrow"],"horizon":5,"forced_choices":["leftarrow","leftarrow","rightarrow","leftarrow"],"right_color":"lightblue","left_color":"orange","left_mu":40,"right_mu":10,"left_numbers":[24,39,43,31,36],"right_numbers":[14,22,10,11,3],"points_earned":107,"phase":"task","trial_type":"horizons-task","trial_index":21,"time_elapsed":412743,"internal_node_id":"0.0-17.0","task_version":"0.2"},{"response_times":[520.4249999951571,306.3700000056997,380.45499997679144,1229.8149999696761,384.52500000130385,190.195000031963,202.6049999985844,175.54500000551343,301.465000025928,428.9949999656528],"keys_pressed":["leftarrow","rightarrow","rightarrow","rightarrow","rightarrow","rightarrow","rightarrow","rightarrow","rightarrow","rightarrow"],"horizon":10,"forced_choices":["leftarrow","rightarrow","rightarrow","rightarrow"],"right_color":"orange","left_color":"lightblue","left_mu":60,"right_mu":80,"left_numbers":[47,61,71,61,66,60,63,75,64,51],"right_numbers":[66,99,79,72,93,68,76,91,90,92],"points_earned":807,"phase":"task","trial_type":"horizons-task","trial_index":22,"time_elapsed":418367,"internal_node_id":"0.0-18.0","task_version":"0.2"},{"response_times":[572.6400000276044,331.44500001799315,596.9000000040978,663.5699999751523,2336.1250000307336,340.7199999783188,250.56499999482185,214.28000007290393,230.11500004213303,330.24000003933907],"keys_pressed":["rightarrow","leftarrow","leftarrow","leftarrow","rightarrow","rightarrow","rightarrow","rightarrow","rightarrow","rightarrow"],"horizon":10,"forced_choices":["rightarrow","leftarrow","leftarrow","leftarrow"],"right_color":"orange","left_color":"lightblue","left_mu":60,"right_mu":90,"left_numbers":[76,43,56,69,64,55,55,57,58,50],"right_numbers":[89,84,76,89,84,91,80,98,99,87],"points_earned":796,"phase":"task","trial_type":"horizons-task","trial_index":23,"time_elapsed":425738,"internal_node_id":"0.0-19.0","task_version":"0.2"},{"response_times":[432.51499999314547,351.7100000753999,390.8100000116974,629.8050000332296,616.2000000476837,339.96999997179955,292.09000000264496,367.87000007461756,323.43999994918704,319.3249999312684],"keys_pressed":["rightarrow","leftarrow","leftarrow","rightarrow","leftarrow","leftarrow","leftarrow","leftarrow","leftarrow","leftarrow"],"horizon":10,"forced_choices":["rightarrow","leftarrow","leftarrow","rightarrow"],"right_color":"lightblue","left_color":"orange","left_mu":40,"right_mu":10,"left_numbers":[27,42,40,35,42,41,25,36,39,49],"right_numbers":[10,0,22,32,20,7,0,25,5,10],"points_earned":356,"phase":"task","trial_type":"horizons-task","trial_index":24,"time_elapsed":431326,"internal_node_id":"0.0-20.0","task_version":"0.2"},{"response_times":[656.5100000007078,379.4050000142306,475.08500004187226,734.2650000937283,1000.4149999003857],"keys_pressed":["rightarrow","rightarrow","leftarrow","leftarrow","leftarrow"],"horizon":5,"forced_choices":["rightarrow","rightarrow","leftarrow","leftarrow"],"right_color":"orange","left_color":"lightblue","left_mu":40,"right_mu":60,"left_numbers":[23,52,21,51,38],"right_numbers":[39,47,58,58,56],"points_earned":196,"phase":"task","trial_type":"horizons-task","trial_index":25,"time_elapsed":436076,"internal_node_id":"0.0-21.0","task_version":"0.2"},{"response_times":[439.69999998807907,315.2649999829009,532.1649999823421,428.7149999290705,1070.739999995567],"keys_pressed":["leftarrow","rightarrow","leftarrow","rightarrow","rightarrow"],"horizon":5,"forced_choices":["leftarrow","rightarrow","leftarrow","rightarrow"],"right_color":"orange","left_color":"lightblue","left_mu":60,"right_mu":56,"left_numbers":[64,66,63,48,65],"right_numbers":[55,59,67,66,46],"points_earned":298,"phase":"task","trial_type":"horizons-task","trial_index":26,"time_elapsed":440366,"internal_node_id":"0.0-22.0","task_version":"0.2"},{"response_times":[621.0999999893829,349.820000003092,306.4200000371784,397.0700000645593,1055.8250000467524,255.69000001996756,209.49000003747642,206.06999995652586,215.8199999248609,319.59500000812113],"keys_pressed":["rightarrow","leftarrow","rightarrow","rightarrow","rightarrow","rightarrow","rightarrow","rightarrow","rightarrow","rightarrow"],"horizon":10,"forced_choices":["rightarrow","leftarrow","rightarrow","rightarrow"],"right_color":"orange","left_color":"lightblue","left_mu":40,"right_mu":44,"left_numbers":[42,35,42,29,35,25,40,45,31,38],"right_numbers":[41,40,38,44,44,28,44,34,41,44],"points_earned":393,"phase":"task","trial_type":"horizons-task","trial_index":27,"time_elapsed":445806,"internal_node_id":"0.0-23.0","task_version":"0.2"},{"response_times":[596.2799999397248,329.5800000196323,619.7800000663847,900.4650000715628,712.0449999347329,242.1950000571087,195.26499998755753,140.72000002488494,171.13500006962568,214.12500005681068],"keys_pressed":["rightarrow","leftarrow","leftarrow","leftarrow","leftarrow","leftarrow","leftarrow","leftarrow","leftarrow","leftarrow"],"horizon":10,"forced_choices":["rightarrow","leftarrow","leftarrow","leftarrow"],"right_color":"lightblue","left_color":"orange","left_mu":60,"right_mu":72,"left_numbers":[60,51,71,59,61,80,62,65,63,53],"right_numbers":[65,60,69,73,77,82,82,67,78,76],"points_earned":630,"phase":"task","trial_type":"horizons-task","trial_index":28,"time_elapsed":451433,"internal_node_id":"0.0-24.0","task_version":"0.2"},{"response_times":[458.030000096187,401.9300000509247,752.8600000077859,610.0850000511855,844.065000070259],"keys_pressed":["rightarrow","leftarrow","leftarrow","rightarrow","leftarrow"],"horizon":5,"forced_choices":["rightarrow","leftarrow","leftarrow","rightarrow"],"right_color":"lightblue","left_color":"orange","left_mu":60,"right_mu":52,"left_numbers":[62,58,60,67,49],"right_numbers":[59,61,59,55,51],"points_earned":281,"phase":"task","trial_type":"horizons-task","trial_index":29,"time_elapsed":456005,"internal_node_id":"0.0-25.0","task_version":"0.2"},{"response_times":[388.85500002652407,386.7649999447167,506.15999998990446,451.77499996498227,1150.5449999822304,302.8449999401346,239.5249999826774,172.9399999603629,142.48000003863126,166.8099999660626],"keys_pressed":["rightarrow","rightarrow","leftarrow","rightarrow","leftarrow","leftarrow","leftarrow","leftarrow","leftarrow","leftarrow"],"horizon":10,"forced_choices":["rightarrow","rightarrow","leftarrow","rightarrow"],"right_color":"lightblue","left_color":"orange","left_mu":60,"right_mu":52,"left_numbers":[61,65,72,48,54,78,71,63,56,66],"right_numbers":[67,41,46,49,46,40,54,40,50,53],"points_earned":617,"phase":"task","trial_type":"horizons-task","trial_index":30,"time_elapsed":461417,"internal_node_id":"0.0-26.0","task_version":"0.2"},{"response_times":[400.22499999031425,367.51000001095235,589.2499999608845,374.62000001687557,503.06999997701496],"keys_pressed":["rightarrow","rightarrow","leftarrow","rightarrow","rightarrow"],"horizon":5,"forced_choices":["rightarrow","rightarrow","leftarrow","rightarrow"],"right_color":"lightblue","left_color":"orange","left_mu":60,"right_mu":64,"left_numbers":[38,64,48,49,60],"right_numbers":[69,67,82,61,55],"points_earned":300,"phase":"task","trial_type":"horizons-task","trial_index":31,"time_elapsed":465156,"internal_node_id":"0.0-27.0","task_version":"0.2"},{"response_times":[353.6300000268966,375.42499997653067,355.35999992862344,529.8450000118464,1238.2399999769405],"keys_pressed":["rightarrow","rightarrow","leftarrow","rightarrow","rightarrow"],"horizon":5,"forced_choices":["rightarrow","rightarrow","leftarrow","rightarrow"],"right_color":"orange","left_color":"lightblue","left_mu":60,"right_mu":56,"left_numbers":[66,68,59,67,60],"right_numbers":[48,59,57,63,60],"points_earned":289,"phase":"task","trial_type":"horizons-task","trial_index":32,"time_elapsed":469512,"internal_node_id":"0.0-28.0","task_version":"0.2"},{"response_times":[423.3900000108406,297.00500005856156,290.4850000049919,410.1850000442937,610.9500000020489],"keys_pressed":["rightarrow","leftarrow","rightarrow","leftarrow","leftarrow"],"horizon":5,"forced_choices":["rightarrow","leftarrow","rightarrow","leftarrow"],"right_color":"lightblue","left_color":"orange","left_mu":60,"right_mu":64,"left_numbers":[57,66,46,63,64],"right_numbers":[62,61,59,66,74],"points_earned":314,"phase":"task","trial_type":"horizons-task","trial_index":33,"time_elapsed":473047,"internal_node_id":"0.0-29.0","task_version":"0.2"},{"response_times":[471.3950000004843,397.3550000227988,318.3799999533221,366.0999999847263,1145.3500000061467,250.03500003367662,198.46500002313405,172.91500000283122,194.54000005498528,333.77999998629093],"keys_pressed":["leftarrow","leftarrow","rightarrow","leftarrow","leftarrow","leftarrow","leftarrow","leftarrow","leftarrow","leftarrow"],"horizon":10,"forced_choices":["leftarrow","leftarrow","rightarrow","leftarrow"],"right_color":"lightblue","left_color":"orange","left_mu":40,"right_mu":10,"left_numbers":[36,52,33,39,31,31,41,47,38,46],"right_numbers":[7,3,1,16,3,15,8,18,2,0],"points_earned":362,"phase":"task","trial_type":"horizons-task","trial_index":34,"time_elapsed":478402,"internal_node_id":"0.0-30.0","task_version":"0.2"},{"response_times":[493.03000001236796,287.1850000228733,564.2150000203401,732.880000025034,1104.9600000260398],"keys_pressed":["leftarrow","rightarrow","rightarrow","rightarrow","rightarrow"],"horizon":5,"forced_choices":["leftarrow","rightarrow","rightarrow","rightarrow"],"right_color":"orange","left_color":"lightblue","left_mu":60,"right_mu":80,"left_numbers":[83,62,72,62,64],"right_numbers":[71,81,72,78,86],"points_earned":400,"phase":"task","trial_type":"horizons-task","trial_index":35,"time_elapsed":483089,"internal_node_id":"0.0-31.0","task_version":"0.2"},{"response_times":[475.0300000887364,347.60500001721084,311.0400000587106,412.7749999752268,795.8949999883771,339.8150000721216,250.71499997284263,187.5400000717491,220.17500002402812,279.2249999474734],"keys_pressed":["rightarrow","rightarrow","leftarrow","leftarrow","leftarrow","leftarrow","leftarrow","leftarrow","leftarrow","leftarrow"],"horizon":10,"forced_choices":["rightarrow","rightarrow","leftarrow","leftarrow"],"right_color":"lightblue","left_color":"orange","left_mu":60,"right_mu":30,"left_numbers":[51,48,67,49,58,56,46,58,48,66],"right_numbers":[28,36,21,21,37,35,34,31,26,26],"points_earned":512,"phase":"task","trial_type":"horizons-task","trial_index":36,"time_elapsed":488214,"internal_node_id":"0.0-32.0","task_version":"0.2"},{"response_times":[438.0850000306964,259.4549999339506,329.0900000138208,354.6349999960512,862.1749999001622,328.56499997433275,184.72500005736947,156.675000092946,158.49000005982816,168.82000002078712],"keys_pressed":["leftarrow","rightarrow","rightarrow","leftarrow","rightarrow","rightarrow","rightarrow","rightarrow","rightarrow","rightarrow"],"horizon":10,"forced_choices":["leftarrow","rightarrow","rightarrow","leftarrow"],"right_color":"orange","left_color":"lightblue","left_mu":40,"right_mu":70,"left_numbers":[33,39,41,38,25,38,37,38,41,36],"right_numbers":[57,69,63,65,61,58,70,54,78,66],"points_earned":590,"phase":"task","trial_type":"horizons-task","trial_index":37,"time_elapsed":492959,"internal_node_id":"0.0-33.0","task_version":"0.2"},{"response_times":[473.4999999636784,255.14499994460493,323.1199999572709,510.62999991700053,507.1250000037253],"keys_pressed":["rightarrow","leftarrow","leftarrow","leftarrow","leftarrow"],"horizon":5,"forced_choices":["rightarrow","leftarrow","leftarrow","leftarrow"],"right_color":"lightblue","left_color":"orange","left_mu":60,"right_mu":72,"left_numbers":[59,73,60,65,64],"right_numbers":[66,70,75,66,85],"points_earned":328,"phase":"task","trial_type":"horizons-task","trial_index":38,"time_elapsed":496535,"internal_node_id":"0.0-34.0","task_version":"0.2"},{"response_times":[428.0049999943003,309.0349999256432,407.465000054799,1080.8349999133497,321.834999951534],"keys_pressed":["rightarrow","leftarrow","rightarrow","rightarrow","leftarrow"],"horizon":5,"forced_choices":["rightarrow","leftarrow","rightarrow","rightarrow"],"right_color":"orange","left_color":"lightblue","left_mu":60,"right_mu":48,"left_numbers":[62,72,76,55,53],"right_numbers":[53,38,38,42,58],"points_earned":258,"phase":"task","trial_type":"horizons-task","trial_index":39,"time_elapsed":500587,"internal_node_id":"0.0-35.0","task_version":"0.2"},{"response_times":[471.69499995652586,249.07499994151294,294.664999935776,390.224999981001,1148.0549999978393,382.76499998755753,317.6099999109283,276.6350000165403,242.5300000468269,812.1200000168756],"keys_pressed":["rightarrow","leftarrow","rightarrow","rightarrow","leftarrow","leftarrow","leftarrow","leftarrow","leftarrow","leftarrow"],"horizon":10,"forced_choices":["rightarrow","leftarrow","rightarrow","rightarrow"],"right_color":"orange","left_color":"lightblue","left_mu":60,"right_mu":48,"left_numbers":[59,60,57,51,54,50,70,59,50,56],"right_numbers":[49,49,43,33,53,48,48,46,42,48],"points_earned":524,"phase":"task","trial_type":"horizons-task","trial_index":40,"time_elapsed":506677,"internal_node_id":"0.0-36.0","task_version":"0.2"},{"response_times":[405.20000003743917,295.8949999883771,374.8150001047179,339.92000005673617,444.6250000037253,1446.585000026971,311.43499992322177,152.04499999526888,150.57499997783452,306.89500004518777],"keys_pressed":["rightarrow","leftarrow","rightarrow","leftarrow","rightarrow","rightarrow","rightarrow","rightarrow","rightarrow","rightarrow"],"horizon":10,"forced_choices":["rightarrow","leftarrow","rightarrow","leftarrow"],"right_color":"lightblue","left_color":"orange","left_mu":40,"right_mu":52,"left_numbers":[54,31,31,34,40,36,34,35,41,33],"right_numbers":[55,54,34,60,52,43,70,41,53,55],"points_earned":468,"phase":"task","trial_type":"horizons-task","trial_index":41,"time_elapsed":512409,"internal_node_id":"0.0-37.0","task_version":"0.2"},{"response_times":[579.509999952279,427.8950000880286,387.6849999651313,539.3400000175461,784.0150000993162,240.94499996863306,218.9350000116974,156.56999999191612,133.6250000167638,177.7449999935925],"keys_pressed":["leftarrow","leftarrow","rightarrow","leftarrow","rightarrow","rightarrow","rightarrow","rightarrow","rightarrow","rightarrow"],"horizon":10,"forced_choices":["leftarrow","leftarrow","rightarrow","leftarrow"],"right_color":"orange","left_color":"lightblue","left_mu":40,"right_mu":48,"left_numbers":[32,39,35,42,31,35,48,39,51,42],"right_numbers":[52,49,54,36,55,51,59,42,44,67],"points_earned":485,"phase":"task","trial_type":"horizons-task","trial_index":42,"time_elapsed":517559,"internal_node_id":"0.0-38.0","task_version":"0.2"},{"response_times":[393.4299999382347,351.95999999996275,726.1400000425056,663.3750000037253,783.1200000364333,195.56999998167157,148.51500000804663,140.28499997220933,142.0550000621006,129.49500000104308],"keys_pressed":["leftarrow","rightarrow","rightarrow","rightarrow","rightarrow","rightarrow","rightarrow","rightarrow","rightarrow","rightarrow"],"horizon":10,"forced_choices":["leftarrow","rightarrow","rightarrow","rightarrow"],"right_color":"orange","left_color":"lightblue","left_mu":40,"right_mu":60,"left_numbers":[58,36,45,47,37,52,34,33,41,46],"right_numbers":[57,66,57,49,58,51,60,61,66,65],"points_earned":591,"phase":"task","trial_type":"horizons-task","trial_index":43,"time_elapsed":522737,"internal_node_id":"0.0-39.0","task_version":"0.2"},{"response_times":[454.1299999691546,260.06999996025115,648.2649999670684,703.2149999868125,1150.1350000035018],"keys_pressed":["leftarrow","rightarrow","rightarrow","rightarrow","rightarrow"],"horizon":5,"forced_choices":["leftarrow","rightarrow","rightarrow","rightarrow"],"right_color":"orange","left_color":"lightblue","left_mu":40,"right_mu":32,"left_numbers":[38,40,35,46,32],"right_numbers":[42,29,37,45,39],"points_earned":188,"phase":"task","trial_type":"horizons-task","trial_index":44,"time_elapsed":527455,"internal_node_id":"0.0-40.0","task_version":"0.2"},{"response_times":[366.93999997805804,386.0000000568107,386.8800000054762,413.6250000447035,867.2950000036508,157.52000000793487,137.78999994974583,137.9799999995157,133.18499992601573,140.3249999275431],"keys_pressed":["leftarrow","leftarrow","rightarrow","rightarrow","rightarrow","rightarrow","rightarrow","rightarrow","rightarrow","rightarrow"],"horizon":10,"forced_choices":["leftarrow","leftarrow","rightarrow","rightarrow"],"right_color":"orange","left_color":"lightblue","left_mu":40,"right_mu":48,"left_numbers":[24,38,36,27,32,36,54,38,36,42],"right_numbers":[60,42,47,50,36,48,52,58,40,34],"points_earned":427,"phase":"task","trial_type":"horizons-task","trial_index":45,"time_elapsed":532086,"internal_node_id":"0.0-41.0","task_version":"0.2"},{"response_times":[841.6349999606609,560.8200000133365,443.56500008143485,687.3599999817088,470.0399999273941,248.7599999876693,194.92499995976686,339.8550000274554,226.70999995898455,246.35000003036112],"keys_pressed":["leftarrow","rightarrow","rightarrow","rightarrow","leftarrow","leftarrow","leftarrow","leftarrow","leftarrow","leftarrow"],"horizon":10,"forced_choices":["leftarrow","rightarrow","rightarrow","rightarrow"],"right_color":"orange","left_color":"lightblue","left_mu":40,"right_mu":32,"left_numbers":[45,32,38,41,29,45,33,42,36,34],"right_numbers":[33,26,38,27,39,41,40,29,32,30],"points_earned":355,"phase":"task","trial_type":"horizons-task","trial_index":46,"time_elapsed":537850,"internal_node_id":"0.0-42.0","task_version":"0.2"},{"response_times":[413.2900000549853,442.6400000229478,366.30499991588295,387.9450000822544,369.33500005397946],"keys_pressed":["rightarrow","rightarrow","leftarrow","rightarrow","rightarrow"],"horizon":5,"forced_choices":["rightarrow","rightarrow","leftarrow","rightarrow"],"right_color":"lightblue","left_color":"orange","left_mu":60,"right_mu":52,"left_numbers":[57,50,34,69,52],"right_numbers":[64,52,49,51,48],"points_earned":249,"phase":"task","trial_type":"horizons-task","trial_index":47,"time_elapsed":541335,"internal_node_id":"0.0-43.0","task_version":"0.2"},{"response_times":[391.86999993398786,376.0649999603629,356.47499992046505,767.1499999705702,489.4899999490008,158.96500006783754,146.53499994892627,122.32500000391155,147.56000007037073,134.57500003278255],"keys_pressed":["rightarrow","rightarrow","leftarrow","rightarrow","rightarrow","rightarrow","rightarrow","rightarrow","rightarrow","rightarrow"],"horizon":10,"forced_choices":["rightarrow","rightarrow","leftarrow","rightarrow"],"right_color":"lightblue","left_color":"orange","left_mu":60,"right_mu":64,"left_numbers":[64,51,60,64,71,44,59,68,64,58],"right_numbers":[67,77,61,67,58,75,57,44,86,71],"points_earned":662,"phase":"task","trial_type":"horizons-task","trial_index":48,"time_elapsed":545935,"internal_node_id":"0.0-44.0","task_version":"0.2"},{"response_times":[467.80999994371086,280.5650000227615,877.6450000004843,487.25999996531755,720.4099999507889],"keys_pressed":["rightarrow","leftarrow","leftarrow","rightarrow","leftarrow"],"horizon":5,"forced_choices":["rightarrow","leftarrow","leftarrow","rightarrow"],"right_color":"lightblue","left_color":"orange","left_mu":40,"right_mu":28,"left_numbers":[42,49,42,36,38],"right_numbers":[7,39,43,31,25],"points_earned":167,"phase":"task","trial_type":"horizons-task","trial_index":49,"time_elapsed":550275,"internal_node_id":"0.0-45.0","task_version":"0.2"},{"response_times":[458.7499999906868,374.0550000220537,367.0200000051409,330.1849999697879,526.2199999997392,162.0450000045821,145.99500002805144,128.65500000771135,144.07999999821186,166.12999991048127],"keys_pressed":["rightarrow","rightarrow","rightarrow","leftarrow","leftarrow","leftarrow","leftarrow","leftarrow","leftarrow","leftarrow"],"horizon":10,"forced_choices":["rightarrow","rightarrow","rightarrow","leftarrow"],"right_color":"lightblue","left_color":"orange","left_mu":40,"right_mu":20,"left_numbers":[35,39,34,40,36,51,47,46,59,46],"right_numbers":[19,13,20,29,13,20,29,22,17,31],"points_earned":377,"phase":"task","trial_type":"horizons-task","trial_index":50,"time_elapsed":554584,"internal_node_id":"0.0-46.0","task_version":"0.2"},{"view_history":"[{\"page_index\":0,\"viewing_time\":3837.0250000152737},{\"page_index\":1,\"viewing_time\":1623.7350000301376}]","rt":5461.164999986067,"trial_type":"instructions","trial_index":51,"time_elapsed":560048,"internal_node_id":"0.0-47.0","task_version":"0.2"},{"response_times":[1286.8149999994785,310.8749999664724,352.9250000137836,841.8949999613687,658.3650000393391,264.12000006530434,327.00500008650124,215.82000004127622,137.86500005517155,159.81999994255602],"keys_pressed":["leftarrow","rightarrow","leftarrow","leftarrow","rightarrow","rightarrow","rightarrow","rightarrow","rightarrow","rightarrow"],"horizon":10,"forced_choices":["leftarrow","rightarrow","leftarrow","leftarrow"],"right_color":"lightblue","left_color":"orange","left_mu":40,"right_mu":52,"left_numbers":[40,53,41,40,16,16,35,37,51,41],"right_numbers":[53,47,62,51,40,45,42,52,55,44],"points_earned":446,"phase":"task","trial_type":"horizons-task","trial_index":52,"time_elapsed":566110,"internal_node_id":"0.0-48.0","task_version":"0.2"},{"response_times":[472.94999996665865,311.48999999277294,446.570000029169,357.94000001624227,527.2699999623001],"keys_pressed":["rightarrow","leftarrow","leftarrow","rightarrow","leftarrow"],"horizon":5,"forced_choices":["rightarrow","leftarrow","leftarrow","rightarrow"],"right_color":"lightblue","left_color":"orange","left_mu":40,"right_mu":20,"left_numbers":[44,38,44,41,35],"right_numbers":[8,21,17,25,19],"points_earned":150,"phase":"task","trial_type":"horizons-task","trial_index":53,"time_elapsed":569729,"internal_node_id":"0.0-49.0","task_version":"0.2"},{"response_times":[386.0049999784678,324.5599999791011,675.2400000113994,413.79999998025596,1108.1249999115244,248.215000028722,171.77500005345792,152.07499999087304,157.14499994646758,157.72500005550683],"keys_pressed":["rightarrow","leftarrow","rightarrow","leftarrow","leftarrow","leftarrow","leftarrow","leftarrow","leftarrow","leftarrow"],"horizon":10,"forced_choices":["rightarrow","leftarrow","rightarrow","leftarrow"],"right_color":"lightblue","left_color":"orange","left_mu":60,"right_mu":64,"left_numbers":[61,70,50,52,62,55,59,82,54,62],"right_numbers":[54,60,65,62,56,63,60,55,70,53],"points_earned":615,"phase":"task","trial_type":"horizons-task","trial_index":54,"time_elapsed":575029,"internal_node_id":"0.0-50.0","task_version":"0.2"},{"response_times":[335.3199999546632,346.34000004734844,470.83000000566244,535.2049999637529,382.94000003952533,311.3799999700859,170.4949999693781,121.86499999370426,302.71499999798834,161.87499999068677],"keys_pressed":["rightarrow","leftarrow","leftarrow","rightarrow","leftarrow","leftarrow","leftarrow","leftarrow","leftarrow","leftarrow"],"horizon":10,"forced_choices":["rightarrow","leftarrow","leftarrow","rightarrow"],"right_color":"lightblue","left_color":"orange","left_mu":40,"right_mu":20,"left_numbers":[45,39,47,63,34,38,27,32,39,40],"right_numbers":[27,16,8,23,24,12,31,39,22,40],"points_earned":346,"phase":"task","trial_type":"horizons-task","trial_index":55,"time_elapsed":579672,"internal_node_id":"0.0-51.0","task_version":"0.2"},{"response_times":[419.4300000090152,403.17000006325543,376.1299999896437,420.21499993279576,346.95999999530613],"keys_pressed":["rightarrow","rightarrow","leftarrow","leftarrow","leftarrow"],"horizon":5,"forced_choices":["rightarrow","rightarrow","leftarrow","leftarrow"],"right_color":"lightblue","left_color":"orange","left_mu":60,"right_mu":30,"left_numbers":[61,64,67,71,74],"right_numbers":[46,39,23,39,12],"points_earned":297,"phase":"task","trial_type":"horizons-task","trial_index":56,"time_elapsed":583141,"internal_node_id":"0.0-52.0","task_version":"0.2"},{"response_times":[376.39500002842396,358.30999992322177,312.099999981001,577.860000077635,1742.8100000834092,265.66499995533377,206.78999996744096,154.42999999504536,155.46000003814697,148.17499998025596],"keys_pressed":["rightarrow","leftarrow","rightarrow","leftarrow","rightarrow","rightarrow","rightarrow","rightarrow","rightarrow","rightarrow"],"horizon":10,"forced_choices":["rightarrow","leftarrow","rightarrow","leftarrow"],"right_color":"orange","left_color":"lightblue","left_mu":40,"right_mu":32,"left_numbers":[49,58,43,27,47,46,28,39,46,29],"right_numbers":[40,34,48,31,42,34,33,30,38,39],"points_earned":389,"phase":"task","trial_type":"horizons-task","trial_index":57,"time_elapsed":588943,"internal_node_id":"0.0-53.0","task_version":"0.2"},{"response_times":[396.3099999818951,304.6549999853596,443.57500004116446,391.38499996624887,447.8750000707805],"keys_pressed":["leftarrow","rightarrow","rightarrow","leftarrow","rightarrow"],"horizon":5,"forced_choices":["leftarrow","rightarrow","rightarrow","leftarrow"],"right_color":"orange","left_color":"lightblue","left_mu":40,"right_mu":70,"left_numbers":[47,44,54,50,48],"right_numbers":[63,66,69,84,75],"points_earned":307,"phase":"task","trial_type":"horizons-task","trial_index":58,"time_elapsed":592430,"internal_node_id":"0.0-54.0","task_version":"0.2"},{"response_times":[644.5750000420958,602.7750000357628,499.90499997511506,471.3299999712035,1213.3250000188127,173.92999993171543,130.03999995999038,139.16499994229525,144.8700000764802,141.0199999809265],"keys_pressed":["leftarrow","leftarrow","rightarrow","rightarrow","leftarrow","leftarrow","leftarrow","leftarrow","leftarrow","leftarrow"],"horizon":10,"forced_choices":["leftarrow","leftarrow","rightarrow","rightarrow"],"right_color":"lightblue","left_color":"orange","left_mu":40,"right_mu":36,"left_numbers":[50,36,39,34,53,44,27,40,49,32],"right_numbers":[29,30,41,36,24,30,33,39,36,22],"points_earned":408,"phase":"task","trial_type":"horizons-task","trial_index":59,"time_elapsed":598095,"internal_node_id":"0.0-55.0","task_version":"0.2"},{"response_times":[418.16999996080995,288.06000004988164,425.3650000318885,412.999999942258,1768.9450000179932,221.35999996680766,175.56499992497265,139.56499996129423,131.44500006455928,146.695000003092],"keys_pressed":["leftarrow","rightarrow","rightarrow","leftarrow","leftarrow","leftarrow","leftarrow","leftarrow","leftarrow","leftarrow"],"horizon":10,"forced_choices":["leftarrow","rightarrow","rightarrow","leftarrow"],"right_color":"orange","left_color":"lightblue","left_mu":60,"right_mu":68,"left_numbers":[56,54,44,67,59,60,62,51,58,56],"right_numbers":[75,65,59,79,69,62,51,62,67,66],"points_earned":593,"phase":"task","trial_type":"horizons-task","trial_index":60,"time_elapsed":603730,"internal_node_id":"0.0-56.0","task_version":"0.2"},{"response_times":[426.6899999929592,271.0449999431148,323.6699999542907,369.9900000356138,2088.7949999887496,135.50500001292676,136.9900000281632,120.19499996677041,145.699999993667,143.79500003997236],"keys_pressed":["leftarrow","rightarrow","leftarrow","rightarrow","leftarrow","leftarrow","leftarrow","leftarrow","leftarrow","leftarrow"],"horizon":10,"forced_choices":["leftarrow","rightarrow","leftarrow","rightarrow"],"right_color":"orange","left_color":"lightblue","left_mu":60,"right_mu":48,"left_numbers":[49,57,57,44,59,56,68,59,54,50],"right_numbers":[52,51,49,43,42,46,47,29,53,32],"points_earned":546,"phase":"task","trial_type":"horizons-task","trial_index":61,"time_elapsed":609397,"internal_node_id":"0.0-57.0","task_version":"0.2"},{"response_times":[452.63500011060387,401.56499994918704,545.0549999950454,322.2300000488758,853.7099999375641],"keys_pressed":["rightarrow","rightarrow","rightarrow","leftarrow","rightarrow"],"horizon":5,"forced_choices":["rightarrow","rightarrow","rightarrow","leftarrow"],"right_color":"lightblue","left_color":"orange","left_mu":40,"right_mu":36,"left_numbers":[45,45,42,39,37],"right_numbers":[41,35,28,27,42],"points_earned":185,"phase":"task","trial_type":"horizons-task","trial_index":62,"time_elapsed":613494,"internal_node_id":"0.0-58.0","task_version":"0.2"},{"response_times":[366.00499995984137,294.05000002589077,331.5599999623373,362.33499995432794,268.3050000341609],"keys_pressed":["leftarrow","rightarrow","leftarrow","leftarrow","leftarrow"],"horizon":5,"forced_choices":["leftarrow","rightarrow","leftarrow","leftarrow"],"right_color":"lightblue","left_color":"orange","left_mu":60,"right_mu":40,"left_numbers":[64,55,62,61,60],"right_numbers":[40,55,40,49,42],"points_earned":302,"phase":"task","trial_type":"horizons-task","trial_index":63,"time_elapsed":616625,"internal_node_id":"0.0-59.0","task_version":"0.2"},{"response_times":[449.9299998860806,240.17999996431172,655.739999958314,662.2849999694154,268.5449999989942],"keys_pressed":["rightarrow","leftarrow","leftarrow","leftarrow","rightarrow"],"horizon":5,"forced_choices":["rightarrow","leftarrow","leftarrow","leftarrow"],"right_color":"orange","left_color":"lightblue","left_mu":60,"right_mu":90,"left_numbers":[67,55,50,71,59],"right_numbers":[80,102,89,89,83],"points_earned":339,"phase":"task","trial_type":"horizons-task","trial_index":64,"time_elapsed":620406,"internal_node_id":"0.0-60.0","task_version":"0.2"},{"response_times":[416.62999999243766,439.06000000424683,396.5450000250712,388.1549999350682,1306.0700000496581],"keys_pressed":["leftarrow","leftarrow","leftarrow","rightarrow","rightarrow"],"horizon":5,"forced_choices":["leftarrow","leftarrow","leftarrow","rightarrow"],"right_color":"lightblue","left_color":"orange","left_mu":40,"right_mu":28,"left_numbers":[49,39,30,46,57],"right_numbers":[31,36,41,41,17],"points_earned":176,"phase":"task","trial_type":"horizons-task","trial_index":65,"time_elapsed":624857,"internal_node_id":"0.0-61.0","task_version":"0.2"},{"response_times":[416.3399999961257,538.5600000154227,379.7799999592826,399.61500000208616,602.8749999823049,188.61000007018447,165.26999999769032,138.96500004921108,115.31000002287328,147.5249999202788],"keys_pressed":["rightarrow","rightarrow","leftarrow","leftarrow","rightarrow","rightarrow","rightarrow","rightarrow","rightarrow","rightarrow"],"horizon":10,"forced_choices":["rightarrow","rightarrow","leftarrow","leftarrow"],"right_color":"orange","left_color":"lightblue","left_mu":40,"right_mu":60,"left_numbers":[32,36,39,42,41,41,36,39,36,55],"right_numbers":[68,54,68,65,56,52,65,67,61,54],"points_earned":558,"phase":"task","trial_type":"horizons-task","trial_index":66,"time_elapsed":629454,"internal_node_id":"0.0-62.0","task_version":"0.2"},{"response_times":[448.1999999843538,250.1850000116974,441.23999995645136,363.0099999718368,426.2149999849498],"keys_pressed":["rightarrow","leftarrow","leftarrow","rightarrow","leftarrow"],"horizon":5,"forced_choices":["rightarrow","leftarrow","leftarrow","rightarrow"],"right_color":"lightblue","left_color":"orange","left_mu":40,"right_mu":10,"left_numbers":[42,33,34,46,56],"right_numbers":[22,0,6,16,3],"points_earned":161,"phase":"task","trial_type":"horizons-task","trial_index":67,"time_elapsed":632887,"internal_node_id":"0.0-63.0","task_version":"0.2"},{"response_times":[347.01000002678484,270.06000000983477,579.4199999654666,556.1349999625236,365.25000003166497],"keys_pressed":["rightarrow","leftarrow","leftarrow","leftarrow","rightarrow"],"horizon":5,"forced_choices":["rightarrow","leftarrow","leftarrow","leftarrow"],"right_color":"orange","left_color":"lightblue","left_mu":40,"right_mu":70,"left_numbers":[33,32,38,25,34],"right_numbers":[74,74,62,73,73],"points_earned":242,"phase":"task","trial_type":"horizons-task","trial_index":68,"time_elapsed":636508,"internal_node_id":"0.0-64.0","task_version":"0.2"},{"response_times":[393.804999999702,342.0099999057129,418.4850000310689,420.68499990273267,1070.1649999246001],"keys_pressed":["leftarrow","rightarrow","leftarrow","rightarrow","leftarrow"],"horizon":5,"forced_choices":["leftarrow","rightarrow","leftarrow","rightarrow"],"right_color":"orange","left_color":"lightblue","left_mu":60,"right_mu":48,"left_numbers":[58,59,56,58,56],"right_numbers":[41,46,43,53,40],"points_earned":269,"phase":"task","trial_type":"horizons-task","trial_index":69,"time_elapsed":640657,"internal_node_id":"0.0-65.0","task_version":"0.2"},{"response_times":[609.6400000387803,451.54500007629395,1158.7750000180677,594.8649999918416,371.1299999849871],"keys_pressed":["rightarrow","rightarrow","leftarrow","leftarrow","rightarrow"],"horizon":5,"forced_choices":["rightarrow","rightarrow","leftarrow","leftarrow"],"right_color":"orange","left_color":"lightblue","left_mu":60,"right_mu":90,"left_numbers":[45,57,75,57,66],"right_numbers":[87,101,82,90,90],"points_earned":410,"phase":"task","trial_type":"horizons-task","trial_index":70,"time_elapsed":645348,"internal_node_id":"0.0-66.0","task_version":"0.2"},{"response_times":[514.1950000543147,378.90500004868954,1028.2949999673292,413.3600000059232,448.6049999250099],"keys_pressed":["rightarrow","rightarrow","rightarrow","leftarrow","leftarrow"],"horizon":5,"forced_choices":["rightarrow","rightarrow","rightarrow","leftarrow"],"right_color":"lightblue","left_color":"orange","left_mu":40,"right_mu":20,"left_numbers":[41,39,39,55,46],"right_numbers":[23,8,15,18,38],"points_earned":147,"phase":"task","trial_type":"horizons-task","trial_index":71,"time_elapsed":649635,"internal_node_id":"0.0-67.0","task_version":"0.2"},{"response_times":[495.82499999087304,329.62000009138137,367.04000004101545,546.7250000219792,382.30499997735023],"keys_pressed":["leftarrow","rightarrow","rightarrow","leftarrow","leftarrow"],"horizon":5,"forced_choices":["leftarrow","rightarrow","rightarrow","leftarrow"],"right_color":"orange","left_color":"lightblue","left_mu":60,"right_mu":68,"left_numbers":[63,58,64,64,81],"right_numbers":[69,58,56,72,78],"points_earned":322,"phase":"task","trial_type":"horizons-task","trial_index":72,"time_elapsed":653261,"internal_node_id":"0.0-68.0","task_version":"0.2"},{"response_times":[422.7950000204146,313.4049999061972,750.6000000284985,439.84999996609986,608.0150000052527],"keys_pressed":["leftarrow","rightarrow","leftarrow","rightarrow","rightarrow"],"horizon":5,"forced_choices":["leftarrow","rightarrow","leftarrow","rightarrow"],"right_color":"orange","left_color":"lightblue","left_mu":40,"right_mu":44,"left_numbers":[39,31,42,59,52],"right_numbers":[43,51,40,30,47],"points_earned":209,"phase":"task","trial_type":"horizons-task","trial_index":73,"time_elapsed":657300,"internal_node_id":"0.0-69.0","task_version":"0.2"},{"response_times":[507.9799999948591,273.589999997057,339.7150000091642,300.4600000567734,1096.7299999902025,276.24500007368624,227.66000009141862,149.08999996259809,185.2550000185147,292.68499999307096],"keys_pressed":["rightarrow","leftarrow","leftarrow","rightarrow","leftarrow","leftarrow","leftarrow","leftarrow","leftarrow","leftarrow"],"horizon":10,"forced_choices":["rightarrow","leftarrow","leftarrow","rightarrow"],"right_color":"lightblue","left_color":"orange","left_mu":40,"right_mu":28,"left_numbers":[48,34,39,37,35,18,47,54,32,29],"right_numbers":[29,36,31,35,34,19,34,21,40,41],"points_earned":352,"phase":"task","trial_type":"horizons-task","trial_index":74,"time_elapsed":662454,"internal_node_id":"0.0-70.0","task_version":"0.2"},{"response_times":[405.6649999693036,373.0499999364838,383.83000006433576,490.3449999401346,568.0400000419468,183.93000005744398,152.31999999377877,134.6800000173971,123.66499996278435,139.3349999561906],"keys_pressed":["rightarrow","rightarrow","leftarrow","rightarrow","rightarrow","rightarrow","rightarrow","rightarrow","rightarrow","rightarrow"],"horizon":10,"forced_choices":["rightarrow","rightarrow","leftarrow","rightarrow"],"right_color":"orange","left_color":"lightblue","left_mu":60,"right_mu":56,"left_numbers":[75,62,52,61,78,57,67,63,67,69],"right_numbers":[58,39,52,54,50,64,60,55,52,55],"points_earned":539,"phase":"task","trial_type":"horizons-task","trial_index":75,"time_elapsed":666915,"internal_node_id":"0.0-71.0","task_version":"0.2"},{"response_times":[427.060000016354,312.64500005636364,346.5899999719113,541.109999991022,395.52000002004206],"keys_pressed":["leftarrow","leftarrow","rightarrow","leftarrow","rightarrow"],"horizon":5,"forced_choices":["leftarrow","leftarrow","rightarrow","leftarrow"],"right_color":"orange","left_color":"lightblue","left_mu":40,"right_mu":48,"left_numbers":[45,53,39,31,28],"right_numbers":[33,39,65,55,49],"points_earned":243,"phase":"task","trial_type":"horizons-task","trial_index":76,"time_elapsed":670443,"internal_node_id":"0.0-72.0","task_version":"0.2"},{"response_times":[543.6999999219552,403.70000002440065,281.4249999355525,265.79500001389533,266.4299999596551,994.014999945648,253.4250000026077,150.41999996174127,140.91000007465482,140.48499998170882],"keys_pressed":["leftarrow","rightarrow","leftarrow","rightarrow","leftarrow","rightarrow","rightarrow","rightarrow","rightarrow","rightarrow"],"horizon":10,"forced_choices":["leftarrow","rightarrow","leftarrow","rightarrow"],"right_color":"orange","left_color":"lightblue","left_mu":40,"right_mu":44,"left_numbers":[38,33,45,59,44,46,24,47,37,28],"right_numbers":[23,52,36,50,45,59,48,36,30,51],"points_earned":453,"phase":"task","trial_type":"horizons-task","trial_index":77,"time_elapsed":675386,"internal_node_id":"0.0-73.0","task_version":"0.2"},{"response_times":[604.0999999968335,306.11499992664903,455.904999980703,328.63999996334314,942.7099999738857,155.06500005722046,136.11500000115484,146.63500001188368,149.5349999750033,148.64000002853572],"keys_pressed":["rightarrow","leftarrow","leftarrow","rightarrow","leftarrow","leftarrow","leftarrow","leftarrow","leftarrow","leftarrow"],"horizon":10,"forced_choices":["rightarrow","leftarrow","leftarrow","rightarrow"],"right_color":"lightblue","left_color":"orange","left_mu":60,"right_mu":52,"left_numbers":[69,73,61,57,61,67,57,76,68,54],"right_numbers":[47,41,50,31,57,56,36,52,38,53],"points_earned":595,"phase":"task","trial_type":"horizons-task","trial_index":78,"time_elapsed":680265,"internal_node_id":"0.0-74.0","task_version":"0.2"},{"response_times":[468.4550000820309,371.7150000156835,443.8899999950081,390.5250000534579,991.8199999956414,176.9749999511987,123.00499994307756,161.10999998636544,158.38000003714114,141.84499997645617],"keys_pressed":["leftarrow","leftarrow","leftarrow","rightarrow","leftarrow","leftarrow","leftarrow","leftarrow","leftarrow","leftarrow"],"horizon":10,"forced_choices":["leftarrow","leftarrow","leftarrow","rightarrow"],"right_color":"lightblue","left_color":"orange","left_mu":40,"right_mu":28,"left_numbers":[49,45,38,35,48,44,45,45,29,35],"right_numbers":[27,27,36,25,33,40,19,26,15,21],"points_earned":403,"phase":"task","trial_type":"horizons-task","trial_index":79,"time_elapsed":685196,"internal_node_id":"0.0-75.0","task_version":"0.2"},{"response_times":[400.66000004298985,283.8050000136718,382.0500000147149,394.85000004060566,306.42499995883554],"keys_pressed":["leftarrow","rightarrow","leftarrow","rightarrow","rightarrow"],"horizon":5,"forced_choices":["leftarrow","rightarrow","leftarrow","rightarrow"],"right_color":"orange","left_color":"lightblue","left_mu":60,"right_mu":80,"left_numbers":[56,64,58,68,67],"right_numbers":[78,85,75,78,94],"points_earned":371,"phase":"task","trial_type":"horizons-task","trial_index":80,"time_elapsed":688468,"internal_node_id":"0.0-76.0","task_version":"0.2"},{"response_times":[451.0149999987334,360.63500004820526,425.5099999718368,528.8749999599531,442.685000016354,194.84000001102686,113.34999999962747,152.7749999659136,137.95999996364117,136.91000000108033],"keys_pressed":["rightarrow","rightarrow","leftarrow","leftarrow","rightarrow","rightarrow","rightarrow","rightarrow","rightarrow","rightarrow"],"horizon":10,"forced_choices":["rightarrow","rightarrow","leftarrow","leftarrow"],"right_color":"orange","left_color":"lightblue","left_mu":60,"right_mu":90,"left_numbers":[63,62,75,51,59,58,63,74,70,57],"right_numbers":[87,86,87,94,92,87,80,89,81,77],"points_earned":805,"phase":"task","trial_type":"horizons-task","trial_index":81,"time_elapsed":692916,"internal_node_id":"0.0-77.0","task_version":"0.2"},{"response_times":[373.77499998547137,307.12000001221895,393.999999971129,453.2599999802187,557.840000023134,206.44499990157783,157.6999999815598,156.52000007685274,147.35500002279878,149.4099999545142],"keys_pressed":["leftarrow","rightarrow","leftarrow","rightarrow","leftarrow","leftarrow","leftarrow","leftarrow","leftarrow","leftarrow"],"horizon":10,"forced_choices":["leftarrow","rightarrow","leftarrow","rightarrow"],"right_color":"orange","left_color":"lightblue","left_mu":60,"right_mu":56,"left_numbers":[55,59,68,62,57,60,67,62,57,49],"right_numbers":[73,51,61,45,44,67,63,48,54,55],"points_earned":571,"phase":"task","trial_type":"horizons-task","trial_index":82,"time_elapsed":697325,"internal_node_id":"0.0-78.0","task_version":"0.2"},{"response_times":[351.4049999648705,306.62499996833503,353.9399999426678,374.46000007912517,268.2700000004843,167.66000003553927,129.9800000851974,124.14000008720905,171.19000002276152,139.6449999883771],"keys_pressed":["leftarrow","leftarrow","rightarrow","leftarrow","leftarrow","leftarrow","leftarrow","leftarrow","leftarrow","leftarrow"],"horizon":10,"forced_choices":["leftarrow","leftarrow","rightarrow","leftarrow"],"right_color":"lightblue","left_color":"orange","left_mu":60,"right_mu":30,"left_numbers":[63,65,57,57,65,59,61,68,76,65],"right_numbers":[24,41,10,35,41,17,21,12,28,42],"points_earned":589,"phase":"task","trial_type":"horizons-task","trial_index":83,"time_elapsed":701216,"internal_node_id":"0.0-79.0","task_version":"0.2"},{"response_times":[368.2650000555441,368.8300000503659,480.57000001426786,379.9049999797717,669.2950000287965],"keys_pressed":["leftarrow","leftarrow","leftarrow","rightarrow","leftarrow"],"horizon":5,"forced_choices":["leftarrow","leftarrow","leftarrow","rightarrow"],"right_color":"orange","left_color":"lightblue","left_mu":60,"right_mu":68,"left_numbers":[65,76,67,59,58],"right_numbers":[62,62,66,62,54],"points_earned":328,"phase":"task","trial_type":"horizons-task","trial_index":84,"time_elapsed":704986,"internal_node_id":"0.0-80.0","task_version":"0.2"},{"response_times":[332.6950001064688,336.86499996110797,386.2149999476969,395.2799999387935,649.9400000320747,149.87500000279397,141.789999906905,130.22500008810312,142.84500002395362,122.60999996215105],"keys_pressed":["leftarrow","leftarrow","rightarrow","rightarrow","rightarrow","rightarrow","rightarrow","rightarrow","rightarrow","rightarrow"],"horizon":10,"forced_choices":["leftarrow","leftarrow","rightarrow","rightarrow"],"right_color":"lightblue","left_color":"orange","left_mu":60,"right_mu":72,"left_numbers":[48,51,56,71,57,63,54,53,57,56],"right_numbers":[74,62,59,83,76,79,81,70,73,72],"points_earned":692,"phase":"task","trial_type":"horizons-task","trial_index":85,"time_elapsed":709280,"internal_node_id":"0.0-81.0","task_version":"0.2"},{"response_times":[481.83499998413026,307.6549998950213,302.61500005144626,369.04999997932464,530.9649999253452,150.95999999903142,155.12499993201345,125.43999997433275,180.08499999996275,302.375000086613],"keys_pressed":["leftarrow","rightarrow","leftarrow","rightarrow","rightarrow","rightarrow","rightarrow","rightarrow","rightarrow","rightarrow"],"horizon":10,"forced_choices":["leftarrow","rightarrow","leftarrow","rightarrow"],"right_color":"orange","left_color":"lightblue","left_mu":60,"right_mu":80,"left_numbers":[67,65,55,53,67,47,84,61,51,71],"right_numbers":[90,88,72,75,82,95,82,73,89,77],"points_earned":783,"phase":"task","trial_type":"horizons-task","trial_index":86,"time_elapsed":713691,"internal_node_id":"0.0-82.0","task_version":"0.2"},{"response_times":[516.4050000021234,244.99499995727092,498.1649999972433,424.6200000634417,944.9999999487773],"keys_pressed":["leftarrow","rightarrow","rightarrow","rightarrow","rightarrow"],"horizon":5,"forced_choices":["leftarrow","rightarrow","rightarrow","rightarrow"],"right_color":"orange","left_color":"lightblue","left_mu":40,"right_mu":60,"left_numbers":[44,61,46,50,28],"right_numbers":[68,41,55,66,53],"points_earned":259,"phase":"task","trial_type":"horizons-task","trial_index":87,"time_elapsed":717824,"internal_node_id":"0.0-83.0","task_version":"0.2"},{"response_times":[347.9300000471994,270.32000001054257,317.8499999921769,532.5400000438094,391.2550000241026,149.94500007014722,132.75000010617077,143.70000001508743,136.59499993082136,362.77000000700355],"keys_pressed":["leftarrow","rightarrow","rightarrow","leftarrow","leftarrow","leftarrow","leftarrow","leftarrow","leftarrow","leftarrow"],"horizon":10,"forced_choices":["leftarrow","rightarrow","rightarrow","leftarrow"],"right_color":"lightblue","left_color":"orange","left_mu":60,"right_mu":40,"left_numbers":[53,58,56,64,71,61,68,56,61,61],"right_numbers":[45,35,47,47,37,35,48,57,41,26],"points_earned":577,"phase":"task","trial_type":"horizons-task","trial_index":88,"time_elapsed":722116,"internal_node_id":"0.0-84.0","task_version":"0.2"},{"response_times":[498.2349999481812,382.69999995827675,418.33000001497567,481.7949999123812,583.4650000324473],"keys_pressed":["leftarrow","leftarrow","rightarrow","rightarrow","leftarrow"],"horizon":5,"forced_choices":["leftarrow","leftarrow","rightarrow","rightarrow"],"right_color":"lightblue","left_color":"orange","left_mu":40,"right_mu":36,"left_numbers":[36,62,40,43,24],"right_numbers":[27,28,18,34,26],"points_earned":174,"phase":"task","trial_type":"horizons-task","trial_index":89,"time_elapsed":725985,"internal_node_id":"0.0-85.0","task_version":"0.2"},{"response_times":[472.09499997552484,494.4099999265745,388.5299999965355,339.37499998137355,705.3150000283495,272.1099999034777,151.31000010296702,161.24499996658415,157.5899999588728,238.285000086762],"keys_pressed":["leftarrow","leftarrow","leftarrow","rightarrow","rightarrow","rightarrow","rightarrow","rightarrow","rightarrow","rightarrow"],"horizon":10,"forced_choices":["leftarrow","leftarrow","leftarrow","rightarrow"],"right_color":"orange","left_color":"lightblue","left_mu":60,"right_mu":68,"left_numbers":[66,50,74,54,51,56,48,58,64,63],"right_numbers":[68,59,62,58,77,68,61,72,73,74],"points_earned":673,"phase":"task","trial_type":"horizons-task","trial_index":90,"time_elapsed":730870,"internal_node_id":"0.0-86.0","task_version":"0.2"},{"response_times":[522.1350000938401,300.1250000670552,375.09500002488494,538.5800000512972,270.61000000685453],"keys_pressed":["leftarrow","leftarrow","rightarrow","leftarrow","leftarrow"],"horizon":5,"forced_choices":["leftarrow","leftarrow","rightarrow","leftarrow"],"right_color":"lightblue","left_color":"orange","left_mu":60,"right_mu":30,"left_numbers":[54,65,53,61,73],"right_numbers":[29,41,25,4,28],"points_earned":278,"phase":"task","trial_type":"horizons-task","trial_index":91,"time_elapsed":734380,"internal_node_id":"0.0-87.0","task_version":"0.2"},{"rt":12522.1550000133,"responses":{"age":"21","gender-categorical":"Male","gender-free-response":"","ethnicity":"Not Hispanic or Latino","race":["White"],"language":"Yes","fluency":"Very well"},"survey":"demographics","trial_type":"survey-demo","trial_index":92,"time_elapsed":746908,"internal_node_id":"0.0-88.0","task_version":"0.2"},{"rt":33290.3149999911,"responses":{"difficulty":"5","fun":"3","clarity":"5","strategy":"I typically went for the row that had the highest number from the first four options.","feedback":"Have a great day!"},"survey":"debrief","trial_type":"survey-debrief","trial_index":93,"time_elapsed":780204,"internal_node_id":"0.0-89.0","task_version":"0.2","interactions":"[{\"event\":\"blur\",\"trial\":3,\"time\":148614},{\"event\":\"focus\",\"trial\":3,\"time\":181338},{\"event\":\"blur\",\"trial\":3,\"time\":193766},{\"event\":\"focus\",\"trial\":3,\"time\":195196}]"}]