[{"view_history":"[{\"page_index\":0,\"viewing_time\":5169.794999994338}]","rt":5172.094999987166,"trial_type":"instructions","trial_index":0,"time_elapsed":5196,"internal_node_id":"0.0-0.0","task_version":"0.2"},{"item_order":[15,6,13,7,16,2,11,3,12,9,8,5,0,10,4,14,1],"responses":{"Q16":"3","Q07":"1","Q14":"1","Q08":"2","Q17":"0","Q03":"1","Q12":"0","Q04":"1","Q13":"1","Q10":"2","Q09":"2","Q06":"2","Q01":"3","Q11":"1","Q05":"1","Q15":"0","Q02":"0"},"radio_events":[3885.500000033062,8965.529999986757,12413.905000023078,17027.73500001058,21354.47000002023,28054.724999994505,32947.96999997925,45013.695000030566,50463.564999983646,54635.249999992084,58497.06000002334,80155.8049999876,85361.510000017,90751.660000009,100408.49000000162,103359.7900000168,104376.77500001155],"key_events":[],"mouse_events":[0.13499998021870852,3885.500000033062,8965.529999986757,12413.905000023078,17027.73500001058,21354.47000002023,28054.724999994505,32947.96999997925,45013.695000030566,50463.564999983646,54635.249999992084,58497.06000002334,80155.8049999876,85361.510000017,90751.660000009,100408.49000000162,103359.7900000168,104376.77500001155,106540.86000000825],"rt":106550.19999999786,"survey":"pswq","trial_type":"survey-template","trial_index":1,"time_elapsed":111764,"internal_node_id":"0.0-1.0","task_version":"0.2"},{"item_order":[4,0,7,8,9,11,5,3,10,12,1,6,2],"responses":{"Q05":"1","Q01":"1","Q08":"2","Q09":"2","Q10":"0","Q12":"0","Q06":"1","Q04":"2","Q11":"2","Q13":"4","Q02":"2","Q07":"1","Q03":"0"},"radio_events":[7572.150000021793,11939.74000000162,18874.40999998944,23049.975000030827,27039.560000004712,29179.364999989048,35811.60000001546,42915.890000003856,48697.84999999683,53531.10999998171,64936.53499998618,68687.84999998752,70785.22000001976],"key_events":[],"mouse_events":[7572.150000021793,11939.74000000162,18874.40999998944,23049.975000030827,27039.560000004712,29179.364999989048,35811.60000001546,42915.890000003856,47108.43999998178,48697.84999999683,53531.10999998171,64936.53499998618,68687.84999998752,70785.22000001976,71895.08500002557],"rt":71900.97499999683,"survey":"ius12","trial_type":"survey-template","trial_index":2,"time_elapsed":183675,"internal_node_id":"0.0-2.0","task_version":"0.2"},{"item_order":[9,11,14,15,0,3,6,4,10,12,1,8,13,7,2,5],"responses":{"Q10":"0","Q12":"3","Q15":"2","Q16":"5","Q01":"4","Q04":"1","Q07":"5","Q05":"3","Q11":"3","Q13":"3","Q02":"1","Q09":"0","Q14":"1","Q08":"3","Q03":"3","Q06":"4"},"radio_events":[12503.68000002345,17140.004999993835,23808.055000030436,39987.010000040755,48864.34000002919,58276.24999999534,61882.57000001613,68713.77000003122,84866.48999998579,88691.98500004131,97131.48999999976,105109.31500000879,109790.31000001123,118246.96499999845,122304.97500003548,126665.09000002407],"key_events":[],"mouse_events":[12503.68000002345,17140.004999993835,23808.055000030436,39987.010000040755,48864.34000002919,58276.24999999534,61882.57000001613,68713.77000003122,84866.48999998579,88691.98500004131,97131.48999999976,105109.31500000879,109790.31000001123,118246.96499999845,122304.97500003548,126665.09000002407,128889.60500003304],"rt":128898.49500003038,"survey":"nfc","trial_type":"survey-template","trial_index":3,"time_elapsed":312587,"internal_node_id":"0.0-3.0","task_version":"0.2"},{"view_history":"[{\"page_index\":0,\"viewing_time\":7002.924999978859},{\"page_index\":1,\"viewing_time\":4393.14000000013},{\"page_index\":2,\"viewing_time\":9243.190000008326},{\"page_index\":3,\"viewing_time\":14144.005000009201},{\"page_index\":4,\"viewing_time\":5542.469999985769},{\"page_index\":5,\"viewing_time\":3643.205000029411},{\"page_index\":6,\"viewing_time\":6717.275000002701},{\"page_index\":7,\"viewing_time\":8693.044999963604},{\"page_index\":8,\"viewing_time\":10526.765000016894},{\"page_index\":9,\"viewing_time\":10028.164999966975}]","rt":79934.80499996804,"trial_type":"instructions","trial_index":4,"time_elapsed":392524,"internal_node_id":"0.0-4.0-0.0","task_version":"0.2"},{"response_times":[3619.7749999701045,2074.4849999900907,1881.4199999906123,1877.5299999979325,13378.519999969285],"keys_pressed":["rightarrow","leftarrow","rightarrow","rightarrow","rightarrow"],"horizon":5,"forced_choices":["rightarrow","leftarrow","rightarrow","rightarrow"],"right_color":"lightblue","left_color":"orange","left_mu":40,"right_mu":20,"left_numbers":[43,53,37,45,33],"right_numbers":[26,35,26,16,23],"points_earned":144,"phase":"practice","trial_type":"horizons-task","trial_index":5,"time_elapsed":416887,"internal_node_id":"0.0-4.0-1.0","task_version":"0.2"},{"response_times":[2000.1500000362284,896.3549999753013,1093.845000024885,1834.325000003446,4335.019999998622,4070.1150000095367,3983.5300000268035,1330.7849999982864,741.5550000150688,1323.0449999682605],"keys_pressed":["leftarrow","leftarrow","rightarrow","rightarrow","rightarrow","rightarrow","rightarrow","rightarrow","rightarrow","rightarrow"],"horizon":10,"forced_choices":["leftarrow","leftarrow","rightarrow","rightarrow"],"right_color":"orange","left_color":"lightblue","left_mu":60,"right_mu":70,"left_numbers":[53,56,64,53,69,46,54,43,58,50],"right_numbers":[77,59,75,84,65,80,71,69,65,71],"points_earned":689,"phase":"practice","trial_type":"horizons-task","trial_index":6,"time_elapsed":440002,"internal_node_id":"0.0-4.0-2.0","task_version":"0.2"},{"view_history":"[{\"page_index\":0,\"viewing_time\":20859.569999971427},{\"page_index\":1,\"viewing_time\":2684.705000021495},{\"page_index\":2,\"viewing_time\":3181.8549999734387},{\"page_index\":3,\"viewing_time\":2392.939999990631}]","rt":29120.21999998251,"trial_type":"instructions","trial_index":7,"time_elapsed":469124,"internal_node_id":"0.0-4.0-3.0","task_version":"0.2"},{"responses":["true","false","true"],"num_errors":0,"rt":14961.424999986775,"trial_type":"horizons-comprehension","trial_index":8,"time_elapsed":484092,"internal_node_id":"0.0-4.0-4.0","task_version":"0.2"},{"trial_type":"call-function","trial_index":9,"time_elapsed":484101,"internal_node_id":"0.0-5.0","task_version":"0.2"},{"view_history":"[{\"page_index\":0,\"viewing_time\":1582.7900000149384},{\"page_index\":1,\"viewing_time\":9433.029999956489}]","rt":11016.055000014603,"trial_type":"instructions","trial_index":10,"time_elapsed":495118,"internal_node_id":"0.0-6.0","task_version":"0.2"},{"response_times":[3064.375000016298,825.8650000207126,1544.385000015609,1480.0500000128523,2622.38499999512,2021.3100000401028,2482.239999982994,1044.6599999559112,1202.6199999963865,746.5950000332668],"keys_pressed":["rightarrow","rightarrow","leftarrow","leftarrow","rightarrow","rightarrow","rightarrow","rightarrow","rightarrow","rightarrow"],"horizon":10,"forced_choices":["rightarrow","rightarrow","leftarrow","leftarrow"],"right_color":"lightblue","left_color":"orange","left_mu":40,"right_mu":70,"left_numbers":[25,46,32,39,39,42,40,47,33,32],"right_numbers":[75,73,71,83,65,63,85,61,70,60],"points_earned":623,"phase":"task","trial_type":"horizons-task","trial_index":11,"time_elapsed":513662,"internal_node_id":"0.0-7.0","task_version":"0.2"},{"response_times":[3624.7600000351667,946.7450000229292,1375.2800000365824,993.85499994969,13165.99499998847,1442.685000016354,1005.2049999940209,759.2549999826588,589.0500000095926,598.0449999915436],"keys_pressed":["rightarrow","leftarrow","rightarrow","leftarrow","rightarrow","rightarrow","rightarrow","rightarrow","rightarrow","rightarrow"],"horizon":10,"forced_choices":["rightarrow","leftarrow","rightarrow","leftarrow"],"right_color":"lightblue","left_color":"orange","left_mu":40,"right_mu":48,"left_numbers":[34,44,44,48,22,42,37,43,27,45],"right_numbers":[52,47,40,54,53,33,61,57,47,53],"points_earned":488,"phase":"task","trial_type":"horizons-task","trial_index":12,"time_elapsed":539668,"internal_node_id":"0.0-8.0","task_version":"0.2"},{"response_times":[7706.599999975879,1002.2549999994226,854.7900000121444,1833.0450000357814,2648.7949999864213,1773.3050000388175,856.050000002142,757.3250000132248,700.5950000020675,1438.0150000215508],"keys_pressed":["leftarrow","leftarrow","leftarrow","rightarrow","leftarrow","leftarrow","leftarrow","leftarrow","leftarrow","leftarrow"],"horizon":10,"forced_choices":["leftarrow","leftarrow","leftarrow","rightarrow"],"right_color":"lightblue","left_color":"orange","left_mu":60,"right_mu":72,"left_numbers":[62,50,55,69,53,56,49,63,51,53],"right_numbers":[87,72,68,67,84,74,69,66,71,69],"points_earned":559,"phase":"task","trial_type":"horizons-task","trial_index":13,"time_elapsed":560744,"internal_node_id":"0.0-9.0","task_version":"0.2"},{"response_times":[5892.234999977518,1038.7699999846518,876.2499999720603,1635.0450000027195,1777.2100000292994,1739.5700000342913,942.6649999804795,823.2200000202283,416.96000000229105,618.3200000086799],"keys_pressed":["leftarrow","leftarrow","leftarrow","rightarrow","leftarrow","leftarrow","leftarrow","leftarrow","leftarrow","leftarrow"],"horizon":10,"forced_choices":["leftarrow","leftarrow","leftarrow","rightarrow"],"right_color":"orange","left_color":"lightblue","left_mu":60,"right_mu":48,"left_numbers":[71,54,73,47,68,53,55,52,67,56],"right_numbers":[52,45,35,45,41,43,53,46,59,43],"points_earned":594,"phase":"task","trial_type":"horizons-task","trial_index":14,"time_elapsed":578010,"internal_node_id":"0.0-10.0","task_version":"0.2"},{"response_times":[6223.874999966938,1397.1349999774247,2636.2800000351854,4960.885000007693,10061.010000004899],"keys_pressed":["leftarrow","rightarrow","rightarrow","leftarrow","leftarrow"],"horizon":5,"forced_choices":["leftarrow","rightarrow","rightarrow","leftarrow"],"right_color":"orange","left_color":"lightblue","left_mu":40,"right_mu":36,"left_numbers":[33,34,43,33,31],"right_numbers":[33,30,32,36,27],"points_earned":159,"phase":"task","trial_type":"horizons-task","trial_index":15,"time_elapsed":604801,"internal_node_id":"0.0-11.0","task_version":"0.2"},{"response_times":[3010.0100000272505,504.1849999688566,603.9649999584071,640.8149999915622,3148.2299999915995,4275.324999995064,975.9599999524653,702.4649999802932,864.9250000016764,715.8400000189431],"keys_pressed":["leftarrow","rightarrow","leftarrow","rightarrow","leftarrow","leftarrow","leftarrow","leftarrow","leftarrow","leftarrow"],"horizon":10,"forced_choices":["leftarrow","rightarrow","leftarrow","rightarrow"],"right_color":"orange","left_color":"lightblue","left_mu":40,"right_mu":20,"left_numbers":[39,42,33,37,50,47,44,26,48,37],"right_numbers":[2,23,22,25,23,22,22,23,10,19],"points_earned":372,"phase":"task","trial_type":"horizons-task","trial_index":16,"time_elapsed":621749,"internal_node_id":"0.0-12.0","task_version":"0.2"},{"response_times":[1120.2350000385195,453.1800000113435,700.2199999988079,1106.8000000086613,18711.11000003293],"keys_pressed":["rightarrow","leftarrow","rightarrow","rightarrow","leftarrow"],"horizon":5,"forced_choices":["rightarrow","leftarrow","rightarrow","rightarrow"],"right_color":"orange","left_color":"lightblue","left_mu":40,"right_mu":20,"left_numbers":[56,39,45,49,47],"right_numbers":[14,24,9,12,8],"points_earned":121,"phase":"task","trial_type":"horizons-task","trial_index":17,"time_elapsed":645345,"internal_node_id":"0.0-13.0","task_version":"0.2"},{"response_times":[954.9250000272878,434.4550000387244,495.9299999754876,486.77000001771376,2343.860000022687,1201.2899999972433,550.8850000333041,506.68000004952773,559.7749999724329,587.3849999625236],"keys_pressed":["leftarrow","rightarrow","leftarrow","rightarrow","rightarrow","rightarrow","rightarrow","rightarrow","rightarrow","rightarrow"],"horizon":10,"forced_choices":["leftarrow","rightarrow","leftarrow","rightarrow"],"right_color":"orange","left_color":"lightblue","left_mu":60,"right_mu":68,"left_numbers":[55,56,61,65,62,47,55,62,70,55],"right_numbers":[72,63,69,71,65,58,77,75,62,61],"points_earned":648,"phase":"task","trial_type":"horizons-task","trial_index":18,"time_elapsed":654973,"internal_node_id":"0.0-14.0","task_version":"0.2"},{"response_times":[2793.1700000190176,1351.3800000073388,1260.5449999682605,1637.6900000032037,1722.650000010617,1515.6600000336766,984.6950000501238,628.2450000289828,529.1599999764003,672.5450000376441],"keys_pressed":["rightarrow","rightarrow","rightarrow","leftarrow","rightarrow","rightarrow","rightarrow","rightarrow","rightarrow","rightarrow"],"horizon":10,"forced_choices":["rightarrow","rightarrow","rightarrow","leftarrow"],"right_color":"orange","left_color":"lightblue","left_mu":40,"right_mu":36,"left_numbers":[60,31,45,37,32,50,28,48,36,41],"right_numbers":[36,38,40,36,25,42,40,21,36,43],"points_earned":358,"phase":"task","trial_type":"horizons-task","trial_index":19,"time_elapsed":669575,"internal_node_id":"0.0-15.0","task_version":"0.2"},{"response_times":[6865.240000013728,415.82500003278255,1484.6050000051036,609.5000000204891,1220.3300000401214],"keys_pressed":["rightarrow","leftarrow","leftarrow","rightarrow","rightarrow"],"horizon":5,"forced_choices":["rightarrow","leftarrow","leftarrow","rightarrow"],"right_color":"orange","left_color":"lightblue","left_mu":60,"right_mu":90,"left_numbers":[64,63,60,59,60],"right_numbers":[96,96,87,87,101],"points_earned":407,"phase":"task","trial_type":"horizons-task","trial_index":20,"time_elapsed":681676,"internal_node_id":"0.0-16.0","task_version":"0.2"},{"response_times":[814.9950000224635,516.7400000500493,719.7700000251643,652.8050000197254,1847.0500000403263],"keys_pressed":["rightarrow","leftarrow","leftarrow","leftarrow","leftarrow"],"horizon":5,"forced_choices":["rightarrow","leftarrow","leftarrow","leftarrow"],"right_color":"orange","left_color":"lightblue","left_mu":60,"right_mu":56,"left_numbers":[54,54,70,66,65],"right_numbers":[46,53,51,49,63],"points_earned":301,"phase":"task","trial_type":"horizons-task","trial_index":21,"time_elapsed":687732,"internal_node_id":"0.0-17.0","task_version":"0.2"},{"response_times":[723.6450000200421,771.9449999858625,636.594999989029,572.3199999774806,1563.1699999794364],"keys_pressed":["rightarrow","rightarrow","leftarrow","rightarrow","rightarrow"],"horizon":5,"forced_choices":["rightarrow","rightarrow","leftarrow","rightarrow"],"right_color":"orange","left_color":"lightblue","left_mu":60,"right_mu":68,"left_numbers":[67,61,67,43,56],"right_numbers":[67,82,73,65,62],"points_earned":343,"phase":"task","trial_type":"horizons-task","trial_index":22,"time_elapsed":693506,"internal_node_id":"0.0-18.0","task_version":"0.2"},{"response_times":[746.6150000109337,610.8600000152364,542.2699999762699,617.0799999963492,13497.990000003483,1160.9049999970011,743.9549999544397,580.8349999715574,369.4499999983236,494.9400000041351],"keys_pressed":["leftarrow","rightarrow","rightarrow","leftarrow","rightarrow","rightarrow","rightarrow","rightarrow","rightarrow","rightarrow"],"horizon":10,"forced_choices":["leftarrow","rightarrow","rightarrow","leftarrow"],"right_color":"orange","left_color":"lightblue","left_mu":40,"right_mu":44,"left_numbers":[27,30,38,52,38,55,52,30,44,40],"right_numbers":[43,42,48,45,43,50,44,39,51,30],"points_earned":426,"phase":"task","trial_type":"horizons-task","trial_index":23,"time_elapsed":714376,"internal_node_id":"0.0-19.0","task_version":"0.2"},{"response_times":[779.5850000111386,387.1849999995902,527.9199999640696,566.0799999604933,5272.245000000112,832.1900000446476,520.9799999720417,408.98499998729676,575.0100000295788,791.9199999887496],"keys_pressed":["leftarrow","rightarrow","rightarrow","rightarrow","rightarrow","rightarrow","rightarrow","rightarrow","rightarrow","rightarrow"],"horizon":10,"forced_choices":["leftarrow","rightarrow","rightarrow","rightarrow"],"right_color":"lightblue","left_color":"orange","left_mu":40,"right_mu":52,"left_numbers":[35,28,42,43,48,36,36,37,39,36],"right_numbers":[54,46,62,42,58,46,49,62,53,53],"points_earned":506,"phase":"task","trial_type":"horizons-task","trial_index":24,"time_elapsed":726543,"internal_node_id":"0.0-20.0","task_version":"0.2"},{"response_times":[709.3099999474362,653.0799999600276,572.0500000170432,654.2999999946915,2370.7350000040606,1241.4500000304542,590.3650000109337,667.5700000487268,316.32999994326383,445.0000000069849],"keys_pressed":["leftarrow","leftarrow","rightarrow","leftarrow","leftarrow","leftarrow","leftarrow","leftarrow","leftarrow","leftarrow"],"horizon":10,"forced_choices":["leftarrow","leftarrow","rightarrow","leftarrow"],"right_color":"orange","left_color":"lightblue","left_mu":60,"right_mu":30,"left_numbers":[81,70,51,57,58,73,67,57,67,56],"right_numbers":[19,18,16,25,23,30,29,31,36,30],"points_earned":602,"phase":"task","trial_type":"horizons-task","trial_index":25,"time_elapsed":736268,"internal_node_id":"0.0-21.0","task_version":"0.2"},{"response_times":[925.3800000296906,390.8650000230409,497.0299999695271,699.3300000322051,4868.3299999684095],"keys_pressed":["leftarrow","rightarrow","rightarrow","leftarrow","rightarrow"],"horizon":5,"forced_choices":["leftarrow","rightarrow","rightarrow","leftarrow"],"right_color":"orange","left_color":"lightblue","left_mu":40,"right_mu":44,"left_numbers":[36,40,43,33,34],"right_numbers":[49,40,42,52,54],"points_earned":205,"phase":"task","trial_type":"horizons-task","trial_index":26,"time_elapsed":745155,"internal_node_id":"0.0-22.0","task_version":"0.2"},{"response_times":[1101.9300000043586,701.5200000023469,942.284999997355,723.859999969136,6965.75999999186],"keys_pressed":["leftarrow","leftarrow","rightarrow","rightarrow","leftarrow"],"horizon":5,"forced_choices":["leftarrow","leftarrow","rightarrow","rightarrow"],"right_color":"lightblue","left_color":"orange","left_mu":40,"right_mu":28,"left_numbers":[41,40,49,40,43],"right_numbers":[36,25,39,24,20],"points_earned":187,"phase":"task","trial_type":"horizons-task","trial_index":27,"time_elapsed":757095,"internal_node_id":"0.0-23.0","task_version":"0.2"},{"response_times":[2198.030000028666,764.6700000041164,1856.1549999867566,1051.355000003241,3738.7099999468774,602.2499999962747,997.1050000167452,371.4299999992363,624.8400000040419,368.6699999962002],"keys_pressed":["rightarrow","leftarrow","rightarrow","leftarrow","leftarrow","leftarrow","leftarrow","leftarrow","leftarrow","leftarrow"],"horizon":10,"forced_choices":["rightarrow","leftarrow","rightarrow","leftarrow"],"right_color":"orange","left_color":"lightblue","left_mu":60,"right_mu":48,"left_numbers":[45,55,49,65,58,61,68,39,62,57],"right_numbers":[50,45,44,42,51,50,50,41,50,63],"points_earned":559,"phase":"task","trial_type":"horizons-task","trial_index":28,"time_elapsed":771173,"internal_node_id":"0.0-24.0","task_version":"0.2"},{"response_times":[700.2749999519438,831.7449999740347,2492.9600000032224,697.9850000352599,2370.9449999732897],"keys_pressed":["rightarrow","rightarrow","leftarrow","leftarrow","rightarrow"],"horizon":5,"forced_choices":["rightarrow","rightarrow","leftarrow","leftarrow"],"right_color":"lightblue","left_color":"orange","left_mu":40,"right_mu":70,"left_numbers":[51,16,43,39,53],"right_numbers":[58,65,63,83,71],"points_earned":276,"phase":"task","trial_type":"horizons-task","trial_index":29,"time_elapsed":779773,"internal_node_id":"0.0-25.0","task_version":"0.2"},{"response_times":[776.8950000172481,380.8549999957904,528.6849999683909,1637.7750000101514,4275.500000047032],"keys_pressed":["leftarrow","rightarrow","rightarrow","leftarrow","rightarrow"],"horizon":5,"forced_choices":["leftarrow","rightarrow","rightarrow","leftarrow"],"right_color":"lightblue","left_color":"orange","left_mu":40,"right_mu":60,"left_numbers":[35,37,46,47,33],"right_numbers":[51,48,65,57,49],"points_earned":244,"phase":"task","trial_type":"horizons-task","trial_index":30,"time_elapsed":788878,"internal_node_id":"0.0-26.0","task_version":"0.2"},{"response_times":[729.5049999956973,679.2550000245683,547.8299999958836,509.13500000024214,1728.995000012219],"keys_pressed":["rightarrow","rightarrow","leftarrow","rightarrow","rightarrow"],"horizon":5,"forced_choices":["rightarrow","rightarrow","leftarrow","rightarrow"],"right_color":"lightblue","left_color":"orange","left_mu":60,"right_mu":52,"left_numbers":[64,70,68,52,67],"right_numbers":[47,51,47,48,70],"points_earned":284,"phase":"task","trial_type":"horizons-task","trial_index":31,"time_elapsed":794577,"internal_node_id":"0.0-27.0","task_version":"0.2"},{"response_times":[953.6000000080094,809.9599999841303,1744.4649999961257,500.7150000310503,2701.474999950733,996.6150000109337,671.3449999806471,886.9650000124238,355.97000003326684,949.3199999560602],"keys_pressed":["leftarrow","leftarrow","rightarrow","leftarrow","leftarrow","leftarrow","leftarrow","leftarrow","leftarrow","leftarrow"],"horizon":10,"forced_choices":["leftarrow","leftarrow","rightarrow","leftarrow"],"right_color":"orange","left_color":"lightblue","left_mu":60,"right_mu":80,"left_numbers":[69,58,57,64,68,55,65,63,53,70],"right_numbers":[88,85,79,72,84,81,73,74,80,80],"points_earned":644,"phase":"task","trial_type":"horizons-task","trial_index":32,"time_elapsed":806653,"internal_node_id":"0.0-28.0","task_version":"0.2"},{"response_times":[3678.925000014715,488.8700000010431,498.1450000195764,497.12000001454726,1541.075000015553,925.6349999923259,736.4950000192039,722.7600000333041,505.76000002911314,447.9600000195205],"keys_pressed":["rightarrow","rightarrow","leftarrow","rightarrow","rightarrow","rightarrow","rightarrow","rightarrow","rightarrow","rightarrow"],"horizon":10,"forced_choices":["rightarrow","rightarrow","leftarrow","rightarrow"],"right_color":"lightblue","left_color":"orange","left_mu":60,"right_mu":40,"left_numbers":[67,61,49,50,49,64,69,51,56,63],"right_numbers":[41,37,51,54,50,44,36,51,44,49],"points_earned":455,"phase":"task","trial_type":"horizons-task","trial_index":33,"time_elapsed":818201,"internal_node_id":"0.0-29.0","task_version":"0.2"},{"response_times":[562.8000000142492,460.22000000812113,556.4950000261888,544.4900000002235,1809.6999999834225,900.4049999639392,817.8700000280514,816.3400000194088,1238.4849999798462,929.6200000098906],"keys_pressed":["rightarrow","leftarrow","leftarrow","leftarrow","leftarrow","leftarrow","leftarrow","leftarrow","leftarrow","leftarrow"],"horizon":10,"forced_choices":["rightarrow","leftarrow","leftarrow","leftarrow"],"right_color":"orange","left_color":"lightblue","left_mu":60,"right_mu":56,"left_numbers":[62,41,66,53,54,67,54,58,75,49],"right_numbers":[42,57,49,63,60,50,60,44,50,53],"points_earned":559,"phase":"task","trial_type":"horizons-task","trial_index":34,"time_elapsed":828344,"internal_node_id":"0.0-30.0","task_version":"0.2"},{"response_times":[1436.5649999817833,381.7350000026636,784.3299999949522,1436.3299999968149,7942.770000023302],"keys_pressed":["rightarrow","leftarrow","rightarrow","leftarrow","leftarrow"],"horizon":5,"forced_choices":["rightarrow","leftarrow","rightarrow","leftarrow"],"right_color":"lightblue","left_color":"orange","left_mu":40,"right_mu":48,"left_numbers":[35,46,39,59,31],"right_numbers":[53,50,45,44,43],"points_earned":234,"phase":"task","trial_type":"horizons-task","trial_index":35,"time_elapsed":841831,"internal_node_id":"0.0-31.0","task_version":"0.2"},{"response_times":[882.3749999864958,726.9800000358373,705.0399999716319,713.980000000447,1113.4300000267103],"keys_pressed":["leftarrow","leftarrow","leftarrow","rightarrow","leftarrow"],"horizon":5,"forced_choices":["leftarrow","leftarrow","leftarrow","rightarrow"],"right_color":"orange","left_color":"lightblue","left_mu":60,"right_mu":48,"left_numbers":[52,53,56,49,60],"right_numbers":[36,45,43,57,48],"points_earned":278,"phase":"task","trial_type":"horizons-task","trial_index":36,"time_elapsed":847479,"internal_node_id":"0.0-32.0","task_version":"0.2"},{"response_times":[901.6200000187382,516.3199999951757,502.1249999990687,506.519999995362,1763.7850000173785,1784.9849999765866,1180.400000012014,792.539999994915,927.6700000045821,777.1499999798834],"keys_pressed":["leftarrow","leftarrow","rightarrow","rightarrow","rightarrow","rightarrow","rightarrow","rightarrow","rightarrow","rightarrow"],"horizon":10,"forced_choices":["leftarrow","leftarrow","rightarrow","rightarrow"],"right_color":"lightblue","left_color":"orange","left_mu":40,"right_mu":52,"left_numbers":[39,34,31,47,34,45,42,36,37,25],"right_numbers":[55,41,52,54,45,55,48,55,58,51],"points_earned":491,"phase":"task","trial_type":"horizons-task","trial_index":37,"time_elapsed":858637,"internal_node_id":"0.0-33.0","task_version":"0.2"},{"response_times":[841.1199999973178,357.64000000199303,457.4550000252202,675.6500000483356,29233.310000039637],"keys_pressed":["rightarrow","leftarrow","rightarrow","leftarrow","rightarrow"],"horizon":5,"forced_choices":["rightarrow","leftarrow","rightarrow","leftarrow"],"right_color":"orange","left_color":"lightblue","left_mu":60,"right_mu":56,"left_numbers":[53,55,45,60,47],"right_numbers":[63,49,52,55,43],"points_earned":273,"phase":"task","trial_type":"horizons-task","trial_index":38,"time_elapsed":891707,"internal_node_id":"0.0-34.0","task_version":"0.2"},{"response_times":[750.8699999889359,1042.0750000048429,674.2599999997765,1565.4450000147335,2370.4499999876134,1195.735000015702,656.8149999948218,622.0150000299327,632.5049999868497,596.4050000184216],"keys_pressed":["rightarrow","rightarrow","leftarrow","leftarrow","leftarrow","leftarrow","leftarrow","leftarrow","leftarrow","leftarrow"],"horizon":10,"forced_choices":["rightarrow","rightarrow","leftarrow","leftarrow"],"right_color":"orange","left_color":"lightblue","left_mu":60,"right_mu":30,"left_numbers":[51,55,62,54,61,77,59,62,53,62],"right_numbers":[25,24,43,32,42,27,23,41,19,22],"points_earned":539,"phase":"task","trial_type":"horizons-task","trial_index":39,"time_elapsed":903321,"internal_node_id":"0.0-35.0","task_version":"0.2"},{"response_times":[866.0349999554455,569.7649999638088,454.80499998666346,455.03500004997477,2626.329999999143],"keys_pressed":["leftarrow","leftarrow","rightarrow","rightarrow","rightarrow"],"horizon":5,"forced_choices":["leftarrow","leftarrow","rightarrow","rightarrow"],"right_color":"lightblue","left_color":"orange","left_mu":40,"right_mu":52,"left_numbers":[39,46,53,44,56],"right_numbers":[38,52,49,43,50],"points_earned":227,"phase":"task","trial_type":"horizons-task","trial_index":40,"time_elapsed":909797,"internal_node_id":"0.0-36.0","task_version":"0.2"},{"response_times":[570.7750000292435,425.58999999891967,513.9400000334717,781.189999950584,2499.9449999886565],"keys_pressed":["leftarrow","rightarrow","leftarrow","rightarrow","leftarrow"],"horizon":5,"forced_choices":["leftarrow","rightarrow","leftarrow","rightarrow"],"right_color":"lightblue","left_color":"orange","left_mu":60,"right_mu":52,"left_numbers":[59,46,57,59,64],"right_numbers":[57,57,43,46,45],"points_earned":283,"phase":"task","trial_type":"horizons-task","trial_index":41,"time_elapsed":916093,"internal_node_id":"0.0-37.0","task_version":"0.2"},{"response_times":[681.3749999855645,607.8050000360236,997.3549999995157,1406.795000017155,1871.274999983143,4264.445000037085,1221.5000000433065,993.1600000127219,355.50500004319474,623.4899999690242],"keys_pressed":["rightarrow","rightarrow","rightarrow","leftarrow","rightarrow","rightarrow","rightarrow","rightarrow","rightarrow","rightarrow"],"horizon":10,"forced_choices":["rightarrow","rightarrow","rightarrow","leftarrow"],"right_color":"lightblue","left_color":"orange","left_mu":40,"right_mu":32,"left_numbers":[39,39,47,30,49,28,33,50,42,53],"right_numbers":[38,33,36,13,31,41,38,27,26,31],"points_earned":331,"phase":"task","trial_type":"horizons-task","trial_index":42,"time_elapsed":930621,"internal_node_id":"0.0-38.0","task_version":"0.2"},{"response_times":[2949.994999973569,702.019999967888,656.1900000087917,1285.6899999896996,2491.359999985434,702.469999960158,800.0250000040978,440.76500000664964,512.2200000332668,342.74499997263774],"keys_pressed":["rightarrow","rightarrow","leftarrow","leftarrow","leftarrow","leftarrow","leftarrow","leftarrow","leftarrow","leftarrow"],"horizon":10,"forced_choices":["rightarrow","rightarrow","leftarrow","leftarrow"],"right_color":"orange","left_color":"lightblue","left_mu":40,"right_mu":10,"left_numbers":[53,37,58,44,39,37,35,52,40,39],"right_numbers":[9,17,12,6,2,2,0,11,25,2],"points_earned":370,"phase":"task","trial_type":"horizons-task","trial_index":43,"time_elapsed":943011,"internal_node_id":"0.0-39.0","task_version":"0.2"},{"response_times":[718.0349999689497,462.12999999988824,433.04500001249835,386.50000002235174,14588.465000037104],"keys_pressed":["leftarrow","rightarrow","leftarrow","rightarrow","rightarrow"],"horizon":5,"forced_choices":["leftarrow","rightarrow","leftarrow","rightarrow"],"right_color":"orange","left_color":"lightblue","left_mu":60,"right_mu":68,"left_numbers":[63,67,55,63,69],"right_numbers":[74,56,67,64,69],"points_earned":307,"phase":"task","trial_type":"horizons-task","trial_index":44,"time_elapsed":961104,"internal_node_id":"0.0-40.0","task_version":"0.2"},{"response_times":[1098.3449999475852,830.6199999642558,751.1449999874458,652.7499999501742,1769.8800000362098,711.7999999900348,589.3999999971129,764.339999994263,625.7450000266545,430.5649999878369],"keys_pressed":["leftarrow","leftarrow","rightarrow","rightarrow","rightarrow","rightarrow","rightarrow","rightarrow","rightarrow","rightarrow"],"horizon":10,"forced_choices":["leftarrow","leftarrow","rightarrow","rightarrow"],"right_color":"lightblue","left_color":"orange","left_mu":60,"right_mu":72,"left_numbers":[50,60,65,52,70,79,60,63,59,51],"right_numbers":[81,66,81,80,82,69,81,79,76,69],"points_earned":727,"phase":"task","trial_type":"horizons-task","trial_index":45,"time_elapsed":970833,"internal_node_id":"0.0-41.0","task_version":"0.2"},{"response_times":[739.9399999994785,920.9399999817833,787.3300000210293,621.6999999596737,1082.8549999860115],"keys_pressed":["rightarrow","rightarrow","rightarrow","leftarrow","rightarrow"],"horizon":5,"forced_choices":["rightarrow","rightarrow","rightarrow","leftarrow"],"right_color":"orange","left_color":"lightblue","left_mu":40,"right_mu":36,"left_numbers":[32,47,32,32,38],"right_numbers":[31,41,30,48,48],"points_earned":182,"phase":"task","trial_type":"horizons-task","trial_index":46,"time_elapsed":976492,"internal_node_id":"0.0-42.0","task_version":"0.2"},{"response_times":[572.5749999983236,1330.1599999540485,673.5999999800697,516.1699999589473,4809.15000004461,2446.7050000093877,654.8199999961071,378.5500000230968,363.0550000234507,601.9300000043586],"keys_pressed":["rightarrow","leftarrow","leftarrow","rightarrow","leftarrow","leftarrow","leftarrow","leftarrow","leftarrow","leftarrow"],"horizon":10,"forced_choices":["rightarrow","leftarrow","leftarrow","rightarrow"],"right_color":"lightblue","left_color":"orange","left_mu":40,"right_mu":32,"left_numbers":[40,33,31,31,34,48,40,39,37,35],"right_numbers":[31,30,39,22,38,25,35,22,38,36],"points_earned":350,"phase":"task","trial_type":"horizons-task","trial_index":47,"time_elapsed":990344,"internal_node_id":"0.0-43.0","task_version":"0.2"},{"response_times":[656.6749999765307,426.3049999717623,463.96000002278015,458.55999999912456,2303.8999999989755,2189.860000042245,1431.7300000111572,4904.379999963567,2572.5450000027195,781.9500000332482],"keys_pressed":["rightarrow","leftarrow","rightarrow","leftarrow","rightarrow","rightarrow","rightarrow","rightarrow","rightarrow","rightarrow"],"horizon":10,"forced_choices":["rightarrow","leftarrow","rightarrow","leftarrow"],"right_color":"orange","left_color":"lightblue","left_mu":60,"right_mu":56,"left_numbers":[48,51,55,61,48,59,57,57,68,65],"right_numbers":[60,51,63,49,61,73,50,61,54,65],"points_earned":599,"phase":"task","trial_type":"horizons-task","trial_index":48,"time_elapsed":1008039,"internal_node_id":"0.0-44.0","task_version":"0.2"},{"response_times":[627.4799999664538,819.6100000059232,593.3599999989383,4625.694999995176,2691.2049999809824],"keys_pressed":["rightarrow","rightarrow","leftarrow","leftarrow","leftarrow"],"horizon":5,"forced_choices":["rightarrow","rightarrow","leftarrow","leftarrow"],"right_color":"orange","left_color":"lightblue","left_mu":60,"right_mu":30,"left_numbers":[64,54,59,54,52],"right_numbers":[17,23,28,34,31],"points_earned":205,"phase":"task","trial_type":"horizons-task","trial_index":49,"time_elapsed":1018902,"internal_node_id":"0.0-45.0","task_version":"0.2"},{"response_times":[778.9349999511614,1758.7149999453686,2589.719999989029,2077.4300000048243,2587.294999975711],"keys_pressed":["leftarrow","leftarrow","leftarrow","rightarrow","leftarrow"],"horizon":5,"forced_choices":["leftarrow","leftarrow","leftarrow","rightarrow"],"right_color":"lightblue","left_color":"orange","left_mu":60,"right_mu":72,"left_numbers":[66,73,55,53,55],"right_numbers":[77,60,72,61,62],"points_earned":310,"phase":"task","trial_type":"horizons-task","trial_index":50,"time_elapsed":1030200,"internal_node_id":"0.0-46.0","task_version":"0.2"},{"view_history":"[{\"page_index\":0,\"viewing_time\":24493.274999957066},{\"page_index\":1,\"viewing_time\":3734.2200000421144}]","rt":28228.754999989178,"trial_type":"instructions","trial_index":51,"time_elapsed":1058432,"internal_node_id":"0.0-47.0","task_version":"0.2"},{"response_times":[1603.3849999657832,1851.1850000359118,554.6449999674223,1689.4249999895692,11716.974999988452],"keys_pressed":["rightarrow","leftarrow","rightarrow","leftarrow","leftarrow"],"horizon":5,"forced_choices":["rightarrow","leftarrow","rightarrow","leftarrow"],"right_color":"orange","left_color":"lightblue","left_mu":60,"right_mu":48,"left_numbers":[64,54,60,69,68],"right_numbers":[62,49,48,57,60],"points_earned":301,"phase":"task","trial_type":"horizons-task","trial_index":52,"time_elapsed":1077367,"internal_node_id":"0.0-48.0","task_version":"0.2"},{"response_times":[855.4900000453927,388.09500000206754,524.3050000281073,467.00000000419095,6770.134999998845,4603.765000007115,851.8849999527447,1652.71999995457,830.004999996163,963.5549999657087],"keys_pressed":["rightarrow","leftarrow","leftarrow","leftarrow","rightarrow","rightarrow","rightarrow","rightarrow","rightarrow","rightarrow"],"horizon":10,"forced_choices":["rightarrow","leftarrow","leftarrow","leftarrow"],"right_color":"lightblue","left_color":"orange","left_mu":40,"right_mu":70,"left_numbers":[36,41,45,39,44,39,28,26,27,31],"right_numbers":[60,64,66,75,73,80,78,65,80,74],"points_earned":635,"phase":"task","trial_type":"horizons-task","trial_index":53,"time_elapsed":1096779,"internal_node_id":"0.0-49.0","task_version":"0.2"},{"response_times":[1008.6899999878369,419.07000000355765,1099.3799999705516,1043.8999999896623,1467.0350000378676],"keys_pressed":["leftarrow","rightarrow","leftarrow","rightarrow","leftarrow"],"horizon":5,"forced_choices":["leftarrow","rightarrow","leftarrow","rightarrow"],"right_color":"orange","left_color":"lightblue","left_mu":40,"right_mu":20,"left_numbers":[49,55,37,36,37],"right_numbers":[17,12,23,15,19],"points_earned":150,"phase":"task","trial_type":"horizons-task","trial_index":54,"time_elapsed":1103321,"internal_node_id":"0.0-50.0","task_version":"0.2"},{"response_times":[744.0349999815226,446.32499996805564,1107.869999948889,1489.7450000280514,3761.064999969676],"keys_pressed":["rightarrow","rightarrow","leftarrow","rightarrow","leftarrow"],"horizon":5,"forced_choices":["rightarrow","rightarrow","leftarrow","rightarrow"],"right_color":"lightblue","left_color":"orange","left_mu":60,"right_mu":40,"left_numbers":[59,61,63,81,62],"right_numbers":[27,46,50,46,28],"points_earned":244,"phase":"task","trial_type":"horizons-task","trial_index":55,"time_elapsed":1112374,"internal_node_id":"0.0-51.0","task_version":"0.2"},{"response_times":[738.7149999849498,477.9149999958463,515.3500000014901,751.8150000250898,4099.5700000203215],"keys_pressed":["leftarrow","leftarrow","rightarrow","leftarrow","leftarrow"],"horizon":5,"forced_choices":["leftarrow","leftarrow","rightarrow","leftarrow"],"right_color":"lightblue","left_color":"orange","left_mu":40,"right_mu":48,"left_numbers":[47,45,32,44,59],"right_numbers":[49,57,48,33,49],"points_earned":243,"phase":"task","trial_type":"horizons-task","trial_index":56,"time_elapsed":1120462,"internal_node_id":"0.0-52.0","task_version":"0.2"},{"response_times":[573.1449999730103,352.7650000178255,420.6899999990128,1380.440000037197,2488.6249999981374,3995.794999995269,2111.579999967944,548.1699999654666,514.6149999927729,408.72999996645376],"keys_pressed":["leftarrow","rightarrow","leftarrow","leftarrow","leftarrow","leftarrow","rightarrow","leftarrow","leftarrow","leftarrow"],"horizon":10,"forced_choices":["leftarrow","rightarrow","leftarrow","leftarrow"],"right_color":"orange","left_color":"lightblue","left_mu":40,"right_mu":10,"left_numbers":[47,33,42,24,33,45,38,38,47,53],"right_numbers":[12,5,0,0,7,22,7,6,6,15],"points_earned":341,"phase":"task","trial_type":"horizons-task","trial_index":57,"time_elapsed":1134762,"internal_node_id":"0.0-53.0","task_version":"0.2"},{"response_times":[663.8549999915995,637.8050000057556,1411.2300000269897,1143.5700000147335,1193.0050000082701],"keys_pressed":["rightarrow","rightarrow","leftarrow","leftarrow","leftarrow"],"horizon":5,"forced_choices":["rightarrow","rightarrow","leftarrow","leftarrow"],"right_color":"orange","left_color":"lightblue","left_mu":40,"right_mu":10,"left_numbers":[44,43,48,28,25],"right_numbers":[14,0,15,15,15],"points_earned":115,"phase":"task","trial_type":"horizons-task","trial_index":58,"time_elapsed":1141317,"internal_node_id":"0.0-54.0","task_version":"0.2"},{"response_times":[579.3900000280701,372.9400000302121,602.9799999669194,976.3599999714643,2848.3150000101887,2193.0649999994785,5393.32499995362,1854.285000008531,1747.689999989234,1229.8399999854155],"keys_pressed":["rightarrow","leftarrow","leftarrow","rightarrow","rightarrow","leftarrow","leftarrow","leftarrow","rightarrow","leftarrow"],"horizon":10,"forced_choices":["rightarrow","leftarrow","leftarrow","rightarrow"],"right_color":"lightblue","left_color":"orange","left_mu":60,"right_mu":64,"left_numbers":[61,69,62,60,55,61,69,59,59,61],"right_numbers":[70,61,54,60,58,67,57,45,64,65],"points_earned":633,"phase":"task","trial_type":"horizons-task","trial_index":59,"time_elapsed":1160621,"internal_node_id":"0.0-55.0","task_version":"0.2"},{"response_times":[588.9849999803118,394.3050000234507,452.15500000631437,632.0100000011735,4713.709999981802],"keys_pressed":["rightarrow","leftarrow","leftarrow","rightarrow","leftarrow"],"horizon":5,"forced_choices":["rightarrow","leftarrow","leftarrow","rightarrow"],"right_color":"lightblue","left_color":"orange","left_mu":60,"right_mu":40,"left_numbers":[58,57,65,67,61],"right_numbers":[30,43,37,55,44],"points_earned":268,"phase":"task","trial_type":"horizons-task","trial_index":60,"time_elapsed":1168908,"internal_node_id":"0.0-56.0","task_version":"0.2"},{"response_times":[679.3499999912456,479.06500002136454,946.7550000408664,852.6849999907427,1365.2550000115298,2100.124999997206,2223.664999997709,662.7849999931641,638.8349999906495,485.6499999877997],"keys_pressed":["rightarrow","rightarrow","leftarrow","rightarrow","rightarrow","rightarrow","leftarrow","rightarrow","rightarrow","rightarrow"],"horizon":10,"forced_choices":["rightarrow","rightarrow","leftarrow","rightarrow"],"right_color":"orange","left_color":"lightblue","left_mu":60,"right_mu":68,"left_numbers":[60,59,41,67,58,57,51,78,51,46],"right_numbers":[60,75,64,66,64,64,67,60,62,79],"points_earned":622,"phase":"task","trial_type":"horizons-task","trial_index":61,"time_elapsed":1180849,"internal_node_id":"0.0-57.0","task_version":"0.2"},{"response_times":[473.78000000026077,449.8899999889545,727.6850000489503,506.22999999905005,6822.879999992438,655.3049999638461,560.8549999888055,596.0049999994226,453.9550000336021,560.2450000005774],"keys_pressed":["rightarrow","leftarrow","leftarrow","rightarrow","rightarrow","rightarrow","rightarrow","rightarrow","rightarrow","rightarrow"],"horizon":10,"forced_choices":["rightarrow","leftarrow","leftarrow","rightarrow"],"right_color":"orange","left_color":"lightblue","left_mu":60,"right_mu":90,"left_numbers":[60,60,57,72,58,62,66,57,55,59],"right_numbers":[82,83,86,87,80,85,91,91,88,93],"points_earned":814,"phase":"task","trial_type":"horizons-task","trial_index":62,"time_elapsed":1194160,"internal_node_id":"0.0-58.0","task_version":"0.2"},{"response_times":[516.170000017155,324.7650000266731,456.2999999616295,462.7399999881163,2261.9849999900907],"keys_pressed":["rightarrow","leftarrow","leftarrow","rightarrow","leftarrow"],"horizon":5,"forced_choices":["rightarrow","leftarrow","leftarrow","rightarrow"],"right_color":"lightblue","left_color":"orange","left_mu":40,"right_mu":32,"left_numbers":[41,46,38,34,45],"right_numbers":[37,23,32,25,33],"points_earned":191,"phase":"task","trial_type":"horizons-task","trial_index":63,"time_elapsed":1199686,"internal_node_id":"0.0-59.0","task_version":"0.2"},{"response_times":[549.3099999730475,217.33499999390915,750.2999999560416,1598.7249999889173,640.224999981001],"keys_pressed":["rightarrow","leftarrow","leftarrow","rightarrow","rightarrow"],"horizon":5,"forced_choices":["rightarrow","leftarrow","leftarrow","rightarrow"],"right_color":"lightblue","left_color":"orange","left_mu":60,"right_mu":64,"left_numbers":[72,47,44,53,68],"right_numbers":[62,68,70,63,61],"points_earned":277,"phase":"task","trial_type":"horizons-task","trial_index":64,"time_elapsed":1204947,"internal_node_id":"0.0-60.0","task_version":"0.2"},{"response_times":[657.0799999753945,391.1200000438839,432.4449999839999,627.8150000143796,3616.524999961257],"keys_pressed":["rightarrow","leftarrow","leftarrow","leftarrow","rightarrow"],"horizon":5,"forced_choices":["rightarrow","leftarrow","leftarrow","leftarrow"],"right_color":"orange","left_color":"lightblue","left_mu":40,"right_mu":44,"left_numbers":[38,39,45,32,65],"right_numbers":[48,37,46,50,43],"points_earned":207,"phase":"task","trial_type":"horizons-task","trial_index":65,"time_elapsed":1212175,"internal_node_id":"0.0-61.0","task_version":"0.2"},{"response_times":[624.7549999970943,366.5400000172667,402.170000015758,675.4350000410341,8063.320000015665,1666.2500000093132,442.00500001898035,506.17000000784174,703.4449999919161,545.4700000118464],"keys_pressed":["rightarrow","leftarrow","rightarrow","rightarrow","leftarrow","leftarrow","leftarrow","leftarrow","rightarrow","leftarrow"],"horizon":10,"forced_choices":["rightarrow","leftarrow","rightarrow","rightarrow"],"right_color":"orange","left_color":"lightblue","left_mu":40,"right_mu":20,"left_numbers":[33,43,28,32,49,33,33,35,42,37],"right_numbers":[22,42,16,23,25,20,28,21,25,21],"points_earned":316,"phase":"task","trial_type":"horizons-task","trial_index":66,"time_elapsed":1227676,"internal_node_id":"0.0-62.0","task_version":"0.2"},{"response_times":[541.6399999521673,439.24000003607944,455.0399999716319,490.8200000063516,1390.465000004042],"keys_pressed":["rightarrow","rightarrow","rightarrow","leftarrow","leftarrow"],"horizon":5,"forced_choices":["rightarrow","rightarrow","rightarrow","leftarrow"],"right_color":"lightblue","left_color":"orange","left_mu":40,"right_mu":32,"left_numbers":[29,32,44,56,29],"right_numbers":[29,48,39,27,40],"points_earned":201,"phase":"task","trial_type":"horizons-task","trial_index":67,"time_elapsed":1232497,"internal_node_id":"0.0-63.0","task_version":"0.2"},{"response_times":[946.1799999698997,781.9449999951757,736.6349999792874,1035.985000024084,2362.8700000117533,545.8400000352412,620.11999997776,1694.5299999788404,882.6300000073388,530.2450000308454],"keys_pressed":["leftarrow","leftarrow","rightarrow","leftarrow","rightarrow","leftarrow","rightarrow","leftarrow","rightarrow","rightarrow"],"horizon":10,"forced_choices":["leftarrow","leftarrow","rightarrow","leftarrow"],"right_color":"lightblue","left_color":"orange","left_mu":40,"right_mu":48,"left_numbers":[50,30,36,26,41,40,28,28,27,54],"right_numbers":[47,41,48,47,64,46,42,40,51,36],"points_earned":415,"phase":"task","trial_type":"horizons-task","trial_index":68,"time_elapsed":1244139,"internal_node_id":"0.0-64.0","task_version":"0.2"},{"response_times":[490.28500000713393,395.13499999884516,860.99999997532,750.9549999958836,1640.354999981355,692.0950000057928,568.4449999826029,564.2649999936111,528.1100000138395,370.30999996932223],"keys_pressed":["leftarrow","rightarrow","rightarrow","rightarrow","rightarrow","rightarrow","rightarrow","rightarrow","rightarrow","rightarrow"],"horizon":10,"forced_choices":["leftarrow","rightarrow","rightarrow","rightarrow"],"right_color":"orange","left_color":"lightblue","left_mu":60,"right_mu":90,"left_numbers":[54,56,55,66,54,55,60,47,62,51],"right_numbers":[76,86,100,86,91,84,90,82,85,86],"points_earned":844,"phase":"task","trial_type":"horizons-task","trial_index":69,"time_elapsed":1252504,"internal_node_id":"0.0-65.0","task_version":"0.2"},{"response_times":[530.3000000421889,408.59499998623505,496.1500000208616,642.7799999946728,2038.3450000081211],"keys_pressed":["rightarrow","leftarrow","leftarrow","leftarrow","leftarrow"],"horizon":5,"forced_choices":["rightarrow","leftarrow","leftarrow","leftarrow"],"right_color":"lightblue","left_color":"orange","left_mu":40,"right_mu":70,"left_numbers":[46,45,67,31,46],"right_numbers":[60,70,78,78,62],"points_earned":249,"phase":"task","trial_type":"horizons-task","trial_index":70,"time_elapsed":1258126,"internal_node_id":"0.0-66.0","task_version":"0.2"},{"response_times":[527.8849999886006,521.3699999731034,460.5750000337139,645.6750000361353,1552.1849999786355],"keys_pressed":["leftarrow","leftarrow","rightarrow","rightarrow","rightarrow"],"horizon":5,"forced_choices":["leftarrow","leftarrow","rightarrow","rightarrow"],"right_color":"lightblue","left_color":"orange","left_mu":60,"right_mu":72,"left_numbers":[57,61,58,42,59],"right_numbers":[91,60,63,78,75],"points_earned":334,"phase":"task","trial_type":"horizons-task","trial_index":71,"time_elapsed":1263338,"internal_node_id":"0.0-67.0","task_version":"0.2"},{"response_times":[621.5349999838509,489.36999996658415,464.7949999780394,614.7650000057183,1839.574999990873],"keys_pressed":["leftarrow","leftarrow","rightarrow","leftarrow","leftarrow"],"horizon":5,"forced_choices":["leftarrow","leftarrow","rightarrow","leftarrow"],"right_color":"orange","left_color":"lightblue","left_mu":60,"right_mu":30,"left_numbers":[57,52,59,59,71],"right_numbers":[33,25,23,26,26],"points_earned":262,"phase":"task","trial_type":"horizons-task","trial_index":72,"time_elapsed":1268875,"internal_node_id":"0.0-68.0","task_version":"0.2"},{"response_times":[638.3849999983795,331.15499996347353,343.12500001396984,475.3200000268407,1444.234999944456,730.4399999557063,1040.1300000376068,756.7600000184029,733.7249999982305,580.5449999752454],"keys_pressed":["rightarrow","leftarrow","rightarrow","rightarrow","rightarrow","rightarrow","rightarrow","leftarrow","rightarrow","rightarrow"],"horizon":10,"forced_choices":["rightarrow","leftarrow","rightarrow","rightarrow"],"right_color":"lightblue","left_color":"orange","left_mu":40,"right_mu":60,"left_numbers":[50,33,36,38,32,35,46,43,33,55],"right_numbers":[67,57,70,60,55,70,48,55,69,60],"points_earned":575,"phase":"task","trial_type":"horizons-task","trial_index":73,"time_elapsed":1277455,"internal_node_id":"0.0-69.0","task_version":"0.2"},{"response_times":[497.93000001227483,277.32500003185123,469.5499999797903,482.81000001588836,2421.8049999908544,877.8499999898486,987.6100000110455,734.5300000160933,554.2500000447035,836.2799999886192],"keys_pressed":["rightarrow","leftarrow","leftarrow","leftarrow","rightarrow","leftarrow","rightarrow","leftarrow","rightarrow","rightarrow"],"horizon":10,"forced_choices":["rightarrow","leftarrow","leftarrow","leftarrow"],"right_color":"orange","left_color":"lightblue","left_mu":40,"right_mu":44,"left_numbers":[31,45,44,31,43,41,30,33,32,52],"right_numbers":[57,54,37,37,40,35,48,38,40,51],"points_earned":430,"phase":"task","trial_type":"horizons-task","trial_index":74,"time_elapsed":1287101,"internal_node_id":"0.0-70.0","task_version":"0.2"},{"response_times":[545.1300000422634,459.0699999826029,837.9349999595433,1759.0199999976903,1071.5349999954924],"keys_pressed":["leftarrow","rightarrow","rightarrow","rightarrow","rightarrow"],"horizon":5,"forced_choices":["leftarrow","rightarrow","rightarrow","rightarrow"],"right_color":"lightblue","left_color":"orange","left_mu":40,"right_mu":52,"left_numbers":[45,41,35,25,40],"right_numbers":[51,52,50,58,42],"points_earned":247,"phase":"task","trial_type":"horizons-task","trial_index":75,"time_elapsed":1293278,"internal_node_id":"0.0-71.0","task_version":"0.2"},{"response_times":[617.5700000021607,318.10499995481223,405.6599999894388,437.60000000474975,2508.025000046473,1183.149999997113,585.4900000267662,604.7799999942072,274.9750000075437,381.3399999635294],"keys_pressed":["leftarrow","rightarrow","leftarrow","rightarrow","rightarrow","leftarrow","rightarrow","rightarrow","rightarrow","rightarrow"],"horizon":10,"forced_choices":["leftarrow","rightarrow","leftarrow","rightarrow"],"right_color":"orange","left_color":"lightblue","left_mu":60,"right_mu":80,"left_numbers":[58,71,61,57,63,50,59,61,63,56],"right_numbers":[84,93,84,85,69,89,97,89,82,84],"points_earned":768,"phase":"task","trial_type":"horizons-task","trial_index":76,"time_elapsed":1302098,"internal_node_id":"0.0-72.0","task_version":"0.2"},{"response_times":[472.65500004868954,571.1499999742955,686.7249999777414,604.1149999946356,3446.3399999658577,899.6399999596179,848.3299999497831,661.9250000221655,590.2350000105798,505.91000000713393],"keys_pressed":["rightarrow","rightarrow","leftarrow","rightarrow","rightarrow","leftarrow","rightarrow","leftarrow","rightarrow","rightarrow"],"horizon":10,"forced_choices":["rightarrow","rightarrow","leftarrow","rightarrow"],"right_color":"lightblue","left_color":"orange","left_mu":60,"right_mu":52,"left_numbers":[50,57,55,55,66,47,54,48,60,54],"right_numbers":[48,46,56,51,45,37,56,49,58,72],"points_earned":526,"phase":"task","trial_type":"horizons-task","trial_index":77,"time_elapsed":1312889,"internal_node_id":"0.0-73.0","task_version":"0.2"},{"response_times":[558.870000008028,343.59000000404194,417.17999998945743,454.79500002693385,2996.885000029579,959.1399999917485,733.4300000220537,941.6749999509193,572.6300000096671,646.2000000174157],"keys_pressed":["leftarrow","rightarrow","leftarrow","rightarrow","leftarrow","leftarrow","leftarrow","leftarrow","rightarrow","leftarrow"],"horizon":10,"forced_choices":["leftarrow","rightarrow","leftarrow","rightarrow"],"right_color":"lightblue","left_color":"orange","left_mu":60,"right_mu":52,"left_numbers":[55,46,53,50,63,68,69,62,66,64],"right_numbers":[46,50,51,48,39,58,33,41,48,52],"points_earned":580,"phase":"task","trial_type":"horizons-task","trial_index":78,"time_elapsed":1323019,"internal_node_id":"0.0-74.0","task_version":"0.2"},{"response_times":[479.19500002171844,435.89500000234693,429.984999995213,1148.9000000292435,1357.430000032764,1888.2299999822862,668.5300000244752,616.1699999938719,935.50999998115,566.3199999835342],"keys_pressed":["leftarrow","leftarrow","rightarrow","rightarrow","leftarrow","rightarrow","leftarrow","leftarrow","rightarrow","leftarrow"],"horizon":10,"forced_choices":["leftarrow","leftarrow","rightarrow","rightarrow"],"right_color":"lightblue","left_color":"orange","left_mu":40,"right_mu":28,"left_numbers":[43,45,39,39,28,34,41,18,45,46],"right_numbers":[29,34,27,30,25,21,29,29,23,29],"points_earned":322,"phase":"task","trial_type":"horizons-task","trial_index":79,"time_elapsed":1333051,"internal_node_id":"0.0-75.0","task_version":"0.2"},{"response_times":[473.27999997651204,370.6499999971129,526.4350000070408,1023.92999996664,1135.390000010375],"keys_pressed":["leftarrow","rightarrow","rightarrow","rightarrow","rightarrow"],"horizon":5,"forced_choices":["leftarrow","rightarrow","rightarrow","rightarrow"],"right_color":"lightblue","left_color":"orange","left_mu":60,"right_mu":64,"left_numbers":[58,55,60,66,49],"right_numbers":[80,70,59,64,69],"points_earned":320,"phase":"task","trial_type":"horizons-task","trial_index":80,"time_elapsed":1338086,"internal_node_id":"0.0-76.0","task_version":"0.2"},{"response_times":[639.0200000023469,681.0800000093877,534.2100000125356,1523.5099999699742,2177.399999985937],"keys_pressed":["rightarrow","leftarrow","rightarrow","rightarrow","rightarrow"],"horizon":5,"forced_choices":["rightarrow","leftarrow","rightarrow","rightarrow"],"right_color":"lightblue","left_color":"orange","left_mu":40,"right_mu":60,"left_numbers":[37,52,45,42,45],"right_numbers":[57,66,59,53,65],"points_earned":286,"phase":"task","trial_type":"horizons-task","trial_index":81,"time_elapsed":1345144,"internal_node_id":"0.0-77.0","task_version":"0.2"},{"response_times":[497.0249999896623,184.63999999221414,649.2999999900348,932.1650000056252,983.6099999956787],"keys_pressed":["leftarrow","rightarrow","leftarrow","leftarrow","leftarrow"],"horizon":5,"forced_choices":["leftarrow","rightarrow","leftarrow","leftarrow"],"right_color":"orange","left_color":"lightblue","left_mu":40,"right_mu":10,"left_numbers":[37,33,37,46,34],"right_numbers":[2,14,18,19,15],"points_earned":168,"phase":"task","trial_type":"horizons-task","trial_index":82,"time_elapsed":1349896,"internal_node_id":"0.0-78.0","task_version":"0.2"},{"response_times":[461.3849999732338,291.4749999763444,558.5500000161119,613.5350000113249,2165.5899999896064,1181.5000000060536,910.2050000219606,536.3699999870732,465.70999996038154,414.9250000482425],"keys_pressed":["rightarrow","leftarrow","leftarrow","rightarrow","leftarrow","leftarrow","rightarrow","leftarrow","leftarrow","leftarrow"],"horizon":10,"forced_choices":["rightarrow","leftarrow","leftarrow","rightarrow"],"right_color":"lightblue","left_color":"orange","left_mu":60,"right_mu":40,"left_numbers":[84,61,55,67,72,51,62,65,58,63],"right_numbers":[43,50,49,46,51,41,44,44,33,21],"points_earned":558,"phase":"task","trial_type":"horizons-task","trial_index":83,"time_elapsed":1359000,"internal_node_id":"0.0-79.0","task_version":"0.2"},{"response_times":[593.0400000070222,293.53999998420477,447.1950000151992,1044.1349999746308,1552.9199999873526],"keys_pressed":["leftarrow","rightarrow","rightarrow","rightarrow","rightarrow"],"horizon":5,"forced_choices":["leftarrow","rightarrow","rightarrow","rightarrow"],"right_color":"orange","left_color":"lightblue","left_mu":60,"right_mu":90,"left_numbers":[67,62,71,56,69],"right_numbers":[105,103,113,84,93],"points_earned":460,"phase":"task","trial_type":"horizons-task","trial_index":84,"time_elapsed":1364435,"internal_node_id":"0.0-80.0","task_version":"0.2"},{"response_times":[659.6800000406802,621.3049999787472,477.03999996883795,649.6550000156276,674.4799999869429],"keys_pressed":["leftarrow","leftarrow","rightarrow","leftarrow","rightarrow"],"horizon":5,"forced_choices":["leftarrow","leftarrow","rightarrow","leftarrow"],"right_color":"orange","left_color":"lightblue","left_mu":60,"right_mu":80,"left_numbers":[57,52,58,53,60],"right_numbers":[72,90,91,86,68],"points_earned":321,"phase":"task","trial_type":"horizons-task","trial_index":85,"time_elapsed":1369021,"internal_node_id":"0.0-81.0","task_version":"0.2"},{"response_times":[509.74999996833503,447.3200000356883,446.23999996110797,606.8700000178069,601.9549999618903,2691.9850000413135,695.2950000413693,636.144999996759,898.4549999586307,1112.044999958016],"keys_pressed":["leftarrow","rightarrow","leftarrow","leftarrow","rightarrow","leftarrow","leftarrow","leftarrow","leftarrow","rightarrow"],"horizon":10,"forced_choices":["leftarrow","rightarrow","leftarrow","leftarrow"],"right_color":"lightblue","left_color":"orange","left_mu":40,"right_mu":28,"left_numbers":[31,37,33,32,39,43,57,41,22,36],"right_numbers":[24,31,34,29,25,20,31,32,30,29],"points_earned":344,"phase":"task","trial_type":"horizons-task","trial_index":86,"time_elapsed":1379175,"internal_node_id":"0.0-82.0","task_version":"0.2"},{"response_times":[737.8899999894202,363.03499998757616,445.0300000025891,705.7400000048801,1889.629999990575,2147.4250000319444,611.7749999975786,1479.6849999693222,634.7900000400841,456.5599999623373],"keys_pressed":["leftarrow","rightarrow","rightarrow","leftarrow","rightarrow","rightarrow","rightarrow","rightarrow","rightarrow","rightarrow"],"horizon":10,"forced_choices":["leftarrow","rightarrow","rightarrow","leftarrow"],"right_color":"lightblue","left_color":"orange","left_mu":40,"right_mu":60,"left_numbers":[40,50,31,44,27,33,33,39,37,52],"right_numbers":[70,50,44,62,51,79,52,74,55,59],"points_earned":548,"phase":"task","trial_type":"horizons-task","trial_index":87,"time_elapsed":1390152,"internal_node_id":"0.0-83.0","task_version":"0.2"},{"response_times":[775.2450000261888,316.1949999630451,422.6849999977276,486.4999999990687,2323.504999978468,802.7499999734573,813.2850000401959,746.9299999647774,798.769999993965,1016.5649999980815],"keys_pressed":["leftarrow","rightarrow","rightarrow","rightarrow","rightarrow","leftarrow","rightarrow","leftarrow","rightarrow","rightarrow"],"horizon":10,"forced_choices":["leftarrow","rightarrow","rightarrow","rightarrow"],"right_color":"lightblue","left_color":"orange","left_mu":60,"right_mu":64,"left_numbers":[63,57,51,56,51,63,55,56,67,57],"right_numbers":[62,65,70,53,66,48,61,60,59,71],"points_earned":627,"phase":"task","trial_type":"horizons-task","trial_index":88,"time_elapsed":1400159,"internal_node_id":"0.0-84.0","task_version":"0.2"},{"response_times":[505.81500004045665,356.9650000426918,393.0500000133179,469.0849999897182,2149.3500000215136],"keys_pressed":["leftarrow","rightarrow","leftarrow","rightarrow","rightarrow"],"horizon":5,"forced_choices":["leftarrow","rightarrow","leftarrow","rightarrow"],"right_color":"orange","left_color":"lightblue","left_mu":60,"right_mu":80,"left_numbers":[54,64,61,64,60],"right_numbers":[82,76,85,61,78],"points_earned":330,"phase":"task","trial_type":"horizons-task","trial_index":89,"time_elapsed":1405539,"internal_node_id":"0.0-85.0","task_version":"0.2"},{"response_times":[591.0799999837764,116.47000000812113,490.54000002797693,792.1150000183843,1890.140000032261],"keys_pressed":["leftarrow","rightarrow","leftarrow","leftarrow","rightarrow"],"horizon":5,"forced_choices":["leftarrow","rightarrow","leftarrow","leftarrow"],"right_color":"lightblue","left_color":"orange","left_mu":40,"right_mu":28,"left_numbers":[43,43,35,36,45],"right_numbers":[30,37,24,20,28],"points_earned":179,"phase":"task","trial_type":"horizons-task","trial_index":90,"time_elapsed":1410923,"internal_node_id":"0.0-86.0","task_version":"0.2"},{"response_times":[774.1500000120141,343.2749999919906,518.804999999702,690.8650000113994,2502.7399999671616,625.8599999709986,650.3549999906681,1438.2699999841861,633.7500000372529,1101.4800000120886],"keys_pressed":["leftarrow","rightarrow","rightarrow","leftarrow","leftarrow","rightarrow","leftarrow","rightarrow","leftarrow","rightarrow"],"horizon":10,"forced_choices":["leftarrow","rightarrow","rightarrow","leftarrow"],"right_color":"orange","left_color":"lightblue","left_mu":40,"right_mu":36,"left_numbers":[39,40,37,47,43,38,34,40,34,40],"right_numbers":[46,5,36,27,36,35,42,39,29,25],"points_earned":337,"phase":"task","trial_type":"horizons-task","trial_index":91,"time_elapsed":1421708,"internal_node_id":"0.0-87.0","task_version":"0.2"},{"rt":22012.8750000149,"responses":{"age":"46","gender-categorical":"Male","gender-free-response":"","ethnicity":"Not Hispanic or Latino","race":["White"],"language":"Yes","fluency":"Very well"},"survey":"demographics","trial_type":"survey-demo","trial_index":92,"time_elapsed":1443730,"internal_node_id":"0.0-88.0","task_version":"0.2"},{"rt":45340.729999996256,"responses":{"difficulty":"4","fun":"5","clarity":"5","strategy":"Tried to use an average of available numbers. Did not write anything down. Sometimes went with a \"hunch\"","feedback":""},"survey":"debrief","trial_type":"survey-debrief","trial_index":93,"time_elapsed":1489084,"internal_node_id":"0.0-89.0","task_version":"0.2","interactions":"[]"}]