[{"view_history":"[{\"page_index\":0,\"viewing_time\":12863.43000002671}]","rt":12863.965000025928,"trial_type":"instructions","trial_index":0,"time_elapsed":12870,"internal_node_id":"0.0-0.0","task_version":"0.2"},{"item_order":[7,8,0,15,1,13,5,10,12,11,14,6,3,2,4,9],"responses":{"Q08":"3","Q09":"2","Q01":"4","Q16":"5","Q02":"3","Q14":"4","Q06":"5","Q11":"2","Q13":"4","Q12":"3","Q15":"5","Q07":"5","Q04":"4","Q03":"5","Q05":"0","Q10":"1"},"radio_events":[44517.744999960996,60233.69999998249,63875.69999997504,84703.59499996994,90296.80499993265,92186.57499994151,106260.56999992579,110680.64000003505,115338.13499996904,124013.71500000823,138154.60000000894,140996.44499993883,155044.63999997824,178758.71500000358,189440.68500003777,196298.8099999493,212576.96500001475],"key_events":[],"mouse_events":[0.219999928958714,33193.45499994233,42885.66499995068,43682.580000022426,44100.450000027195,44517.744999960996,48007.51999998465,60233.69999998249,60920.2449999284,63436.47499999497,63875.69999997504,84703.59499996994,90296.80499993265,91267.96999992803,91879.57500002813,92186.57499994151,97599.47499993723,106260.56999992579,107068.55999992695,110680.64000003505,114953.73499998823,115338.13499996904,119836.61500003655,123166.49999993388,123660.61499994248,124013.71500000823,126416.63999995217,137323.7449999433,138154.60000000894,140996.44499993883,146936.69499992393,155044.63999997824,155298.07999997865,160822.54999992438,161215.59000003617,161399.6150000021,161555.50000001676,176226.72000003513,178758.71500000358,188980.8699999703,189440.68500003777,196298.8099999493,204114.59499993362,204274.58999992814,204412.75999997742,210428.69999993127,211608.65499998908,212576.96500001475,214327.67000002787],"rt":214331.06999995653,"survey":"nfc","trial_type":"survey-template","trial_index":1,"time_elapsed":227206,"internal_node_id":"0.0-1.0","task_version":"0.2"},{"item_order":[9,1,11,8,2,14,7,0,10,5,12,6,15,4,13,16,3],"responses":{"Q10":"4","Q02":"2","Q12":"0","Q09":"1","Q03":"4","Q15":"0","Q08":"2","Q01":"1","Q11":"1","Q06":"4","Q13":"2","Q07":"0","Q16":"3","Q05":"2","Q14":"2","Q17":"0","Q04":"1"},"radio_events":[5345.93000006862,6120.19499996677,6491.125000058673,9514.244999969378,12464.06999998726,14167.164999991655,19669.179999968037,24022.269999957643,24426.070000045,25209.999999962747,26893.019999959506,32550.010000006296,43277.98500005156,93351.15999996196,95118.32999996841,101608.20500005502,103667.9249999579,104769.9900000589,106771.36000001337,111508.12500005122,113783.01000001375,114615.17999996431,118535.33500002231,226375.28000003658,227608.32500003744,232010.03000000492,245161.13000002224,260692.66499998048,270437.6949999714],"key_events":[],"mouse_events":[5345.93000006862,5780.525000067428,6120.19499996677,6491.125000058673,9102.519999956712,9514.244999969378,12464.06999998726,13252.210000064224,13909.06500001438,14167.164999991655,19320.015000062995,19669.179999968037,24022.269999957643,24426.070000045,24853.11000002548,25209.999999962747,26564.07500000205,26893.019999959506,29408.44000002835,29567.004999960773,29735.089999972843,30698.2100000605,31431.94499996025,31882.08999997005,32207.24500005599,32550.010000006296,40606.12500004936,40797.29500005487,41096.325000049546,42288.00499998033,43277.98500005156,48172.404999961145,48325.964999967255,48469.14000005927,54444.009999977425,74824.13500000257,75086.01500000805,75563.04499995895,75750.06500002928,75955.9349999763,76375.9850000497,76659.25500006415,77070.07000001613,77228.14999998081,77663.04500005208,77887.01000006404,78415.03999999259,78565.91999996454,78718.10000005644,79032.98000001814,79179.10000006668,79510.9550000634,80289.11999997217,80431.97499995586,80836.08499995898,90851.20499995537,91003.20499995723,91167.25499997847,91845.00500001013,91997.92500003241,92160.24999995716,92508.01500002854,92746.2199999718,93351.15999996196,94795.46000005212,95118.32999996841,101608.20500005502,103353.19499997422,103667.9249999579,104769.9900000589,106771.36000001337,111166.30499996245,111508.12500005122,113783.01000001375,114269.14500002749,114615.17999996431,118535.33500002231,168568.27000004705,168726.58999997657,168906.99499996845,221990.57500006165,226375.28000003658,227043.3999999659,227608.32500003744,230879.4850000413,232010.03000000492,244639.1650000587,245161.13000002224,251068.17500002217,258205.08500002325,260692.66499998048,269641.1050000461,270437.6949999714,272583.2299999893],"rt":272585.3450000286,"survey":"pswq","trial_type":"survey-template","trial_index":2,"time_elapsed":499796,"internal_node_id":"0.0-2.0","task_version":"0.2"},{"item_order":[10,2,5,1,3,4,11,9,8,12,7,6,0],"responses":{"Q11":"3","Q03":"0","Q06":"2","Q02":"4","Q04":"4","Q05":"2","Q12":"1","Q10":"2","Q09":"1","Q13":"4","Q08":"4","Q07":"1","Q01":"0"},"radio_events":[21404.784999904223,22398.884999915026,26386.894999886863,29310.81999989692,133300.85999995936,138822.70499994047,159397.74499996565,177962.16999995522,184258.8199999882,194766.7149999179,198962.16499991715,202587.75999990758,209727.79499995522,210756.07499992475,217368.79999993835,223068.61999991816,233905.84499994293],"key_events":[],"mouse_events":[13207.579999929294,13346.644999925047,13514.59999999497,19881.82499993127,21404.784999904223,21945.78999991063,22398.884999915026,26125.789999961853,26386.894999886863,29310.81999989692,30799.864999949932,30951.799999922514,31117.58999992162,131037.1949999826,132212.75499998592,132529.85999989323,132930.7399999816,133300.85999995936,138197.27999996394,138485.7549999142,138822.70499994047,143504.7599999234,143662.54499997012,143827.77999993414,159035.82999994978,159397.74499996565,159996.7099999776,162216.72999998555,162364.21999998856,162540.74499988928,176943.77499993425,177962.16999995522,178568.88499995694,182167.8349999711,182472.7599999169,182940.1749999961,183524.6899999911,184258.8199999882,186059.14499994833,186390.72499994654,186550.8849999169,192790.91499990318,194766.7149999179,197826.10499998555,198099.78499996942,198561.7149999598,198962.16499991715,200636.77499990445,202587.75999990758,204179.88999991212,204336.96999994572,204492.59999999776,208840.85499995854,209727.79499995522,210756.07499992475,217368.79999993835,223068.61999991816,226008.7699999567,226199.6199999703,226340.84999992047,233672.07499989308,233905.84499994293,236005.7149999775],"rt":236007.26999994367,"survey":"ius12","trial_type":"survey-template","trial_index":3,"time_elapsed":735808,"internal_node_id":"0.0-3.0","task_version":"0.2"},{"view_history":"[{\"page_index\":0,\"viewing_time\":4580.809999955818},{\"page_index\":1,\"viewing_time\":14233.935000025667},{\"page_index\":2,\"viewing_time\":15422.105000005104},{\"page_index\":3,\"viewing_time\":1871.999999973923},{\"page_index\":2,\"viewing_time\":8798.889999976382},{\"page_index\":3,\"viewing_time\":9177.130000083707},{\"page_index\":4,\"viewing_time\":7622.974999947473},{\"page_index\":5,\"viewing_time\":10045.915000024252},{\"page_index\":6,\"viewing_time\":7767.080000019632},{\"page_index\":7,\"viewing_time\":50132.949999999255},{\"page_index\":8,\"viewing_time\":13467.94499992393},{\"page_index\":9,\"viewing_time\":9822.210000013001}]","rt":152945.1949999202,"trial_type":"instructions","trial_index":4,"time_elapsed":888754,"internal_node_id":"0.0-4.0-0.0","task_version":"0.2"},{"response_times":[1213.539999909699,533.9799999492243,495.9050000179559,768.0349999573082,2271.8999999342486],"keys_pressed":["rightarrow","leftarrow","rightarrow","rightarrow","leftarrow"],"horizon":5,"forced_choices":["rightarrow","leftarrow","rightarrow","rightarrow"],"right_color":"lightblue","left_color":"orange","left_mu":40,"right_mu":20,"left_numbers":[63,43,35,35,54],"right_numbers":[10,7,23,0,10],"points_earned":130,"phase":"practice","trial_type":"horizons-task","trial_index":5,"time_elapsed":895546,"internal_node_id":"0.0-4.0-1.0","task_version":"0.2"},{"response_times":[857.6600000960752,392.1250000130385,384.0199999976903,367.93999990914017,2327.9099999926984,1649.680000031367,1062.2549999970943,512.2800000244752,1087.6550000393763,416.06999991927296],"keys_pressed":["leftarrow","leftarrow","rightarrow","rightarrow","rightarrow","rightarrow","leftarrow","rightarrow","leftarrow","rightarrow"],"horizon":10,"forced_choices":["leftarrow","leftarrow","rightarrow","rightarrow"],"right_color":"orange","left_color":"lightblue","left_mu":60,"right_mu":70,"left_numbers":[56,56,55,74,55,57,47,63,48,47],"right_numbers":[68,69,59,70,76,70,69,61,79,70],"points_earned":613,"phase":"practice","trial_type":"horizons-task","trial_index":6,"time_elapsed":906106,"internal_node_id":"0.0-4.0-2.0","task_version":"0.2"},{"view_history":"[{\"page_index\":0,\"viewing_time\":2352.294999989681},{\"page_index\":1,\"viewing_time\":3419.950000010431},{\"page_index\":2,\"viewing_time\":6999.975000042468},{\"page_index\":3,\"viewing_time\":4582.524999976158}]","rt":17354.920000070706,"trial_type":"instructions","trial_index":7,"time_elapsed":923462,"internal_node_id":"0.0-4.0-3.0","task_version":"0.2"},{"responses":["true","false","true"],"num_errors":0,"rt":13504.740000003949,"trial_type":"horizons-comprehension","trial_index":8,"time_elapsed":936968,"internal_node_id":"0.0-4.0-4.0","task_version":"0.2"},{"trial_type":"call-function","trial_index":9,"time_elapsed":936970,"internal_node_id":"0.0-5.0","task_version":"0.2"},{"view_history":"[{\"page_index\":0,\"viewing_time\":2442.009999998845},{\"page_index\":1,\"viewing_time\":4001.2100000167266}]","rt":6443.43999994453,"trial_type":"instructions","trial_index":10,"time_elapsed":943414,"internal_node_id":"0.0-6.0","task_version":"0.2"},{"response_times":[1075.2949999878183,742.4200000241399,720.3000000445172,632.0999999297783,2567.685000016354],"keys_pressed":["rightarrow","rightarrow","leftarrow","rightarrow","leftarrow"],"horizon":5,"forced_choices":["rightarrow","rightarrow","leftarrow","rightarrow"],"right_color":"orange","left_color":"lightblue","left_mu":40,"right_mu":60,"left_numbers":[37,65,40,21,39],"right_numbers":[48,67,57,62,48],"points_earned":256,"phase":"task","trial_type":"horizons-task","trial_index":11,"time_elapsed":950658,"internal_node_id":"0.0-7.0","task_version":"0.2"},{"response_times":[465.9199999878183,568.1399999884889,495.80999999307096,640.0450000073761,1985.2100000716746],"keys_pressed":["rightarrow","leftarrow","rightarrow","rightarrow","rightarrow"],"horizon":5,"forced_choices":["rightarrow","leftarrow","rightarrow","rightarrow"],"right_color":"orange","left_color":"lightblue","left_mu":60,"right_mu":72,"left_numbers":[59,53,62,57,51],"right_numbers":[75,72,60,67,86],"points_earned":341,"phase":"task","trial_type":"horizons-task","trial_index":12,"time_elapsed":956315,"internal_node_id":"0.0-8.0","task_version":"0.2"},{"response_times":[791.8599999975413,744.3599998950958,751.6199999954551,663.899999926798,3072.094999952242,1280.0399999832734,903.9199999533594,961.5100000519305,390.4050000710413,719.8750000679865],"keys_pressed":["leftarrow","leftarrow","leftarrow","rightarrow","rightarrow","rightarrow","leftarrow","leftarrow","rightarrow","rightarrow"],"horizon":10,"forced_choices":["leftarrow","leftarrow","leftarrow","rightarrow"],"right_color":"orange","left_color":"lightblue","left_mu":60,"right_mu":56,"left_numbers":[50,58,68,72,56,60,59,55,67,57],"right_numbers":[62,55,67,51,61,67,77,49,49,61],"points_earned":579,"phase":"task","trial_type":"horizons-task","trial_index":13,"time_elapsed":968098,"internal_node_id":"0.0-9.0","task_version":"0.2"},{"response_times":[506.3799999188632,855.9549999190494,647.9149999795482,871.8700000317767,2080.1500000525266],"keys_pressed":["rightarrow","rightarrow","leftarrow","rightarrow","rightarrow"],"horizon":5,"forced_choices":["rightarrow","rightarrow","leftarrow","rightarrow"],"right_color":"orange","left_color":"lightblue","left_mu":40,"right_mu":48,"left_numbers":[40,36,38,43,35],"right_numbers":[52,50,36,39,39],"points_earned":218,"phase":"task","trial_type":"horizons-task","trial_index":14,"time_elapsed":974562,"internal_node_id":"0.0-10.0","task_version":"0.2"},{"response_times":[561.4150000037625,673.5799999441952,462.3549999669194,671.9250000314787,1799.9899999704212,1240.1899999240413,304.1100000264123,367.6899999845773,440.0450000539422,1600.0950000016019],"keys_pressed":["rightarrow","leftarrow","rightarrow","leftarrow","leftarrow","leftarrow","rightarrow","rightarrow","rightarrow","rightarrow"],"horizon":10,"forced_choices":["rightarrow","leftarrow","rightarrow","leftarrow"],"right_color":"orange","left_color":"lightblue","left_mu":40,"right_mu":70,"left_numbers":[34,48,34,19,38,22,43,34,35,46],"right_numbers":[65,61,64,50,68,67,78,68,62,67],"points_earned":531,"phase":"task","trial_type":"horizons-task","trial_index":15,"time_elapsed":984187,"internal_node_id":"0.0-11.0","task_version":"0.2"},{"response_times":[529.1650000726804,535.8899999409914,496.0150000406429,601.314999978058,582.7249999856576,1591.7699999408796,3319.9899999890476,336.00000001024455,368.0650000460446,2168.045000056736],"keys_pressed":["leftarrow","rightarrow","leftarrow","leftarrow","rightarrow","leftarrow","leftarrow","rightarrow","rightarrow","rightarrow"],"horizon":10,"forced_choices":["leftarrow","rightarrow","leftarrow","leftarrow"],"right_color":"lightblue","left_color":"orange","left_mu":40,"right_mu":44,"left_numbers":[52,40,44,32,49,41,30,42,51,36],"right_numbers":[49,46,39,35,51,39,42,37,49,37],"points_earned":419,"phase":"task","trial_type":"horizons-task","trial_index":16,"time_elapsed":996218,"internal_node_id":"0.0-12.0","task_version":"0.2"},{"response_times":[435.8350000111386,366.41999997664243,903.8299999665469,704.0799999376759,1760.1000000722706],"keys_pressed":["rightarrow","leftarrow","leftarrow","rightarrow","rightarrow"],"horizon":5,"forced_choices":["rightarrow","leftarrow","leftarrow","rightarrow"],"right_color":"lightblue","left_color":"orange","left_mu":40,"right_mu":52,"left_numbers":[41,34,38,42,42],"right_numbers":[42,58,65,43,58],"points_earned":215,"phase":"task","trial_type":"horizons-task","trial_index":17,"time_elapsed":1001891,"internal_node_id":"0.0-13.0","task_version":"0.2"},{"response_times":[369.16000000201166,1352.1349999355152,1808.0400000326335,1361.2149999244139,1438.5250000050291],"keys_pressed":["leftarrow","rightarrow","leftarrow","rightarrow","leftarrow"],"horizon":5,"forced_choices":["leftarrow","rightarrow","leftarrow","rightarrow"],"right_color":"orange","left_color":"lightblue","left_mu":60,"right_mu":48,"left_numbers":[62,58,64,71,57],"right_numbers":[57,39,56,50,51],"points_earned":272,"phase":"task","trial_type":"horizons-task","trial_index":18,"time_elapsed":1009723,"internal_node_id":"0.0-14.0","task_version":"0.2"},{"response_times":[521.4799999957904,591.9749999884516,903.9999999804422,1399.9400000320747,776.2050000019372,576.2299998896196,375.56499999482185,1631.790000014007,305.78000005334616,782.2850000811741],"keys_pressed":["leftarrow","rightarrow","rightarrow","rightarrow","leftarrow","leftarrow","rightarrow","rightarrow","leftarrow","leftarrow"],"horizon":10,"forced_choices":["leftarrow","rightarrow","rightarrow","rightarrow"],"right_color":"lightblue","left_color":"orange","left_mu":40,"right_mu":32,"left_numbers":[28,47,57,41,28,51,41,40,47,32],"right_numbers":[33,29,12,41,32,35,22,46,34,20],"points_earned":336,"phase":"task","trial_type":"horizons-task","trial_index":19,"time_elapsed":1019090,"internal_node_id":"0.0-15.0","task_version":"0.2"},{"response_times":[576.9950000103563,695.9700000006706,455.8399999514222,792.1000000787899,2303.7849999964237,440.1549999602139,799.8150000348687,351.9749999977648,496.1649999022484,615.9699999261647],"keys_pressed":["leftarrow","leftarrow","rightarrow","rightarrow","leftarrow","rightarrow","rightarrow","leftarrow","leftarrow","leftarrow"],"horizon":10,"forced_choices":["leftarrow","leftarrow","rightarrow","rightarrow"],"right_color":"orange","left_color":"lightblue","left_mu":60,"right_mu":56,"left_numbers":[52,51,68,69,63,69,57,61,51,65],"right_numbers":[68,61,60,49,60,39,45,47,66,60],"points_earned":536,"phase":"task","trial_type":"horizons-task","trial_index":20,"time_elapsed":1028122,"internal_node_id":"0.0-16.0","task_version":"0.2"},{"response_times":[515.0950000388548,942.7999999606982,735.7799999881536,696.17000001017,807.840000023134,872.1549999900162,648.0250000022352,367.655000067316,447.9600000195205,384.19000001158565],"keys_pressed":["rightarrow","rightarrow","leftarrow","rightarrow","leftarrow","rightarrow","leftarrow","rightarrow","rightarrow","rightarrow"],"horizon":10,"forced_choices":["rightarrow","rightarrow","leftarrow","rightarrow"],"right_color":"orange","left_color":"lightblue","left_mu":40,"right_mu":48,"left_numbers":[43,43,41,27,34,43,42,43,49,42],"right_numbers":[52,64,56,56,47,45,39,52,41,43],"points_earned":470,"phase":"task","trial_type":"horizons-task","trial_index":21,"time_elapsed":1036041,"internal_node_id":"0.0-17.0","task_version":"0.2"},{"response_times":[842.8149999817833,575.9799999650568,776.2649999931455,529.2500000214204,1598.3599999453872],"keys_pressed":["rightarrow","leftarrow","leftarrow","rightarrow","rightarrow"],"horizon":5,"forced_choices":["rightarrow","leftarrow","leftarrow","rightarrow"],"right_color":"orange","left_color":"lightblue","left_mu":60,"right_mu":72,"left_numbers":[71,47,62,54,56],"right_numbers":[72,80,63,75,69],"points_earned":325,"phase":"task","trial_type":"horizons-task","trial_index":22,"time_elapsed":1041866,"internal_node_id":"0.0-18.0","task_version":"0.2"},{"response_times":[418.58999989926815,831.7599999718368,616.1749999737367,560.3200000477955,1487.5900000333786,696.1250000167638,1775.7400000700727,311.90000008791685,425.3999999491498,694.7350000264123],"keys_pressed":["rightarrow","rightarrow","leftarrow","rightarrow","leftarrow","rightarrow","rightarrow","leftarrow","rightarrow","rightarrow"],"horizon":10,"forced_choices":["rightarrow","rightarrow","leftarrow","rightarrow"],"right_color":"orange","left_color":"lightblue","left_mu":40,"right_mu":60,"left_numbers":[45,42,34,39,45,42,34,30,37,53],"right_numbers":[52,50,42,64,58,60,72,50,68,41],"points_earned":516,"phase":"task","trial_type":"horizons-task","trial_index":23,"time_elapsed":1051186,"internal_node_id":"0.0-19.0","task_version":"0.2"},{"response_times":[594.260000041686,479.9800000619143,1135.924999951385,1416.2099999375641,1064.0249999705702],"keys_pressed":["leftarrow","rightarrow","rightarrow","rightarrow","leftarrow"],"horizon":5,"forced_choices":["leftarrow","rightarrow","rightarrow","rightarrow"],"right_color":"lightblue","left_color":"orange","left_mu":40,"right_mu":32,"left_numbers":[44,46,30,32,30],"right_numbers":[41,37,27,28,17],"points_earned":166,"phase":"task","trial_type":"horizons-task","trial_index":24,"time_elapsed":1057379,"internal_node_id":"0.0-20.0","task_version":"0.2"},{"response_times":[433.4300000919029,511.76000002305955,777.5399999227375,822.4649999756366,1296.0250000469387,464.0450000297278,1544.0249999519438,319.93999995756894,463.82000006269664,448.0099999345839],"keys_pressed":["rightarrow","leftarrow","rightarrow","leftarrow","rightarrow","leftarrow","leftarrow","rightarrow","leftarrow","leftarrow"],"horizon":10,"forced_choices":["rightarrow","leftarrow","rightarrow","leftarrow"],"right_color":"orange","left_color":"lightblue","left_mu":60,"right_mu":52,"left_numbers":[59,63,55,58,63,52,67,52,69,53],"right_numbers":[34,49,53,46,52,54,40,49,34,40],"points_earned":550,"phase":"task","trial_type":"horizons-task","trial_index":25,"time_elapsed":1065972,"internal_node_id":"0.0-21.0","task_version":"0.2"},{"response_times":[503.84500005748123,407.9250000650063,504.0199999930337,551.9549999153242,1681.7250000312924],"keys_pressed":["rightarrow","leftarrow","rightarrow","leftarrow","rightarrow"],"horizon":5,"forced_choices":["rightarrow","leftarrow","rightarrow","leftarrow"],"right_color":"orange","left_color":"lightblue","left_mu":40,"right_mu":70,"left_numbers":[48,36,33,49,36],"right_numbers":[70,68,73,59,67],"points_earned":295,"phase":"task","trial_type":"horizons-task","trial_index":26,"time_elapsed":1071123,"internal_node_id":"0.0-22.0","task_version":"0.2"},{"response_times":[480.46999995131046,439.9100000737235,792.0150000136346,511.7899999022484,840.1750000193715],"keys_pressed":["leftarrow","rightarrow","leftarrow","rightarrow","leftarrow"],"horizon":5,"forced_choices":["leftarrow","rightarrow","leftarrow","rightarrow"],"right_color":"lightblue","left_color":"orange","left_mu":40,"right_mu":10,"left_numbers":[20,29,29,33,39],"right_numbers":[9,11,5,1,26],"points_earned":100,"phase":"task","trial_type":"horizons-task","trial_index":27,"time_elapsed":1075691,"internal_node_id":"0.0-23.0","task_version":"0.2"},{"response_times":[385.1149999536574,367.9499999852851,920.0149999232963,408.1350000342354,1215.7250000163913,1321.3450000621378,670.6250000279397,936.0849999357015,359.94999995455146,3495.794999995269],"keys_pressed":["leftarrow","rightarrow","rightarrow","leftarrow","rightarrow","leftarrow","rightarrow","rightarrow","leftarrow","leftarrow"],"horizon":10,"forced_choices":["leftarrow","rightarrow","rightarrow","leftarrow"],"right_color":"lightblue","left_color":"orange","left_mu":40,"right_mu":32,"left_numbers":[34,33,47,38,39,34,45,27,40,37],"right_numbers":[32,45,36,44,42,38,36,23,27,26],"points_earned":365,"phase":"task","trial_type":"horizons-task","trial_index":28,"time_elapsed":1087274,"internal_node_id":"0.0-24.0","task_version":"0.2"},{"response_times":[345.6350000342354,439.82500000856817,887.8950000507757,439.81500004883856,2081.425000098534],"keys_pressed":["leftarrow","rightarrow","rightarrow","leftarrow","leftarrow"],"horizon":5,"forced_choices":["leftarrow","rightarrow","rightarrow","leftarrow"],"right_color":"lightblue","left_color":"orange","left_mu":60,"right_mu":64,"left_numbers":[53,67,82,75,67],"right_numbers":[62,65,62,62,78],"points_earned":322,"phase":"task","trial_type":"horizons-task","trial_index":29,"time_elapsed":1092970,"internal_node_id":"0.0-25.0","task_version":"0.2"},{"response_times":[449.63000004645437,696.1150000570342,448.3450000407174,1479.4800000963733,1535.909999976866],"keys_pressed":["leftarrow","leftarrow","rightarrow","rightarrow","rightarrow"],"horizon":5,"forced_choices":["leftarrow","leftarrow","rightarrow","rightarrow"],"right_color":"orange","left_color":"lightblue","left_mu":60,"right_mu":56,"left_numbers":[54,58,51,63,60],"right_numbers":[54,69,53,64,73],"points_earned":302,"phase":"task","trial_type":"horizons-task","trial_index":30,"time_elapsed":1099084,"internal_node_id":"0.0-26.0","task_version":"0.2"},{"response_times":[1328.0749999685213,423.7399999983609,512.1000000508502,441.1850000033155,1126.71500002034,471.79500001948327,360.2049999171868,375.8450000314042,1432.0450000232086,1536.2850000383332],"keys_pressed":["leftarrow","rightarrow","leftarrow","rightarrow","rightarrow","rightarrow","leftarrow","leftarrow","leftarrow","leftarrow"],"horizon":10,"forced_choices":["leftarrow","rightarrow","leftarrow","rightarrow"],"right_color":"orange","left_color":"lightblue","left_mu":40,"right_mu":28,"left_numbers":[19,41,36,39,39,42,47,26,37,46],"right_numbers":[34,22,16,18,20,17,22,27,30,38],"points_earned":288,"phase":"task","trial_type":"horizons-task","trial_index":31,"time_elapsed":1108594,"internal_node_id":"0.0-27.0","task_version":"0.2"},{"response_times":[401.6699999338016,975.9199999971315,495.8699999842793,752.1899999119341,585.3399999905378],"keys_pressed":["leftarrow","leftarrow","rightarrow","leftarrow","rightarrow"],"horizon":5,"forced_choices":["leftarrow","leftarrow","rightarrow","leftarrow"],"right_color":"lightblue","left_color":"orange","left_mu":60,"right_mu":90,"left_numbers":[39,58,51,53,62],"right_numbers":[92,90,92,103,87],"points_earned":329,"phase":"task","trial_type":"horizons-task","trial_index":32,"time_elapsed":1113307,"internal_node_id":"0.0-28.0","task_version":"0.2"},{"response_times":[624.6099999407306,2096.1349999997765,2151.9250000128523,2303.93500009086,5097.479999996722,734.3850000761449,1808.034999994561,527.9500000178814,408.0650000832975,1104.1049999184906],"keys_pressed":["leftarrow","leftarrow","leftarrow","rightarrow","rightarrow","leftarrow","leftarrow","rightarrow","leftarrow","leftarrow"],"horizon":10,"forced_choices":["leftarrow","leftarrow","leftarrow","rightarrow"],"right_color":"orange","left_color":"lightblue","left_mu":40,"right_mu":28,"left_numbers":[38,60,37,37,34,57,41,38,35,35],"right_numbers":[32,23,18,33,30,30,39,30,9,33],"points_earned":396,"phase":"task","trial_type":"horizons-task","trial_index":33,"time_elapsed":1131666,"internal_node_id":"0.0-29.0","task_version":"0.2"},{"response_times":[5587.5649999361485,3230.2449999842793,1056.055000051856,799.9950000084937,7841.155000030994],"keys_pressed":["rightarrow","leftarrow","rightarrow","rightarrow","rightarrow"],"horizon":5,"forced_choices":["rightarrow","leftarrow","rightarrow","rightarrow"],"right_color":"orange","left_color":"lightblue","left_mu":40,"right_mu":36,"left_numbers":[45,34,35,49,44],"right_numbers":[29,39,33,40,18],"points_earned":154,"phase":"task","trial_type":"horizons-task","trial_index":34,"time_elapsed":1151684,"internal_node_id":"0.0-30.0","task_version":"0.2"},{"response_times":[400.7899999851361,5040.174999972805,648.0049999663606,831.9500000216067,10345.31500004232],"keys_pressed":["leftarrow","leftarrow","rightarrow","rightarrow","rightarrow"],"horizon":5,"forced_choices":["leftarrow","leftarrow","rightarrow","rightarrow"],"right_color":"orange","left_color":"lightblue","left_mu":60,"right_mu":80,"left_numbers":[58,65,56,64,67],"right_numbers":[80,66,72,83,78],"points_earned":356,"phase":"task","trial_type":"horizons-task","trial_index":35,"time_elapsed":1170453,"internal_node_id":"0.0-31.0","task_version":"0.2"},{"response_times":[3247.7750000543892,960.2200000081211,831.815000041388,440.0149999419227,5929.385000024922,782.3499999940395,400.16499999910593,503.9549999637529,487.97000001650304,967.8249999415129],"keys_pressed":["rightarrow","rightarrow","rightarrow","leftarrow","leftarrow","rightarrow","leftarrow","leftarrow","leftarrow","leftarrow"],"horizon":10,"forced_choices":["rightarrow","rightarrow","rightarrow","leftarrow"],"right_color":"lightblue","left_color":"orange","left_mu":40,"right_mu":10,"left_numbers":[38,49,44,26,48,27,36,38,29,30],"right_numbers":[11,11,22,5,9,13,26,0,16,16],"points_earned":264,"phase":"task","trial_type":"horizons-task","trial_index":36,"time_elapsed":1186507,"internal_node_id":"0.0-32.0","task_version":"0.2"},{"response_times":[1489.519999944605,4881.275000050664,750.5899999523535,343.8399999868125,904.160000034608],"keys_pressed":["rightarrow","rightarrow","rightarrow","leftarrow","leftarrow"],"horizon":5,"forced_choices":["rightarrow","rightarrow","rightarrow","leftarrow"],"right_color":"lightblue","left_color":"orange","left_mu":40,"right_mu":10,"left_numbers":[42,39,48,30,32],"right_numbers":[16,7,12,9,10],"points_earned":97,"phase":"task","trial_type":"horizons-task","trial_index":37,"time_elapsed":1196377,"internal_node_id":"0.0-33.0","task_version":"0.2"},{"response_times":[2667.0150000136346,583.9649999979883,488.05499996524304,944.1299999598414,335.7550000073388],"keys_pressed":["rightarrow","leftarrow","rightarrow","leftarrow","rightarrow"],"horizon":5,"forced_choices":["rightarrow","leftarrow","rightarrow","leftarrow"],"right_color":"lightblue","left_color":"orange","left_mu":60,"right_mu":90,"left_numbers":[68,61,57,68,60],"right_numbers":[73,80,87,86,84],"points_earned":373,"phase":"task","trial_type":"horizons-task","trial_index":38,"time_elapsed":1202898,"internal_node_id":"0.0-34.0","task_version":"0.2"},{"response_times":[852.2550000343472,1686.4000000059605,1071.7599999625236,736.1699999310076,3056.00000009872,727.9199999757111,928.0049999943003,271.85999997891486,791.9150000670925,608.2300000125542],"keys_pressed":["rightarrow","rightarrow","leftarrow","leftarrow","leftarrow","rightarrow","rightarrow","leftarrow","leftarrow","rightarrow"],"horizon":10,"forced_choices":["rightarrow","rightarrow","leftarrow","leftarrow"],"right_color":"lightblue","left_color":"orange","left_mu":40,"right_mu":44,"left_numbers":[44,50,41,39,46,43,47,37,31,34],"right_numbers":[46,42,43,43,49,35,54,35,38,50],"points_earned":421,"phase":"task","trial_type":"horizons-task","trial_index":39,"time_elapsed":1215130,"internal_node_id":"0.0-35.0","task_version":"0.2"},{"response_times":[467.8600000916049,814.5299999741837,512.0200000237674,720.1499999500811,3399.710000026971],"keys_pressed":["leftarrow","rightarrow","leftarrow","leftarrow","leftarrow"],"horizon":5,"forced_choices":["leftarrow","rightarrow","leftarrow","leftarrow"],"right_color":"lightblue","left_color":"orange","left_mu":40,"right_mu":44,"left_numbers":[36,31,48,36,40],"right_numbers":[42,37,46,38,52],"points_earned":197,"phase":"task","trial_type":"horizons-task","trial_index":40,"time_elapsed":1222546,"internal_node_id":"0.0-36.0","task_version":"0.2"},{"response_times":[458.81499990355223,759.9850000115111,743.8750000437722,1105.2299999864772,942.6299999468029],"keys_pressed":["rightarrow","rightarrow","leftarrow","leftarrow","rightarrow"],"horizon":5,"forced_choices":["rightarrow","rightarrow","leftarrow","leftarrow"],"right_color":"lightblue","left_color":"orange","left_mu":60,"right_mu":68,"left_numbers":[55,69,57,40,58],"right_numbers":[75,70,61,78,77],"points_earned":319,"phase":"task","trial_type":"horizons-task","trial_index":41,"time_elapsed":1228058,"internal_node_id":"0.0-37.0","task_version":"0.2"},{"response_times":[450.77500003390014,440.0100000202656,544.0449999878183,823.8850000780076,1559.7599999746308,424.19000004883856,768.0549999931827,471.7650000238791,519.9149999534711,624.1750000044703],"keys_pressed":["leftarrow","leftarrow","rightarrow","leftarrow","rightarrow","leftarrow","leftarrow","rightarrow","leftarrow","leftarrow"],"horizon":10,"forced_choices":["leftarrow","leftarrow","rightarrow","leftarrow"],"right_color":"lightblue","left_color":"orange","left_mu":60,"right_mu":64,"left_numbers":[57,48,56,66,58,50,66,68,54,43],"right_numbers":[58,77,62,62,53,59,82,60,60,71],"points_earned":559,"phase":"task","trial_type":"horizons-task","trial_index":42,"time_elapsed":1236186,"internal_node_id":"0.0-38.0","task_version":"0.2"},{"response_times":[411.6199999116361,374.27499995101243,760.0999999558553,591.9849999481812,407.7499998966232],"keys_pressed":["leftarrow","rightarrow","rightarrow","leftarrow","rightarrow"],"horizon":5,"forced_choices":["leftarrow","rightarrow","rightarrow","leftarrow"],"right_color":"orange","left_color":"lightblue","left_mu":40,"right_mu":60,"left_numbers":[34,35,59,37,34],"right_numbers":[65,66,61,56,67],"points_earned":265,"phase":"task","trial_type":"horizons-task","trial_index":43,"time_elapsed":1240234,"internal_node_id":"0.0-39.0","task_version":"0.2"},{"response_times":[473.8649999490008,791.8350000400096,1072.0100000035018,487.9250000230968,952.2749999305233],"keys_pressed":["rightarrow","rightarrow","rightarrow","leftarrow","leftarrow"],"horizon":5,"forced_choices":["rightarrow","rightarrow","rightarrow","leftarrow"],"right_color":"lightblue","left_color":"orange","left_mu":60,"right_mu":30,"left_numbers":[40,58,58,51,73],"right_numbers":[41,22,39,26,32],"points_earned":226,"phase":"task","trial_type":"horizons-task","trial_index":44,"time_elapsed":1245514,"internal_node_id":"0.0-40.0","task_version":"0.2"},{"response_times":[577.7049999451265,424.1199999814853,1825.4599999636412,694.5149999810383,1343.8699999824166,424.059999990277,447.98000005539507,319.7949999012053,616.1550000542775,4592.0550000155345],"keys_pressed":["rightarrow","leftarrow","leftarrow","rightarrow","leftarrow","rightarrow","rightarrow","leftarrow","rightarrow","rightarrow"],"horizon":10,"forced_choices":["rightarrow","leftarrow","leftarrow","rightarrow"],"right_color":"orange","left_color":"lightblue","left_mu":40,"right_mu":48,"left_numbers":[34,50,33,26,25,53,42,53,37,49],"right_numbers":[20,35,42,49,40,45,46,51,38,51],"points_earned":410,"phase":"task","trial_type":"horizons-task","trial_index":45,"time_elapsed":1258283,"internal_node_id":"0.0-41.0","task_version":"0.2"},{"response_times":[362.4749999726191,430.7150000240654,855.7000000728294,335.82500007469207,944.1800001077354,943.985000019893,359.885000041686,415.99999996833503,400.01500002108514,359.8449999699369],"keys_pressed":["rightarrow","leftarrow","leftarrow","rightarrow","rightarrow","leftarrow","rightarrow","leftarrow","leftarrow","leftarrow"],"horizon":10,"forced_choices":["rightarrow","leftarrow","leftarrow","rightarrow"],"right_color":"lightblue","left_color":"orange","left_mu":60,"right_mu":30,"left_numbers":[66,74,58,50,60,55,54,68,62,65],"right_numbers":[42,30,22,42,30,42,42,35,42,34],"points_earned":538,"phase":"task","trial_type":"horizons-task","trial_index":46,"time_elapsed":1265199,"internal_node_id":"0.0-42.0","task_version":"0.2"},{"response_times":[461.6750000277534,1351.905000046827,824.1100000450388,719.8799999896437,2353.6300000268966],"keys_pressed":["rightarrow","leftarrow","leftarrow","leftarrow","rightarrow"],"horizon":5,"forced_choices":["rightarrow","leftarrow","leftarrow","leftarrow"],"right_color":"lightblue","left_color":"orange","left_mu":60,"right_mu":68,"left_numbers":[67,59,72,58,65],"right_numbers":[78,62,66,74,70],"points_earned":337,"phase":"task","trial_type":"horizons-task","trial_index":47,"time_elapsed":1272412,"internal_node_id":"0.0-43.0","task_version":"0.2"},{"response_times":[336.70500002335757,391.73500007018447,496.06999999377877,624.1800000425428,407.90499991271645,1719.9600000167266,744.1000000108033,607.8949999064207,184.0900001116097,551.8799999263138],"keys_pressed":["rightarrow","leftarrow","rightarrow","leftarrow","rightarrow","rightarrow","rightarrow","leftarrow","rightarrow","rightarrow"],"horizon":10,"forced_choices":["rightarrow","leftarrow","rightarrow","leftarrow"],"right_color":"lightblue","left_color":"orange","left_mu":60,"right_mu":90,"left_numbers":[57,46,58,57,43,58,58,68,75,55],"right_numbers":[76,87,89,73,113,91,72,77,88,93],"points_earned":793,"phase":"task","trial_type":"horizons-task","trial_index":48,"time_elapsed":1279978,"internal_node_id":"0.0-44.0","task_version":"0.2"},{"response_times":[402.21999993082136,359.8449999699369,553.5699999891222,630.4650000529364,791.8850000714883,703.8800000445917,1272.0899999840185,504.079999984242,599.930000025779,343.8750000204891],"keys_pressed":["rightarrow","leftarrow","rightarrow","rightarrow","leftarrow","rightarrow","rightarrow","leftarrow","rightarrow","rightarrow"],"horizon":10,"forced_choices":["rightarrow","leftarrow","rightarrow","rightarrow"],"right_color":"orange","left_color":"lightblue","left_mu":60,"right_mu":72,"left_numbers":[66,52,59,63,47,54,71,42,55,45],"right_numbers":[58,71,71,55,67,71,81,61,58,56],"points_earned":591,"phase":"task","trial_type":"horizons-task","trial_index":49,"time_elapsed":1287642,"internal_node_id":"0.0-45.0","task_version":"0.2"},{"response_times":[378.6599999293685,416.02500004228204,1175.870000035502,1192.0999999856576,737.3000000370666,518.6450000619516,487.86999995354563,487.91999998502433,407.97000005841255,448.01499997265637],"keys_pressed":["leftarrow","rightarrow","rightarrow","rightarrow","rightarrow","leftarrow","leftarrow","leftarrow","leftarrow","leftarrow"],"horizon":10,"forced_choices":["leftarrow","rightarrow","rightarrow","rightarrow"],"right_color":"lightblue","left_color":"orange","left_mu":60,"right_mu":40,"left_numbers":[70,64,62,70,55,63,69,47,55,53],"right_numbers":[33,34,42,42,39,39,35,35,40,35],"points_earned":514,"phase":"task","trial_type":"horizons-task","trial_index":50,"time_elapsed":1295394,"internal_node_id":"0.0-46.0","task_version":"0.2"},{"view_history":"[{\"page_index\":0,\"viewing_time\":20634.230000083335},{\"page_index\":1,\"viewing_time\":2349.794999929145}]","rt":22984.335000044666,"trial_type":"instructions","trial_index":51,"time_elapsed":1318379,"internal_node_id":"0.0-47.0","task_version":"0.2"},{"response_times":[1341.6449999203905,463.98999996017665,688.5499999625608,583.420000039041,495.9400000516325],"keys_pressed":["rightarrow","leftarrow","leftarrow","rightarrow","leftarrow"],"horizon":5,"forced_choices":["rightarrow","leftarrow","leftarrow","rightarrow"],"right_color":"lightblue","left_color":"orange","left_mu":60,"right_mu":30,"left_numbers":[64,60,60,62,68],"right_numbers":[38,21,31,31,31],"points_earned":257,"phase":"task","trial_type":"horizons-task","trial_index":52,"time_elapsed":1323457,"internal_node_id":"0.0-48.0","task_version":"0.2"},{"response_times":[466.2950000492856,536.4299999782816,808.8550000684336,518.8100000377744,3248.0300000170246],"keys_pressed":["leftarrow","leftarrow","leftarrow","rightarrow","leftarrow"],"horizon":5,"forced_choices":["leftarrow","leftarrow","leftarrow","rightarrow"],"right_color":"orange","left_color":"lightblue","left_mu":40,"right_mu":28,"left_numbers":[42,46,34,46,55],"right_numbers":[33,39,21,43,28],"points_earned":220,"phase":"task","trial_type":"horizons-task","trial_index":53,"time_elapsed":1330537,"internal_node_id":"0.0-49.0","task_version":"0.2"},{"response_times":[586.890000035055,559.7549999365583,400.1600000774488,447.9849999770522,919.7649999987334,952.3100000806153,607.7799999620765,425.28999992646277,926.7100000288337,351.98499995749444],"keys_pressed":["rightarrow","rightarrow","leftarrow","rightarrow","rightarrow","leftarrow","rightarrow","rightarrow","leftarrow","rightarrow"],"horizon":10,"forced_choices":["rightarrow","rightarrow","leftarrow","rightarrow"],"right_color":"lightblue","left_color":"orange","left_mu":40,"right_mu":52,"left_numbers":[56,42,57,38,34,42,45,48,39,40],"right_numbers":[45,48,55,58,56,49,47,52,40,57],"points_earned":501,"phase":"task","trial_type":"horizons-task","trial_index":54,"time_elapsed":1338218,"internal_node_id":"0.0-50.0","task_version":"0.2"},{"response_times":[353.815000038594,464.16500001214445,520.0499999336898,711.7249999428168,912.099999957718],"keys_pressed":["leftarrow","rightarrow","leftarrow","leftarrow","rightarrow"],"horizon":5,"forced_choices":["leftarrow","rightarrow","leftarrow","leftarrow"],"right_color":"orange","left_color":"lightblue","left_mu":60,"right_mu":80,"left_numbers":[55,58,58,61,47],"right_numbers":[89,84,71,70,67],"points_earned":325,"phase":"task","trial_type":"horizons-task","trial_index":55,"time_elapsed":1342682,"internal_node_id":"0.0-51.0","task_version":"0.2"},{"response_times":[369.82000002171844,680.019999970682,344.1449999809265,879.9700000090525,1450.440000044182],"keys_pressed":["leftarrow","leftarrow","rightarrow","leftarrow","rightarrow"],"horizon":5,"forced_choices":["leftarrow","leftarrow","rightarrow","leftarrow"],"right_color":"lightblue","left_color":"orange","left_mu":60,"right_mu":64,"left_numbers":[47,70,65,62,67],"right_numbers":[52,82,72,70,75],"points_earned":326,"phase":"task","trial_type":"horizons-task","trial_index":56,"time_elapsed":1347908,"internal_node_id":"0.0-52.0","task_version":"0.2"},{"response_times":[383.3800000138581,423.7600000342354,520.2049999497831,319.75500006228685,2848.009999957867,496.15999998059124,967.8599999751896,344.1950000124052,383.85500002186745,351.799999945797],"keys_pressed":["rightarrow","leftarrow","leftarrow","rightarrow","leftarrow","rightarrow","rightarrow","leftarrow","rightarrow","rightarrow"],"horizon":10,"forced_choices":["rightarrow","leftarrow","leftarrow","rightarrow"],"right_color":"lightblue","left_color":"orange","left_mu":40,"right_mu":52,"left_numbers":[29,34,54,27,34,37,52,43,31,46],"right_numbers":[39,58,45,44,48,58,52,66,47,48],"points_earned":453,"phase":"task","trial_type":"horizons-task","trial_index":57,"time_elapsed":1356449,"internal_node_id":"0.0-53.0","task_version":"0.2"},{"response_times":[428.31999994814396,349.9699999811128,736.0549999866635,383.9650000445545,2023.975000018254],"keys_pressed":["rightarrow","leftarrow","leftarrow","rightarrow","rightarrow"],"horizon":5,"forced_choices":["rightarrow","leftarrow","leftarrow","rightarrow"],"right_color":"orange","left_color":"lightblue","left_mu":40,"right_mu":48,"left_numbers":[47,39,48,40,34],"right_numbers":[50,49,45,46,53],"points_earned":236,"phase":"task","trial_type":"horizons-task","trial_index":58,"time_elapsed":1361874,"internal_node_id":"0.0-54.0","task_version":"0.2"},{"response_times":[465.75500001199543,527.9400000581518,696.1100000189617,455.65000001806766,944.1149999620393,1391.9199999654666,272.0700000645593,297.38000000361353,294.41999993287027,320.24000003002584],"keys_pressed":["rightarrow","rightarrow","rightarrow","leftarrow","leftarrow","rightarrow","leftarrow","leftarrow","leftarrow","leftarrow"],"horizon":10,"forced_choices":["rightarrow","rightarrow","rightarrow","leftarrow"],"right_color":"lightblue","left_color":"orange","left_mu":60,"right_mu":30,"left_numbers":[74,61,61,62,83,54,72,51,69,62],"right_numbers":[28,32,34,28,20,14,32,25,44,32],"points_earned":507,"phase":"task","trial_type":"horizons-task","trial_index":59,"time_elapsed":1369043,"internal_node_id":"0.0-55.0","task_version":"0.2"},{"response_times":[329.6900000423193,447.7550000883639,600.0099999364465,848.1400000164285,2807.9849999630824],"keys_pressed":["leftarrow","rightarrow","rightarrow","rightarrow","rightarrow"],"horizon":5,"forced_choices":["leftarrow","rightarrow","rightarrow","rightarrow"],"right_color":"orange","left_color":"lightblue","left_mu":60,"right_mu":48,"left_numbers":[56,60,54,62,54],"right_numbers":[60,62,53,62,50],"points_earned":283,"phase":"task","trial_type":"horizons-task","trial_index":60,"time_elapsed":1375578,"internal_node_id":"0.0-56.0","task_version":"0.2"},{"response_times":[442.2400000039488,416.15000006277114,439.93499991483986,609.1400000732392,502.6049999287352,1152.2000000113621,191.86499994248152,296.1050000740215,224.57500000018626,327.335000038147],"keys_pressed":["leftarrow","leftarrow","rightarrow","leftarrow","rightarrow","rightarrow","rightarrow","rightarrow","rightarrow","rightarrow"],"horizon":10,"forced_choices":["leftarrow","leftarrow","rightarrow","leftarrow"],"right_color":"lightblue","left_color":"orange","left_mu":60,"right_mu":90,"left_numbers":[52,68,66,59,58,55,68,55,70,68],"right_numbers":[77,87,88,92,102,97,93,91,87,88],"points_earned":825,"phase":"task","trial_type":"horizons-task","trial_index":61,"time_elapsed":1381682,"internal_node_id":"0.0-57.0","task_version":"0.2"},{"response_times":[418.3150000171736,352.004999993369,471.92500007804483,495.9749999688938,1111.9999999646097,335.98500001244247,903.9849999826401,519.8650000384077,351.8899999326095,639.9799999780953],"keys_pressed":["leftarrow","rightarrow","leftarrow","rightarrow","leftarrow","rightarrow","leftarrow","rightarrow","leftarrow","leftarrow"],"horizon":10,"forced_choices":["leftarrow","rightarrow","leftarrow","rightarrow"],"right_color":"orange","left_color":"lightblue","left_mu":60,"right_mu":48,"left_numbers":[51,66,66,74,68,52,59,54,56,60],"right_numbers":[50,44,52,48,60,41,61,50,44,68],"points_earned":543,"phase":"task","trial_type":"horizons-task","trial_index":62,"time_elapsed":1388785,"internal_node_id":"0.0-58.0","task_version":"0.2"},{"response_times":[484.0750000439584,359.35499996412545,543.3999999659136,392.0299999881536,1463.895000051707,464.1950000077486,935.994999948889,335.72500001173466,248.1999999145046,351.7799999099225],"keys_pressed":["leftarrow","rightarrow","leftarrow","rightarrow","leftarrow","leftarrow","rightarrow","leftarrow","leftarrow","leftarrow"],"horizon":10,"forced_choices":["leftarrow","rightarrow","leftarrow","rightarrow"],"right_color":"lightblue","left_color":"orange","left_mu":40,"right_mu":10,"left_numbers":[48,36,48,30,42,51,41,32,42,41],"right_numbers":[27,12,22,0,11,9,18,10,9,2],"points_earned":334,"phase":"task","trial_type":"horizons-task","trial_index":63,"time_elapsed":1395866,"internal_node_id":"0.0-59.0","task_version":"0.2"},{"response_times":[338.0149999866262,391.98499999474734,720.134999952279,719.9500000569969,743.9849999500439,577.6649999897927,390.06999996490777,312.06999998539686,928.0100000323728,392.27000006940216],"keys_pressed":["rightarrow","leftarrow","leftarrow","leftarrow","rightarrow","rightarrow","leftarrow","rightarrow","rightarrow","rightarrow"],"horizon":10,"forced_choices":["rightarrow","leftarrow","leftarrow","leftarrow"],"right_color":"lightblue","left_color":"orange","left_mu":60,"right_mu":68,"left_numbers":[60,56,59,65,63,43,56,45,67,48],"right_numbers":[82,76,68,64,78,68,81,81,74,55],"points_earned":674,"phase":"task","trial_type":"horizons-task","trial_index":64,"time_elapsed":1402896,"internal_node_id":"0.0-60.0","task_version":"0.2"},{"response_times":[468.3400000212714,559.9650000222027,544.1400000127032,1599.9250001041219,839.9249999783933],"keys_pressed":["rightarrow","rightarrow","leftarrow","rightarrow","rightarrow"],"horizon":5,"forced_choices":["rightarrow","rightarrow","leftarrow","rightarrow"],"right_color":"lightblue","left_color":"orange","left_mu":40,"right_mu":52,"left_numbers":[41,52,39,54,51],"right_numbers":[57,65,62,49,45],"points_earned":255,"phase":"task","trial_type":"horizons-task","trial_index":65,"time_elapsed":1408410,"internal_node_id":"0.0-61.0","task_version":"0.2"},{"response_times":[298.3650000533089,689.2150000203401,430.9349999530241,759.8949999082834,2440.0900000473484,663.8100000564009,1744.139999966137,287.99500002060086,495.8699999842793,440.0699998950586],"keys_pressed":["rightarrow","rightarrow","leftarrow","leftarrow","rightarrow","leftarrow","leftarrow","rightarrow","rightarrow","rightarrow"],"horizon":10,"forced_choices":["rightarrow","rightarrow","leftarrow","leftarrow"],"right_color":"lightblue","left_color":"orange","left_mu":60,"right_mu":68,"left_numbers":[65,54,65,52,46,52,62,53,47,60],"right_numbers":[75,54,58,73,65,58,54,72,67,59],"points_earned":623,"phase":"task","trial_type":"horizons-task","trial_index":66,"time_elapsed":1418163,"internal_node_id":"0.0-62.0","task_version":"0.2"},{"response_times":[641.6100000496954,809.235000051558,390.90500003658235,791.9649999821559,575.8899999782443,399.6500000357628,336.3149999640882,303.65499993786216,1336.0600000014529,864.1050000442192],"keys_pressed":["leftarrow","leftarrow","rightarrow","rightarrow","leftarrow","rightarrow","rightarrow","rightarrow","rightarrow","rightarrow"],"horizon":10,"forced_choices":["leftarrow","leftarrow","rightarrow","rightarrow"],"right_color":"orange","left_color":"lightblue","left_mu":60,"right_mu":80,"left_numbers":[58,44,47,60,53,58,66,67,40,64],"right_numbers":[79,78,85,77,77,93,66,81,87,77],"points_earned":721,"phase":"task","trial_type":"horizons-task","trial_index":67,"time_elapsed":1426115,"internal_node_id":"0.0-63.0","task_version":"0.2"},{"response_times":[609.9549999926239,463.9099999330938,623.9800000330433,896.0199999855831,1385.6049999594688,998.3550000470132,847.9450000450015,1263.9699999708682,248.02000005729496,991.9699999736622],"keys_pressed":["rightarrow","leftarrow","rightarrow","rightarrow","leftarrow","leftarrow","rightarrow","leftarrow","rightarrow","leftarrow"],"horizon":10,"forced_choices":["rightarrow","leftarrow","rightarrow","rightarrow"],"right_color":"orange","left_color":"lightblue","left_mu":40,"right_mu":36,"left_numbers":[31,31,50,35,42,26,47,42,42,45],"right_numbers":[28,25,34,42,43,32,36,29,31,46],"points_earned":357,"phase":"task","trial_type":"horizons-task","trial_index":68,"time_elapsed":1435947,"internal_node_id":"0.0-64.0","task_version":"0.2"},{"response_times":[569.5299999788404,752.2549999412149,487.6249999506399,632.0299999788404,1296.1700001033023],"keys_pressed":["rightarrow","rightarrow","leftarrow","leftarrow","leftarrow"],"horizon":5,"forced_choices":["rightarrow","rightarrow","leftarrow","leftarrow"],"right_color":"lightblue","left_color":"orange","left_mu":60,"right_mu":40,"left_numbers":[43,73,63,45,64],"right_numbers":[45,44,35,33,36],"points_earned":261,"phase":"task","trial_type":"horizons-task","trial_index":69,"time_elapsed":1441185,"internal_node_id":"0.0-65.0","task_version":"0.2"},{"response_times":[427.460000035353,534.7100000362843,1048.0250000255182,511.99500006623566,791.9900000561029,431.81999993976206,376.1449999874458,655.9300000080839,1031.7799999611452,3000.1000000629574],"keys_pressed":["rightarrow","leftarrow","leftarrow","rightarrow","rightarrow","rightarrow","leftarrow","rightarrow","leftarrow","rightarrow"],"horizon":10,"forced_choices":["rightarrow","leftarrow","leftarrow","rightarrow"],"right_color":"orange","left_color":"lightblue","left_mu":60,"right_mu":72,"left_numbers":[58,53,51,72,62,72,75,60,73,54],"right_numbers":[79,75,61,78,74,64,78,72,62,60],"points_earned":679,"phase":"task","trial_type":"horizons-task","trial_index":70,"time_elapsed":1451498,"internal_node_id":"0.0-66.0","task_version":"0.2"},{"response_times":[451.3250000309199,542.215000023134,392.1150000533089,567.9699999745935,456.16999990306795],"keys_pressed":["leftarrow","leftarrow","rightarrow","rightarrow","leftarrow"],"horizon":5,"forced_choices":["leftarrow","leftarrow","rightarrow","rightarrow"],"right_color":"orange","left_color":"lightblue","left_mu":40,"right_mu":36,"left_numbers":[43,49,53,33,29],"right_numbers":[27,28,33,39,44],"points_earned":193,"phase":"task","trial_type":"horizons-task","trial_index":71,"time_elapsed":1455410,"internal_node_id":"0.0-67.0","task_version":"0.2"},{"response_times":[466.0700000822544,800.0600000377744,1672.0499999355525,456.0899999924004,2000.010000076145],"keys_pressed":["leftarrow","leftarrow","leftarrow","rightarrow","rightarrow"],"horizon":5,"forced_choices":["leftarrow","leftarrow","leftarrow","rightarrow"],"right_color":"orange","left_color":"lightblue","left_mu":60,"right_mu":56,"left_numbers":[57,44,51,47,52],"right_numbers":[52,63,47,55,50],"points_earned":257,"phase":"task","trial_type":"horizons-task","trial_index":72,"time_elapsed":1462307,"internal_node_id":"0.0-68.0","task_version":"0.2"},{"response_times":[714.6949999732897,726.8400000175461,535.8550000237301,639.9849998997524,5056.00000009872],"keys_pressed":["rightarrow","rightarrow","leftarrow","leftarrow","rightarrow"],"horizon":5,"forced_choices":["rightarrow","rightarrow","leftarrow","leftarrow"],"right_color":"lightblue","left_color":"orange","left_mu":40,"right_mu":44,"left_numbers":[45,48,55,38,34],"right_numbers":[46,40,55,36,38],"points_earned":217,"phase":"task","trial_type":"horizons-task","trial_index":73,"time_elapsed":1471482,"internal_node_id":"0.0-69.0","task_version":"0.2"},{"response_times":[346.01500001735985,400.21500003058463,455.7450000429526,905.7800000300631,1094.3800000241026],"keys_pressed":["leftarrow","rightarrow","rightarrow","rightarrow","leftarrow"],"horizon":5,"forced_choices":["leftarrow","rightarrow","rightarrow","rightarrow"],"right_color":"lightblue","left_color":"orange","left_mu":60,"right_mu":40,"left_numbers":[49,49,48,64,45],"right_numbers":[39,38,45,25,42],"points_earned":202,"phase":"task","trial_type":"horizons-task","trial_index":74,"time_elapsed":1476186,"internal_node_id":"0.0-70.0","task_version":"0.2"},{"response_times":[474.2850000038743,416.0299999639392,728.2549999654293,1048.039999906905,887.7849999116734],"keys_pressed":["rightarrow","leftarrow","leftarrow","leftarrow","rightarrow"],"horizon":5,"forced_choices":["rightarrow","leftarrow","leftarrow","leftarrow"],"right_color":"orange","left_color":"lightblue","left_mu":40,"right_mu":70,"left_numbers":[41,35,49,33,38],"right_numbers":[61,73,69,87,73],"points_earned":251,"phase":"task","trial_type":"horizons-task","trial_index":75,"time_elapsed":1481245,"internal_node_id":"0.0-71.0","task_version":"0.2"},{"response_times":[511.63500000257045,415.7649999251589,848.0599999893457,1129.1599998949096,654.7400000272319],"keys_pressed":["leftarrow","rightarrow","leftarrow","rightarrow","leftarrow"],"horizon":5,"forced_choices":["leftarrow","rightarrow","leftarrow","rightarrow"],"right_color":"lightblue","left_color":"orange","left_mu":40,"right_mu":20,"left_numbers":[35,44,40,32,25],"right_numbers":[20,10,25,35,12],"points_earned":145,"phase":"task","trial_type":"horizons-task","trial_index":76,"time_elapsed":1486306,"internal_node_id":"0.0-72.0","task_version":"0.2"},{"response_times":[386.48500002454966,400.2549999859184,655.8300000615418,2399.9649999896064,1095.975000062026,855.8899998897687,383.98000004235655,984.070000005886,1241.4449999341741,614.3750000046566],"keys_pressed":["rightarrow","leftarrow","leftarrow","leftarrow","rightarrow","rightarrow","leftarrow","leftarrow","rightarrow","leftarrow"],"horizon":10,"forced_choices":["rightarrow","leftarrow","leftarrow","leftarrow"],"right_color":"lightblue","left_color":"orange","left_mu":40,"right_mu":20,"left_numbers":[47,37,48,33,41,38,30,54,32,38],"right_numbers":[31,5,17,21,16,33,3,42,26,24],"points_earned":346,"phase":"task","trial_type":"horizons-task","trial_index":77,"time_elapsed":1496825,"internal_node_id":"0.0-73.0","task_version":"0.2"},{"response_times":[482.7600000426173,448.28999997116625,815.5750000150874,528.1599999871105,871.9349999446422,527.9749999754131,560.0150000536814,583.8349999394268,328.15499999560416,415.915000019595],"keys_pressed":["leftarrow","rightarrow","rightarrow","leftarrow","leftarrow","rightarrow","rightarrow","leftarrow","rightarrow","rightarrow"],"horizon":10,"forced_choices":["leftarrow","rightarrow","rightarrow","leftarrow"],"right_color":"orange","left_color":"lightblue","left_mu":40,"right_mu":60,"left_numbers":[43,38,54,40,46,31,50,32,48,37],"right_numbers":[55,67,58,62,62,64,51,60,53,56],"points_earned":510,"phase":"task","trial_type":"horizons-task","trial_index":78,"time_elapsed":1503890,"internal_node_id":"0.0-74.0","task_version":"0.2"},{"response_times":[842.8049999056384,630.8949999511242,591.9350000331178,823.7850000150502,3824.2749999044463],"keys_pressed":["rightarrow","leftarrow","leftarrow","leftarrow","leftarrow"],"horizon":5,"forced_choices":["rightarrow","leftarrow","leftarrow","leftarrow"],"right_color":"lightblue","left_color":"orange","left_mu":40,"right_mu":20,"left_numbers":[39,45,36,32,47],"right_numbers":[23,18,21,29,26],"points_earned":183,"phase":"task","trial_type":"horizons-task","trial_index":79,"time_elapsed":1512106,"internal_node_id":"0.0-75.0","task_version":"0.2"},{"response_times":[746.2600000435486,631.9350000703707,2802.0799999358132,805.7999999728054,1384.0399999171495],"keys_pressed":["leftarrow","rightarrow","rightarrow","leftarrow","leftarrow"],"horizon":5,"forced_choices":["leftarrow","rightarrow","rightarrow","leftarrow"],"right_color":"lightblue","left_color":"orange","left_mu":40,"right_mu":32,"left_numbers":[37,32,42,42,43],"right_numbers":[38,32,28,32,28],"points_earned":182,"phase":"task","trial_type":"horizons-task","trial_index":80,"time_elapsed":1519978,"internal_node_id":"0.0-76.0","task_version":"0.2"},{"response_times":[1249.4650000007823,415.8600000664592,736.0699999844655,592.2949999803677,903.5600000061095,520.2450000215322,576.0599999921396,327.5200000498444,544.1649999702349,481.3500000163913],"keys_pressed":["leftarrow","rightarrow","rightarrow","leftarrow","leftarrow","rightarrow","leftarrow","rightarrow","rightarrow","rightarrow"],"horizon":10,"forced_choices":["leftarrow","rightarrow","rightarrow","leftarrow"],"right_color":"lightblue","left_color":"orange","left_mu":60,"right_mu":64,"left_numbers":[60,46,62,44,52,77,64,56,59,60],"right_numbers":[62,64,67,83,64,57,68,74,64,58],"points_earned":604,"phase":"task","trial_type":"horizons-task","trial_index":81,"time_elapsed":1527826,"internal_node_id":"0.0-77.0","task_version":"0.2"},{"response_times":[4761.264999979176,463.88000005390495,423.97499992512167,720.0450000818819,1103.804999962449,488.05499996524304,431.8549999734387,705.7750000385568,5582.4300000676885,2695.9299999289215],"keys_pressed":["leftarrow","leftarrow","rightarrow","rightarrow","rightarrow","rightarrow","leftarrow","leftarrow","leftarrow","leftarrow"],"horizon":10,"forced_choices":["leftarrow","leftarrow","rightarrow","rightarrow"],"right_color":"orange","left_color":"lightblue","left_mu":40,"right_mu":36,"left_numbers":[49,41,38,26,54,44,39,48,42,34],"right_numbers":[43,33,33,46,31,42,41,34,35,26],"points_earned":405,"phase":"task","trial_type":"horizons-task","trial_index":82,"time_elapsed":1546706,"internal_node_id":"0.0-78.0","task_version":"0.2"},{"response_times":[498.53000009898096,590.8000000054017,528.0949999578297,911.9699998991564,1247.8200000477955,408.1500000320375,439.8700000019744,488.3699999190867,1167.6549999974668,360.2449999889359],"keys_pressed":["leftarrow","rightarrow","rightarrow","rightarrow","leftarrow","leftarrow","leftarrow","rightarrow","rightarrow","leftarrow"],"horizon":10,"forced_choices":["leftarrow","rightarrow","rightarrow","rightarrow"],"right_color":"orange","left_color":"lightblue","left_mu":60,"right_mu":48,"left_numbers":[51,66,60,46,59,57,56,46,58,47],"right_numbers":[42,52,55,53,51,34,36,40,49,48],"points_earned":519,"phase":"task","trial_type":"horizons-task","trial_index":83,"time_elapsed":1554851,"internal_node_id":"0.0-79.0","task_version":"0.2"},{"response_times":[440.94500003848225,424.059999990277,736.4700000034645,503.5349999088794,1361.0700001008809],"keys_pressed":["leftarrow","rightarrow","leftarrow","rightarrow","leftarrow"],"horizon":5,"forced_choices":["leftarrow","rightarrow","leftarrow","rightarrow"],"right_color":"orange","left_color":"lightblue","left_mu":40,"right_mu":28,"left_numbers":[46,27,33,41,37],"right_numbers":[26,30,27,32,40],"points_earned":178,"phase":"task","trial_type":"horizons-task","trial_index":84,"time_elapsed":1559820,"internal_node_id":"0.0-80.0","task_version":"0.2"},{"response_times":[4878.915000008419,695.9450000431389,632.090000086464,751.9500000635162,1071.9100000569597,529.3900000397116,358.42499998398125,608.0150000052527,472.0499999821186,664.1100000124425],"keys_pressed":["leftarrow","leftarrow","rightarrow","leftarrow","rightarrow","rightarrow","leftarrow","leftarrow","leftarrow","leftarrow"],"horizon":10,"forced_choices":["leftarrow","leftarrow","rightarrow","leftarrow"],"right_color":"orange","left_color":"lightblue","left_mu":60,"right_mu":52,"left_numbers":[45,53,51,65,31,57,56,62,54,68],"right_numbers":[63,48,56,49,60,51,62,48,54,47],"points_earned":570,"phase":"task","trial_type":"horizons-task","trial_index":85,"time_elapsed":1571985,"internal_node_id":"0.0-81.0","task_version":"0.2"},{"response_times":[499.06499998178333,448.0650000041351,591.6300000390038,424.1000000620261,800.0650000758469,311.9400000432506,391.9749999186024,416.12499998882413,503.7600001087412,328.08000000659376],"keys_pressed":["rightarrow","leftarrow","leftarrow","leftarrow","leftarrow","rightarrow","rightarrow","rightarrow","rightarrow","rightarrow"],"horizon":10,"forced_choices":["rightarrow","leftarrow","leftarrow","leftarrow"],"right_color":"orange","left_color":"lightblue","left_mu":40,"right_mu":70,"left_numbers":[45,39,39,23,46,24,47,45,57,38],"right_numbers":[77,75,68,69,59,67,68,71,78,75],"points_earned":583,"phase":"task","trial_type":"horizons-task","trial_index":86,"time_elapsed":1578204,"internal_node_id":"0.0-82.0","task_version":"0.2"},{"response_times":[545.1249999459833,542.6300000399351,383.9250000892207,504.1450000135228,583.9699999196455],"keys_pressed":["leftarrow","leftarrow","rightarrow","leftarrow","leftarrow"],"horizon":5,"forced_choices":["leftarrow","leftarrow","rightarrow","leftarrow"],"right_color":"orange","left_color":"lightblue","left_mu":60,"right_mu":52,"left_numbers":[61,72,60,51,56],"right_numbers":[46,54,59,36,69],"points_earned":299,"phase":"task","trial_type":"horizons-task","trial_index":87,"time_elapsed":1582265,"internal_node_id":"0.0-83.0","task_version":"0.2"},{"response_times":[467.0250000199303,360.1699999999255,415.70999997202307,415.9950000466779,1119.9300000444055,464.075000025332,496.030000038445,415.8649999881163,352.1249999757856,383.69499996770173],"keys_pressed":["leftarrow","rightarrow","leftarrow","rightarrow","leftarrow","rightarrow","leftarrow","leftarrow","leftarrow","leftarrow"],"horizon":10,"forced_choices":["leftarrow","rightarrow","leftarrow","rightarrow"],"right_color":"lightblue","left_color":"orange","left_mu":40,"right_mu":20,"left_numbers":[41,41,49,45,34,31,43,34,48,36],"right_numbers":[29,18,22,21,4,12,19,7,15,30],"points_earned":336,"phase":"task","trial_type":"horizons-task","trial_index":88,"time_elapsed":1588659,"internal_node_id":"0.0-84.0","task_version":"0.2"},{"response_times":[514.8550000740215,382.67500000074506,487.97999997623265,815.8849999308586,288.399999961257,455.6699999375269,391.7650000657886,296.1799999466166,328.1750000314787,351.81000002194196],"keys_pressed":["leftarrow","rightarrow","leftarrow","leftarrow","rightarrow","rightarrow","rightarrow","rightarrow","rightarrow","rightarrow"],"horizon":10,"forced_choices":["leftarrow","rightarrow","leftarrow","leftarrow"],"right_color":"orange","left_color":"lightblue","left_mu":60,"right_mu":80,"left_numbers":[54,55,57,36,62,56,38,67,52,63],"right_numbers":[86,86,87,84,88,86,88,79,67,78],"points_earned":719,"phase":"task","trial_type":"horizons-task","trial_index":89,"time_elapsed":1594474,"internal_node_id":"0.0-85.0","task_version":"0.2"},{"response_times":[434.2150000156835,464.1750000882894,383.8099999120459,776.0400000261143,1311.8349999422207,415.96500005107373,512.250000028871,449.2249999893829,486.670000012964,351.8700000131503],"keys_pressed":["rightarrow","rightarrow","leftarrow","leftarrow","rightarrow","leftarrow","leftarrow","rightarrow","leftarrow","leftarrow"],"horizon":10,"forced_choices":["rightarrow","rightarrow","leftarrow","leftarrow"],"right_color":"lightblue","left_color":"orange","left_mu":60,"right_mu":40,"left_numbers":[75,64,52,76,47,70,62,45,70,46],"right_numbers":[52,40,59,27,34,31,41,49,25,34],"points_earned":551,"phase":"task","trial_type":"horizons-task","trial_index":90,"time_elapsed":1601562,"internal_node_id":"0.0-86.0","task_version":"0.2"},{"response_times":[569.9400000739843,384.18999989517033,399.8049999354407,631.969999987632,1271.9700000016019],"keys_pressed":["rightarrow","leftarrow","rightarrow","leftarrow","leftarrow"],"horizon":5,"forced_choices":["rightarrow","leftarrow","rightarrow","leftarrow"],"right_color":"orange","left_color":"lightblue","left_mu":60,"right_mu":52,"left_numbers":[47,69,61,61,48],"right_numbers":[53,66,47,42,57],"points_earned":278,"phase":"task","trial_type":"horizons-task","trial_index":91,"time_elapsed":1606323,"internal_node_id":"0.0-87.0","task_version":"0.2"},{"rt":28896.859999978915,"responses":{"age":"19","gender-categorical":"Male","gender-free-response":"","ethnicity":"Not Hispanic or Latino","race":["White"],"language":"Yes","fluency":"Very well"},"survey":"demographics","trial_type":"survey-demo","trial_index":92,"time_elapsed":1635222,"internal_node_id":"0.0-88.0","task_version":"0.2"},{"rt":103592.7499999525,"responses":{"difficulty":"5","fun":"5","clarity":"5","strategy":"look at the average number of points a given machine gives.","feedback":""},"survey":"debrief","trial_type":"survey-debrief","trial_index":93,"time_elapsed":1738817,"internal_node_id":"0.0-89.0","task_version":"0.2","interactions":"[{\"event\":\"blur\",\"trial\":0,\"time\":2027},{\"event\":\"focus\",\"trial\":0,\"time\":4017},{\"event\":\"blur\",\"trial\":0,\"time\":8926},{\"event\":\"focus\",\"trial\":0,\"time\":9628},{\"event\":\"blur\",\"trial\":1,\"time\":46746},{\"event\":\"focus\",\"trial\":1,\"time\":55177},{\"event\":\"blur\",\"trial\":1,\"time\":61573},{\"event\":\"focus\",\"trial\":1,\"time\":70759},{\"event\":\"blur\",\"trial\":1,\"time\":111348},{\"event\":\"focus\",\"trial\":1,\"time\":117772},{\"event\":\"blur\",\"trial\":1,\"time\":129091},{\"event\":\"focus\",\"trial\":1,\"time\":132646},{\"event\":\"blur\",\"trial\":1,\"time\":140452},{\"event\":\"focus\",\"trial\":1,\"time\":149458},{\"event\":\"blur\",\"trial\":1,\"time\":161331},{\"event\":\"focus\",\"trial\":1,\"time\":165498},{\"event\":\"blur\",\"trial\":1,\"time\":175484},{\"event\":\"focus\",\"trial\":1,\"time\":188463},{\"event\":\"blur\",\"trial\":1,\"time\":218699},{\"event\":\"focus\",\"trial\":1,\"time\":222792},{\"event\":\"blur\",\"trial\":2,\"time\":276827},{\"event\":\"focus\",\"trial\":2,\"time\":281006},{\"event\":\"blur\",\"trial\":2,\"time\":397210},{\"event\":\"focus\",\"trial\":2,\"time\":448133},{\"event\":\"blur\",\"trial\":2,\"time\":449837},{\"event\":\"focus\",\"trial\":2,\"time\":451842},{\"event\":\"blur\",\"trial\":2,\"time\":491167},{\"event\":\"focus\",\"trial\":2,\"time\":494175},{\"event\":\"blur\",\"trial\":3,\"time\":502239},{\"event\":\"focus\",\"trial\":3,\"time\":509565},{\"event\":\"blur\",\"trial\":3,\"time\":513988},{\"event\":\"focus\",\"trial\":3,\"time\":519052},{\"event\":\"blur\",\"trial\":3,\"time\":531690},{\"event\":\"focus\",\"trial\":3,\"time\":629929},{\"event\":\"blur\",\"trial\":3,\"time\":644445},{\"event\":\"focus\",\"trial\":3,\"time\":657882},{\"event\":\"blur\",\"trial\":3,\"time\":663336},{\"event\":\"focus\",\"trial\":3,\"time\":674884},{\"event\":\"blur\",\"trial\":3,\"time\":687079},{\"event\":\"focus\",\"trial\":3,\"time\":692092},{\"event\":\"blur\",\"trial\":3,\"time\":705079},{\"event\":\"focus\",\"trial\":3,\"time\":708056},{\"event\":\"blur\",\"trial\":3,\"time\":727343},{\"event\":\"focus\",\"trial\":3,\"time\":732168},{\"event\":\"blur\",\"trial\":4,\"time\":742822},{\"event\":\"focus\",\"trial\":4,\"time\":747919},{\"event\":\"blur\",\"trial\":4,\"time\":775196},{\"event\":\"focus\",\"trial\":4,\"time\":780061},{\"event\":\"blur\",\"trial\":4,\"time\":837212},{\"event\":\"focus\",\"trial\":4,\"time\":842819},{\"event\":\"blur\",\"trial\":4,\"time\":843852},{\"event\":\"focus\",\"trial\":4,\"time\":846508},{\"event\":\"blur\",\"trial\":4,\"time\":847273},{\"event\":\"focus\",\"trial\":4,\"time\":850491},{\"event\":\"blur\",\"trial\":4,\"time\":851714},{\"event\":\"focus\",\"trial\":4,\"time\":853916},{\"event\":\"blur\",\"trial\":4,\"time\":854602},{\"event\":\"focus\",\"trial\":4,\"time\":858064},{\"event\":\"blur\",\"trial\":4,\"time\":858664},{\"event\":\"focus\",\"trial\":4,\"time\":863988},{\"event\":\"blur\",\"trial\":51,\"time\":1298698},{\"event\":\"focus\",\"trial\":51,\"time\":1299488},{\"event\":\"blur\",\"trial\":51,\"time\":1301198},{\"event\":\"focus\",\"trial\":51,\"time\":1304630},{\"event\":\"blur\",\"trial\":51,\"time\":1304631},{\"event\":\"focus\",\"trial\":51,\"time\":1307256},{\"event\":\"blur\",\"trial\":51,\"time\":1308090},{\"event\":\"focus\",\"trial\":51,\"time\":1315235},{\"event\":\"blur\",\"trial\":82,\"time\":1529969},{\"event\":\"focus\",\"trial\":82,\"time\":1531495},{\"event\":\"blur\",\"trial\":93,\"time\":1654524},{\"event\":\"focus\",\"trial\":93,\"time\":1692534},{\"event\":\"blur\",\"trial\":93,\"time\":1695806},{\"event\":\"focus\",\"trial\":93,\"time\":1735934}]"}]