[{"view_history":"[{\"page_index\":0,\"viewing_time\":1324.5699999970384}]","rt":1324.850000004517,"trial_type":"instructions","trial_index":0,"time_elapsed":1332,"internal_node_id":"0.0-0.0","task_version":"0.2"},{"item_order":[3,5,9,12,0,6,7,10,8,2,13,4,11,15,14,1],"responses":{"Q04":"5","Q06":"4","Q10":"4","Q13":"4","Q01":"4","Q07":"5","Q08":"3","Q11":"4","Q09":"3","Q03":"3","Q14":"0","Q05":"2","Q12":"3","Q16":"5","Q15":"4","Q02":"2"},"radio_events":[2866.619999986142,6072.324999986449,11427.289999992354,15185.269999987213,16006.685000000289,22363.389999984065,24669.194999994943,27155.29999998398,28474.439999990864,39150.63499999815,44179.644999996526,45349.51999998884,49275.94500000123,51773.40999999433,53347.45499998098,56160.934999992605,58692.61999998707],"key_events":[],"mouse_events":[0.5299999902490526,2866.619999986142,4508.834999985993,6072.324999986449,8243.344999995315,11427.289999992354,12374.894999986282,13745.564999990165,15185.269999987213,16006.685000000289,18211.269999999786,22363.389999984065,24669.194999994943,27155.29999998398,28474.439999990864,38217.24499997799,39150.63499999815,44179.644999996526,45349.51999998884,49275.94500000123,51773.40999999433,53347.45499998098,56160.934999992605,58692.61999998707,59558.9349999791],"rt":59564.87499998184,"survey":"nfc","trial_type":"survey-template","trial_index":1,"time_elapsed":60903,"internal_node_id":"0.0-1.0","task_version":"0.2"},{"item_order":[4,9,7,11,2,10,0,14,16,8,5,1,15,6,13,3,12],"responses":{"Q05":"3","Q10":"4","Q08":"4","Q12":"3","Q03":"3","Q11":"3","Q01":"4","Q15":"3","Q17":"0","Q09":"3","Q06":"4","Q02":"3","Q16":"4","Q07":"3","Q14":"2","Q04":"3","Q13":"3"},"radio_events":[4161.244999995688,30880.60000000405,32207.634999998845,34131.69000000926,40983.34999999497,42805.93500001123,89449.21000002068,91114.83500001486,93758.31999999355,97931.89000000712,99743.53000000701,100868.51500000921,101633.73000000138,104086.62499999627,105672.48000000836,108023.90000000014,109148.8300000201,109970.03500000574],"key_events":[],"mouse_events":[4161.244999995688,30880.60000000405,32207.634999998845,34131.69000000926,40983.34999999497,42805.93500001123,89449.21000002068,91114.83500001486,92982.40000000806,93758.31999999355,97931.89000000712,99743.53000000701,100868.51500000921,101633.73000000138,104086.62499999627,104851.42000002088,105672.48000000836,107382.8649999923,108023.90000000014,109148.8300000201,109970.03500000574,110870.35500002094],"rt":110874.96000001556,"survey":"pswq","trial_type":"survey-template","trial_index":2,"time_elapsed":171785,"internal_node_id":"0.0-2.0","task_version":"0.2"},{"item_order":[0,5,7,2,9,11,8,1,6,12,10,4,3],"responses":{"Q01":"2","Q06":"2","Q08":"2","Q03":"2","Q10":"3","Q12":"2","Q09":"1","Q02":"1","Q07":"2","Q13":"4","Q11":"2","Q05":"1","Q04":"1"},"radio_events":[6536.93000000203,9337.650000001304,10530.690000014147,11475.80499999458,13129.899999999907,15480.600000009872,18135.475000017323,19643.43500000541,28216.090000001714,30567.674999998417,32041.36999999173,33998.84000001475,35528.64000000409,37700.264999992214,39365.86499999976],"key_events":[],"mouse_events":[6536.93000000203,9337.650000001304,10530.690000014147,11475.80499999458,13129.899999999907,14412.630000006175,14895.864999998594,15480.600000009872,16572.430000000168,17381.915000005392,18135.475000017323,18934.71000000136,19643.43500000541,28216.090000001714,30567.674999998417,32041.36999999173,33998.84000001475,35528.64000000409,37700.264999992214,38994.15000001318,39365.86499999976,40433.915000001434],"rt":40437.529999995604,"survey":"ius12","trial_type":"survey-template","trial_index":3,"time_elapsed":212229,"internal_node_id":"0.0-3.0","task_version":"0.2"},{"view_history":"[{\"page_index\":0,\"viewing_time\":3308.649999991758},{\"page_index\":1,\"viewing_time\":4062.160000001313},{\"page_index\":2,\"viewing_time\":4907.99499998684},{\"page_index\":3,\"viewing_time\":3761.5700000023935},{\"page_index\":4,\"viewing_time\":3506.469999992987},{\"page_index\":5,\"viewing_time\":2216.0100000037346},{\"page_index\":6,\"viewing_time\":3009.760000015376},{\"page_index\":7,\"viewing_time\":5057.219999987865},{\"page_index\":8,\"viewing_time\":3167.2750000143424},{\"page_index\":9,\"viewing_time\":4933.164999994915}]","rt":37930.554999999,"trial_type":"instructions","trial_index":4,"time_elapsed":250087,"internal_node_id":"0.0-4.0-0.0","task_version":"0.2"},{"response_times":[818.0549999815412,1018.0299999774434,918.0499999783933,965.8200000121724,9592.65500001493],"keys_pressed":["rightarrow","leftarrow","rightarrow","rightarrow","leftarrow"],"horizon":5,"forced_choices":["rightarrow","leftarrow","rightarrow","rightarrow"],"right_color":"lightblue","left_color":"orange","left_mu":40,"right_mu":20,"left_numbers":[36,45,36,45,38],"right_numbers":[0,15,22,22,39],"points_earned":127,"phase":"practice","trial_type":"horizons-task","trial_index":5,"time_elapsed":264915,"internal_node_id":"0.0-4.0-1.0","task_version":"0.2"},{"response_times":[1145.8700000075623,715.0799999944866,625.9849999914877,643.7350000196602,7151.6499999852385,2786.4000000117812,3422.915000002831,1222.764999984065,1043.1399999943096,726.8849999818485],"keys_pressed":["leftarrow","leftarrow","rightarrow","rightarrow","rightarrow","rightarrow","leftarrow","leftarrow","rightarrow","rightarrow"],"horizon":10,"forced_choices":["leftarrow","leftarrow","rightarrow","rightarrow"],"right_color":"orange","left_color":"lightblue","left_mu":60,"right_mu":70,"left_numbers":[57,61,57,65,58,52,63,48,69,71],"right_numbers":[74,72,64,61,71,62,63,64,66,60],"points_earned":613,"phase":"practice","trial_type":"horizons-task","trial_index":6,"time_elapsed":285907,"internal_node_id":"0.0-4.0-2.0","task_version":"0.2"},{"view_history":"[{\"page_index\":0,\"viewing_time\":1014.85499998671},{\"page_index\":1,\"viewing_time\":1164.5300000091083},{\"page_index\":2,\"viewing_time\":2170.4699999827426},{\"page_index\":3,\"viewing_time\":1075.6800000090152}]","rt":5425.979999999981,"trial_type":"instructions","trial_index":7,"time_elapsed":291335,"internal_node_id":"0.0-4.0-3.0","task_version":"0.2"},{"responses":["true","false","true"],"num_errors":0,"rt":8948.005000012927,"trial_type":"horizons-comprehension","trial_index":8,"time_elapsed":300287,"internal_node_id":"0.0-4.0-4.0","task_version":"0.2"},{"trial_type":"call-function","trial_index":9,"time_elapsed":300292,"internal_node_id":"0.0-5.0","task_version":"0.2"},{"view_history":"[{\"page_index\":0,\"viewing_time\":1030.1800000015646},{\"page_index\":1,\"viewing_time\":1396.260000008624}]","rt":2426.7650000110734,"trial_type":"instructions","trial_index":10,"time_elapsed":302720,"internal_node_id":"0.0-6.0","task_version":"0.2"},{"response_times":[751.9000000029337,1589.2600000079256,992.7449999959208,658.8950000004843,2493.610000004992,1595.5200000025798,972.3349999985658,677.8700000140816,805.675000010524,519.8450000025332],"keys_pressed":["rightarrow","leftarrow","rightarrow","leftarrow","leftarrow","leftarrow","rightarrow","leftarrow","leftarrow","leftarrow"],"horizon":10,"forced_choices":["rightarrow","leftarrow","rightarrow","leftarrow"],"right_color":"orange","left_color":"lightblue","left_mu":40,"right_mu":10,"left_numbers":[35,44,49,29,45,35,32,42,38,50],"right_numbers":[3,4,17,15,13,2,16,12,5,14],"points_earned":319,"phase":"task","trial_type":"horizons-task","trial_index":11,"time_elapsed":315289,"internal_node_id":"0.0-7.0","task_version":"0.2"},{"response_times":[663.8099999981932,501.300000003539,567.9700000036974,1148.749999993015,1965.2300000016112,1007.1000000170898,1057.280000008177,591.5099999983795,1609.519999998156,454.11500000045635],"keys_pressed":["rightarrow","leftarrow","leftarrow","leftarrow","rightarrow","rightarrow","leftarrow","rightarrow","leftarrow","rightarrow"],"horizon":10,"forced_choices":["rightarrow","leftarrow","leftarrow","leftarrow"],"right_color":"lightblue","left_color":"orange","left_mu":40,"right_mu":44,"left_numbers":[37,43,47,36,34,38,38,55,28,48],"right_numbers":[42,31,36,45,53,46,44,45,37,42],"points_earned":420,"phase":"task","trial_type":"horizons-task","trial_index":12,"time_elapsed":326361,"internal_node_id":"0.0-8.0","task_version":"0.2"},{"response_times":[718.6199999996461,549.5999999984633,500.1850000116974,534.285000001546,1865.140000008978,916.6599999880418,737.779999995837,837.6949999947101,791.7450000240933,802.0550000073854],"keys_pressed":["leftarrow","leftarrow","rightarrow","rightarrow","rightarrow","rightarrow","leftarrow","leftarrow","rightarrow","rightarrow"],"horizon":10,"forced_choices":["leftarrow","leftarrow","rightarrow","rightarrow"],"right_color":"lightblue","left_color":"orange","left_mu":40,"right_mu":48,"left_numbers":[34,48,36,51,36,32,46,41,60,32],"right_numbers":[43,55,56,45,50,32,54,31,57,44],"points_earned":453,"phase":"task","trial_type":"horizons-task","trial_index":13,"time_elapsed":336121,"internal_node_id":"0.0-9.0","task_version":"0.2"},{"response_times":[623.4600000025239,974.9900000169873,526.4100000204053,819.3299999984447,5696.8050000141375,887.990000017453,659.205000003567,1158.3300000056624,681.4050000102725,417.6000000152271],"keys_pressed":["leftarrow","rightarrow","rightarrow","leftarrow","rightarrow","leftarrow","rightarrow","rightarrow","rightarrow","rightarrow"],"horizon":10,"forced_choices":["leftarrow","rightarrow","rightarrow","leftarrow"],"right_color":"orange","left_color":"lightblue","left_mu":40,"right_mu":52,"left_numbers":[26,43,49,31,39,24,23,51,31,26],"right_numbers":[64,54,29,60,55,60,35,65,23,51],"points_earned":393,"phase":"task","trial_type":"horizons-task","trial_index":14,"time_elapsed":350073,"internal_node_id":"0.0-10.0","task_version":"0.2"},{"response_times":[938.1449999928009,1713.2049999781884,460.83500000531785,426.1350000160746,2583.810000010999,1537.704999995185,1180.625000008149,447.37499998882413,420.9600000176579,410.66500000306405],"keys_pressed":["leftarrow","rightarrow","rightarrow","rightarrow","leftarrow","leftarrow","leftarrow","leftarrow","leftarrow","leftarrow"],"horizon":10,"forced_choices":["leftarrow","rightarrow","rightarrow","rightarrow"],"right_color":"lightblue","left_color":"orange","left_mu":60,"right_mu":30,"left_numbers":[62,61,46,50,64,60,53,65,66,62],"right_numbers":[36,28,29,22,29,26,29,27,25,30],"points_earned":511,"phase":"task","trial_type":"horizons-task","trial_index":15,"time_elapsed":361704,"internal_node_id":"0.0-11.0","task_version":"0.2"},{"response_times":[716.0750000039116,664.5300000091083,492.4450000107754,977.9700000071898,2127.2100000060163,656.4050000160933,445.5500000040047,469.00000001187436,506.5900000045076,406.0450000106357],"keys_pressed":["rightarrow","leftarrow","rightarrow","rightarrow","rightarrow","leftarrow","rightarrow","leftarrow","leftarrow","leftarrow"],"horizon":10,"forced_choices":["rightarrow","leftarrow","rightarrow","rightarrow"],"right_color":"orange","left_color":"lightblue","left_mu":40,"right_mu":52,"left_numbers":[29,35,42,47,49,55,44,58,53,48],"right_numbers":[57,63,44,43,46,49,47,58,55,33],"points_earned":486,"phase":"task","trial_type":"horizons-task","trial_index":16,"time_elapsed":370673,"internal_node_id":"0.0-12.0","task_version":"0.2"},{"response_times":[492.8150000050664,603.5100000153761,491.97499998263083,1297.9800000030082,4762.170000001788],"keys_pressed":["leftarrow","rightarrow","rightarrow","rightarrow","leftarrow"],"horizon":5,"forced_choices":["leftarrow","rightarrow","rightarrow","rightarrow"],"right_color":"orange","left_color":"lightblue","left_mu":60,"right_mu":52,"left_numbers":[45,57,53,66,62],"right_numbers":[48,55,42,32,47],"points_earned":236,"phase":"task","trial_type":"horizons-task","trial_index":17,"time_elapsed":379828,"internal_node_id":"0.0-13.0","task_version":"0.2"},{"response_times":[634.040000004461,514.4150000123773,558.6050000274554,777.3149999848101,2450.360000017099],"keys_pressed":["leftarrow","rightarrow","leftarrow","rightarrow","leftarrow"],"horizon":5,"forced_choices":["leftarrow","rightarrow","leftarrow","rightarrow"],"right_color":"lightblue","left_color":"orange","left_mu":40,"right_mu":28,"left_numbers":[28,28,44,45,34],"right_numbers":[28,25,24,23,24],"points_earned":154,"phase":"task","trial_type":"horizons-task","trial_index":18,"time_elapsed":386271,"internal_node_id":"0.0-14.0","task_version":"0.2"},{"response_times":[515.6399999978021,388.2750000047963,511.1050000123214,480.03499998594634,547.4249999970198,4079.920000018319,996.1000000184868,532.5600000214763,393.6099999991711,388.3700000005774],"keys_pressed":["rightarrow","leftarrow","leftarrow","leftarrow","rightarrow","rightarrow","rightarrow","rightarrow","rightarrow","rightarrow"],"horizon":10,"forced_choices":["rightarrow","leftarrow","leftarrow","leftarrow"],"right_color":"orange","left_color":"lightblue","left_mu":40,"right_mu":60,"left_numbers":[47,54,44,34,41,50,64,43,34,42],"right_numbers":[69,56,65,69,63,57,62,61,62,43],"points_earned":549,"phase":"task","trial_type":"horizons-task","trial_index":19,"time_elapsed":396612,"internal_node_id":"0.0-15.0","task_version":"0.2"},{"response_times":[3643.920000002254,376.5699999930803,463.3400000166148,473.07000000728294,2486.4999999990687,992.1549999853596,754.5000000100117,849.3550000130199,493.08499999460764,447.230000019772],"keys_pressed":["leftarrow","rightarrow","leftarrow","rightarrow","leftarrow","leftarrow","leftarrow","rightarrow","leftarrow","leftarrow"],"horizon":10,"forced_choices":["leftarrow","rightarrow","leftarrow","rightarrow"],"right_color":"lightblue","left_color":"orange","left_mu":40,"right_mu":28,"left_numbers":[44,46,33,48,44,43,34,36,34,36],"right_numbers":[26,10,47,29,22,25,40,20,34,36],"points_earned":327,"phase":"task","trial_type":"horizons-task","trial_index":20,"time_elapsed":409098,"internal_node_id":"0.0-16.0","task_version":"0.2"},{"response_times":[583.0149999819696,325.5300000018906,477.1949999849312,589.7799999802373,2716.580000007525],"keys_pressed":["leftarrow","rightarrow","rightarrow","leftarrow","rightarrow"],"horizon":5,"forced_choices":["leftarrow","rightarrow","rightarrow","leftarrow"],"right_color":"orange","left_color":"lightblue","left_mu":40,"right_mu":52,"left_numbers":[46,45,40,37,62],"right_numbers":[51,63,49,57,54],"points_earned":249,"phase":"task","trial_type":"horizons-task","trial_index":21,"time_elapsed":415296,"internal_node_id":"0.0-17.0","task_version":"0.2"},{"response_times":[892.9099999950267,457.39500000490807,374.10000001545995,447.45000000693835,2359.3300000065938,695.2799999853596,811.5249999973457,502.0599999988917,529.0300000051502,298.38500000187196],"keys_pressed":["rightarrow","leftarrow","rightarrow","leftarrow","leftarrow","rightarrow","rightarrow","rightarrow","rightarrow","rightarrow"],"horizon":10,"forced_choices":["rightarrow","leftarrow","rightarrow","leftarrow"],"right_color":"orange","left_color":"lightblue","left_mu":60,"right_mu":72,"left_numbers":[60,56,82,54,58,54,66,41,61,68],"right_numbers":[43,73,73,68,66,70,74,64,74,80],"points_earned":646,"phase":"task","trial_type":"horizons-task","trial_index":22,"time_elapsed":424170,"internal_node_id":"0.0-18.0","task_version":"0.2"},{"response_times":[473.5299999883864,562.5200000067707,623.0649999924935,678.1499999924563,1024.9250000051688],"keys_pressed":["leftarrow","leftarrow","rightarrow","rightarrow","rightarrow"],"horizon":5,"forced_choices":["leftarrow","leftarrow","rightarrow","rightarrow"],"right_color":"lightblue","left_color":"orange","left_mu":40,"right_mu":48,"left_numbers":[35,26,30,33,48],"right_numbers":[35,50,47,49,60],"points_earned":217,"phase":"task","trial_type":"horizons-task","trial_index":23,"time_elapsed":429040,"internal_node_id":"0.0-19.0","task_version":"0.2"},{"response_times":[593.3650000079069,420.2450000157114,381.6850000002887,418.0900000210386,2114.430000016,812.7650000096764,2810.7700000109617,687.2199999925215,1478.529999993043,607.5799999816809],"keys_pressed":["leftarrow","leftarrow","rightarrow","leftarrow","leftarrow","leftarrow","rightarrow","rightarrow","rightarrow","rightarrow"],"horizon":10,"forced_choices":["leftarrow","leftarrow","rightarrow","leftarrow"],"right_color":"orange","left_color":"lightblue","left_mu":60,"right_mu":72,"left_numbers":[61,58,50,49,64,48,59,72,68,71],"right_numbers":[65,62,58,65,67,60,68,52,74,75],"points_earned":607,"phase":"task","trial_type":"horizons-task","trial_index":24,"time_elapsed":440871,"internal_node_id":"0.0-20.0","task_version":"0.2"},{"response_times":[424.7550000145566,497.23000000813045,664.7449999873061,569.8649999976624,1170.1949999842327],"keys_pressed":["rightarrow","rightarrow","leftarrow","rightarrow","leftarrow"],"horizon":5,"forced_choices":["rightarrow","rightarrow","leftarrow","rightarrow"],"right_color":"orange","left_color":"lightblue","left_mu":40,"right_mu":20,"left_numbers":[53,35,49,46,41],"right_numbers":[12,16,30,20,21],"points_earned":138,"phase":"task","trial_type":"horizons-task","trial_index":25,"time_elapsed":445708,"internal_node_id":"0.0-21.0","task_version":"0.2"},{"response_times":[452.78000002144836,475.33499999553896,548.1650000147056,475.8049999945797,3925.3199999802746],"keys_pressed":["rightarrow","rightarrow","leftarrow","rightarrow","rightarrow"],"horizon":5,"forced_choices":["rightarrow","rightarrow","leftarrow","rightarrow"],"right_color":"lightblue","left_color":"orange","left_mu":60,"right_mu":56,"left_numbers":[59,54,54,55,57],"right_numbers":[48,55,50,49,59],"points_earned":265,"phase":"task","trial_type":"horizons-task","trial_index":26,"time_elapsed":453093,"internal_node_id":"0.0-22.0","task_version":"0.2"},{"response_times":[470.564999995986,399.3450000125449,464.6950000023935,391.9950000126846,2027.18500001356],"keys_pressed":["rightarrow","leftarrow","leftarrow","rightarrow","rightarrow"],"horizon":5,"forced_choices":["rightarrow","leftarrow","leftarrow","rightarrow"],"right_color":"lightblue","left_color":"orange","left_mu":40,"right_mu":44,"left_numbers":[34,43,36,41,39],"right_numbers":[52,36,48,39,26],"points_earned":196,"phase":"task","trial_type":"horizons-task","trial_index":27,"time_elapsed":458352,"internal_node_id":"0.0-23.0","task_version":"0.2"},{"response_times":[439.17500000679865,405.6050000071991,426.82500000228174,738.5800000047311,2951.425000006566,726.265000004787,1143.5599999967963,735.6050000234973,601.1099999886937,423.86000000988133],"keys_pressed":["rightarrow","leftarrow","leftarrow","leftarrow","leftarrow","rightarrow","leftarrow","rightarrow","leftarrow","leftarrow"],"horizon":10,"forced_choices":["rightarrow","leftarrow","leftarrow","leftarrow"],"right_color":"lightblue","left_color":"orange","left_mu":40,"right_mu":32,"left_numbers":[44,47,38,38,40,41,53,34,35,37],"right_numbers":[38,32,4,22,36,41,35,28,30,28],"points_earned":395,"phase":"task","trial_type":"horizons-task","trial_index":28,"time_elapsed":468452,"internal_node_id":"0.0-24.0","task_version":"0.2"},{"response_times":[533.4049999946728,419.1200000059325,442.68999999621883,459.8600000026636,609.7949999966659],"keys_pressed":["leftarrow","rightarrow","rightarrow","rightarrow","rightarrow"],"horizon":5,"forced_choices":["leftarrow","rightarrow","rightarrow","rightarrow"],"right_color":"orange","left_color":"lightblue","left_mu":60,"right_mu":68,"left_numbers":[51,53,51,51,49],"right_numbers":[65,64,70,70,58],"points_earned":313,"phase":"task","trial_type":"horizons-task","trial_index":29,"time_elapsed":472422,"internal_node_id":"0.0-25.0","task_version":"0.2"},{"response_times":[606.5349999989849,493.8549999787938,848.8149999757297,446.10000000102445,1718.0249999801163,686.1000000208151,1016.6599999938626,555.1999999734107,469.87499998067506,360.10499999974854],"keys_pressed":["leftarrow","rightarrow","leftarrow","rightarrow","leftarrow","rightarrow","leftarrow","leftarrow","leftarrow","leftarrow"],"horizon":10,"forced_choices":["leftarrow","rightarrow","leftarrow","rightarrow"],"right_color":"lightblue","left_color":"orange","left_mu":40,"right_mu":32,"left_numbers":[40,35,46,41,30,41,42,48,49,43],"right_numbers":[22,29,39,38,38,24,38,36,30,27],"points_earned":389,"phase":"task","trial_type":"horizons-task","trial_index":30,"time_elapsed":481131,"internal_node_id":"0.0-26.0","task_version":"0.2"},{"response_times":[629.784999997355,421.70499998610467,567.1350000193343,436.8299999914598,1188.1200000061654,592.7899999951478,547.2850000078324,976.6500000259839,199.44999998551793,191.74499998916872],"keys_pressed":["leftarrow","rightarrow","rightarrow","leftarrow","leftarrow","leftarrow","leftarrow","leftarrow","leftarrow","leftarrow"],"horizon":10,"forced_choices":["leftarrow","rightarrow","rightarrow","leftarrow"],"right_color":"lightblue","left_color":"orange","left_mu":60,"right_mu":30,"left_numbers":[61,58,59,74,58,65,68,57,55,55],"right_numbers":[27,35,12,28,19,14,34,29,31,32],"points_earned":540,"phase":"task","trial_type":"horizons-task","trial_index":31,"time_elapsed":488390,"internal_node_id":"0.0-27.0","task_version":"0.2"},{"response_times":[487.3500000103377,400.4949999798555,485.79000000609085,413.36500001489185,3217.6549999858253],"keys_pressed":["leftarrow","leftarrow","leftarrow","rightarrow","rightarrow"],"horizon":5,"forced_choices":["leftarrow","leftarrow","leftarrow","rightarrow"],"right_color":"lightblue","left_color":"orange","left_mu":60,"right_mu":80,"left_numbers":[45,72,64,58,55],"right_numbers":[71,90,86,93,85],"points_earned":359,"phase":"task","trial_type":"horizons-task","trial_index":32,"time_elapsed":494902,"internal_node_id":"0.0-28.0","task_version":"0.2"},{"response_times":[502.06500000786036,342.75500001967885,334.9400000006426,489.4649999914691,2333.024999999907],"keys_pressed":["rightarrow","leftarrow","rightarrow","rightarrow","rightarrow"],"horizon":5,"forced_choices":["rightarrow","leftarrow","rightarrow","rightarrow"],"right_color":"lightblue","left_color":"orange","left_mu":60,"right_mu":48,"left_numbers":[60,52,78,61,60],"right_numbers":[45,59,58,47,38],"points_earned":240,"phase":"task","trial_type":"horizons-task","trial_index":33,"time_elapsed":500411,"internal_node_id":"0.0-29.0","task_version":"0.2"},{"response_times":[366.8699999980163,311.53000000631437,447.0149999833666,669.6700000029523,577.1900000108872],"keys_pressed":["leftarrow","rightarrow","rightarrow","leftarrow","leftarrow"],"horizon":5,"forced_choices":["leftarrow","rightarrow","rightarrow","leftarrow"],"right_color":"lightblue","left_color":"orange","left_mu":60,"right_mu":30,"left_numbers":[59,52,78,66,61],"right_numbers":[39,23,35,26,31],"points_earned":244,"phase":"task","trial_type":"horizons-task","trial_index":34,"time_elapsed":504291,"internal_node_id":"0.0-30.0","task_version":"0.2"},{"response_times":[400.9950000036042,388.13499998650514,401.55999999842606,513.2300000113901,1392.8450000239536],"keys_pressed":["leftarrow","rightarrow","leftarrow","leftarrow","leftarrow"],"horizon":5,"forced_choices":["leftarrow","rightarrow","leftarrow","leftarrow"],"right_color":"orange","left_color":"lightblue","left_mu":60,"right_mu":40,"left_numbers":[57,58,57,42,58],"right_numbers":[37,44,40,39,18],"points_earned":258,"phase":"task","trial_type":"horizons-task","trial_index":35,"time_elapsed":508892,"internal_node_id":"0.0-31.0","task_version":"0.2"},{"response_times":[542.8350000001956,406.4300000027288,407.0599999977276,506.6799999913201,421.38499999418855,2757.7000000164844,784.3200000061188,817.9600000148639,457.56000000983477,634.0199999976903],"keys_pressed":["leftarrow","rightarrow","rightarrow","rightarrow","leftarrow","leftarrow","leftarrow","rightarrow","leftarrow","leftarrow"],"horizon":10,"forced_choices":["leftarrow","rightarrow","rightarrow","rightarrow"],"right_color":"orange","left_color":"lightblue","left_mu":60,"right_mu":52,"left_numbers":[72,66,57,65,55,56,56,76,67,43],"right_numbers":[36,54,46,42,44,68,52,56,47,66],"points_earned":547,"phase":"task","trial_type":"horizons-task","trial_index":36,"time_elapsed":518134,"internal_node_id":"0.0-32.0","task_version":"0.2"},{"response_times":[507.29999999748543,397.5800000189338,455.1299999875482,401.14500001072884,2936.005000025034,595.6200000073295,749.1699999955017,512.8599999879953,508.15000000875443,521.0749999969266],"keys_pressed":["rightarrow","leftarrow","leftarrow","rightarrow","rightarrow","leftarrow","leftarrow","rightarrow","leftarrow","leftarrow"],"horizon":10,"forced_choices":["rightarrow","leftarrow","leftarrow","rightarrow"],"right_color":"lightblue","left_color":"orange","left_mu":60,"right_mu":48,"left_numbers":[52,70,45,56,79,60,56,66,58,55],"right_numbers":[55,46,42,55,50,45,48,51,49,54],"points_earned":555,"phase":"task","trial_type":"horizons-task","trial_index":37,"time_elapsed":527228,"internal_node_id":"0.0-33.0","task_version":"0.2"},{"response_times":[665.5999999784399,391.364999988582,638.5599999921396,449.4049999921117,744.8650000151247],"keys_pressed":["rightarrow","leftarrow","leftarrow","rightarrow","rightarrow"],"horizon":5,"forced_choices":["rightarrow","leftarrow","leftarrow","rightarrow"],"right_color":"lightblue","left_color":"orange","left_mu":60,"right_mu":80,"left_numbers":[49,64,54,54,54],"right_numbers":[84,81,83,78,85],"points_earned":365,"phase":"task","trial_type":"horizons-task","trial_index":38,"time_elapsed":531623,"internal_node_id":"0.0-34.0","task_version":"0.2"},{"response_times":[529.500000004191,861.2100000027567,570.1800000097137,418.7099999981001,495.78500000643544,2267.135000001872,476.94499997305684,551.5500000037719,265.42999999946915,258.7249999924097],"keys_pressed":["leftarrow","rightarrow","rightarrow","rightarrow","leftarrow","rightarrow","rightarrow","rightarrow","rightarrow","rightarrow"],"horizon":10,"forced_choices":["leftarrow","rightarrow","rightarrow","rightarrow"],"right_color":"orange","left_color":"lightblue","left_mu":60,"right_mu":68,"left_numbers":[54,64,65,70,58,63,62,71,51,51],"right_numbers":[62,65,65,60,71,65,63,64,69,65],"points_earned":628,"phase":"task","trial_type":"horizons-task","trial_index":39,"time_elapsed":539827,"internal_node_id":"0.0-35.0","task_version":"0.2"},{"response_times":[654.3600000150036,387.67499997629784,658.3749999990687,923.3400000084657,948.5550000099465],"keys_pressed":["leftarrow","rightarrow","leftarrow","rightarrow","leftarrow"],"horizon":5,"forced_choices":["leftarrow","rightarrow","leftarrow","rightarrow"],"right_color":"orange","left_color":"lightblue","left_mu":60,"right_mu":52,"left_numbers":[58,61,52,63,54],"right_numbers":[55,41,32,47,50],"points_earned":252,"phase":"task","trial_type":"horizons-task","trial_index":40,"time_elapsed":544903,"internal_node_id":"0.0-36.0","task_version":"0.2"},{"response_times":[479.0199999988545,443.5349999985192,381.9849999854341,398.2150000229012,462.7000000036787],"keys_pressed":["leftarrow","leftarrow","rightarrow","leftarrow","leftarrow"],"horizon":5,"forced_choices":["leftarrow","leftarrow","rightarrow","leftarrow"],"right_color":"lightblue","left_color":"orange","left_mu":40,"right_mu":28,"left_numbers":[51,60,50,35,45],"right_numbers":[22,19,43,28,14],"points_earned":234,"phase":"task","trial_type":"horizons-task","trial_index":41,"time_elapsed":548572,"internal_node_id":"0.0-37.0","task_version":"0.2"},{"response_times":[436.760000011418,332.1999999752734,408.9349999849219,381.9900000235066,1308.099999994738,589.2600000079256,569.7450000152458,405.3799999819603,264.83500000904314,186.6149999841582],"keys_pressed":["leftarrow","rightarrow","leftarrow","rightarrow","leftarrow","rightarrow","leftarrow","leftarrow","leftarrow","leftarrow"],"horizon":10,"forced_choices":["leftarrow","rightarrow","leftarrow","rightarrow"],"right_color":"orange","left_color":"lightblue","left_mu":60,"right_mu":52,"left_numbers":[62,71,62,51,56,65,70,65,56,63],"right_numbers":[54,33,59,50,47,46,48,60,59,53],"points_earned":563,"phase":"task","trial_type":"horizons-task","trial_index":42,"time_elapsed":554962,"internal_node_id":"0.0-38.0","task_version":"0.2"},{"response_times":[385.09500000509433,301.0249999933876,322.2150000219699,793.9450000121724,2127.2400000016205,797.9749999940395,505.7399999932386,405.1050000125542,329.79500002693385,187.65999999595806],"keys_pressed":["leftarrow","rightarrow","leftarrow","leftarrow","leftarrow","rightarrow","leftarrow","leftarrow","leftarrow","leftarrow"],"horizon":10,"forced_choices":["leftarrow","rightarrow","leftarrow","leftarrow"],"right_color":"orange","left_color":"lightblue","left_mu":60,"right_mu":40,"left_numbers":[57,63,46,62,59,64,47,65,49,53],"right_numbers":[44,43,44,37,38,30,33,34,29,39],"points_earned":511,"phase":"task","trial_type":"horizons-task","trial_index":43,"time_elapsed":562626,"internal_node_id":"0.0-39.0","task_version":"0.2"},{"response_times":[540.4949999938253,507.5399999914225,437.2399999992922,780.1399999880232,810.4699999967124],"keys_pressed":["rightarrow","rightarrow","leftarrow","leftarrow","rightarrow"],"horizon":5,"forced_choices":["rightarrow","rightarrow","leftarrow","leftarrow"],"right_color":"lightblue","left_color":"orange","left_mu":60,"right_mu":90,"left_numbers":[51,70,55,69,60],"right_numbers":[89,100,89,78,83],"points_earned":396,"phase":"task","trial_type":"horizons-task","trial_index":44,"time_elapsed":567207,"internal_node_id":"0.0-40.0","task_version":"0.2"},{"response_times":[889.7900000156369,479.66499999165535,552.4600000062492,559.9349999974947,1217.8399999975227,622.8399999963585,606.789999990724,480.344999989029,481.2050000182353,446.8150000029709],"keys_pressed":["rightarrow","rightarrow","leftarrow","rightarrow","rightarrow","rightarrow","leftarrow","rightarrow","rightarrow","rightarrow"],"horizon":10,"forced_choices":["rightarrow","rightarrow","leftarrow","rightarrow"],"right_color":"lightblue","left_color":"orange","left_mu":40,"right_mu":48,"left_numbers":[30,36,38,56,35,27,31,36,29,35],"right_numbers":[63,56,63,53,54,32,51,51,54,41],"points_earned":473,"phase":"task","trial_type":"horizons-task","trial_index":45,"time_elapsed":575053,"internal_node_id":"0.0-41.0","task_version":"0.2"},{"response_times":[172120.17999999807,382.24999999511056,402.16999998665415,636.8949999741744,393.5699999856297,546.5099999855738,251.78500000038184,172.87999999825843,148.55499999248423,158.07499998481944],"keys_pressed":["leftarrow","rightarrow","rightarrow","leftarrow","rightarrow","rightarrow","rightarrow","rightarrow","rightarrow","rightarrow"],"horizon":10,"forced_choices":["leftarrow","rightarrow","rightarrow","leftarrow"],"right_color":"orange","left_color":"lightblue","left_mu":40,"right_mu":60,"left_numbers":[28,31,32,31,41,28,15,27,42,34],"right_numbers":[47,62,54,56,41,73,54,51,60,57],"points_earned":511,"phase":"task","trial_type":"horizons-task","trial_index":46,"time_elapsed":751775,"internal_node_id":"0.0-42.0","task_version":"0.2"},{"response_times":[2158.804999984568,334.21000000089407,425.5950000078883,304.7999999835156,599.9249999877065,605.0650000106543,433.7200000009034,293.03500000969507,204.43000001250766,163.2450000033714],"keys_pressed":["rightarrow","leftarrow","leftarrow","rightarrow","leftarrow","rightarrow","leftarrow","leftarrow","leftarrow","leftarrow"],"horizon":10,"forced_choices":["rightarrow","leftarrow","leftarrow","rightarrow"],"right_color":"lightblue","left_color":"orange","left_mu":40,"right_mu":36,"left_numbers":[49,30,43,35,57,21,40,35,48,47],"right_numbers":[40,34,22,27,48,21,40,31,23,54],"points_earned":388,"phase":"task","trial_type":"horizons-task","trial_index":47,"time_elapsed":758805,"internal_node_id":"0.0-43.0","task_version":"0.2"},{"response_times":[1050.9799999999814,347.5650000036694,358.91999999876134,584.9449999805074,1469.6750000002794],"keys_pressed":["rightarrow","leftarrow","rightarrow","rightarrow","rightarrow"],"horizon":5,"forced_choices":["rightarrow","leftarrow","rightarrow","rightarrow"],"right_color":"orange","left_color":"lightblue","left_mu":40,"right_mu":52,"left_numbers":[43,41,39,38,49],"right_numbers":[42,43,62,53,46],"points_earned":244,"phase":"task","trial_type":"horizons-task","trial_index":48,"time_elapsed":764122,"internal_node_id":"0.0-44.0","task_version":"0.2"},{"response_times":[6193.8500000105705,356.03499997523613,357.48000000603497,276.51500000501983,1388.3799999894109,596.495000005234,524.8950000095647,830.2050000056624,522.5400000053924,672.7700000046752],"keys_pressed":["rightarrow","rightarrow","leftarrow","rightarrow","rightarrow","rightarrow","leftarrow","leftarrow","rightarrow","leftarrow"],"horizon":10,"forced_choices":["rightarrow","rightarrow","leftarrow","rightarrow"],"right_color":"lightblue","left_color":"orange","left_mu":60,"right_mu":56,"left_numbers":[63,70,54,68,66,77,44,51,55,57],"right_numbers":[54,65,52,49,53,38,40,58,49,43],"points_earned":514,"phase":"task","trial_type":"horizons-task","trial_index":49,"time_elapsed":777349,"internal_node_id":"0.0-45.0","task_version":"0.2"},{"response_times":[21970.900000014808,452.8799999970943,365.7599999860395,480.34999999799766,1227.1199999959208,3951.0099999897648,605.7550000259653,540.0049999880139,415.3400000068359,774.4399999792222],"keys_pressed":["leftarrow","leftarrow","rightarrow","rightarrow","rightarrow","rightarrow","rightarrow","leftarrow","rightarrow","rightarrow"],"horizon":10,"forced_choices":["leftarrow","leftarrow","rightarrow","rightarrow"],"right_color":"orange","left_color":"lightblue","left_mu":60,"right_mu":68,"left_numbers":[53,61,64,69,55,52,70,61,53,63],"right_numbers":[65,62,67,71,59,61,56,78,77,74],"points_earned":640,"phase":"task","trial_type":"horizons-task","trial_index":50,"time_elapsed":809638,"internal_node_id":"0.0-46.0","task_version":"0.2"},{"view_history":"[{\"page_index\":0,\"viewing_time\":2523.0349999910686},{\"page_index\":1,\"viewing_time\":82619.63500001002}]","rt":85143.47999999882,"trial_type":"instructions","trial_index":51,"time_elapsed":894784,"internal_node_id":"0.0-47.0","task_version":"0.2"},{"response_times":[576.5900000114925,453.8450000109151,541.2500000093132,382.1600000082981,1624.3200000026263,399.2349999898579,177.16999998083338,451.0149999987334,406.1750000109896,429.7849999857135],"keys_pressed":["rightarrow","leftarrow","leftarrow","rightarrow","rightarrow","rightarrow","rightarrow","rightarrow","leftarrow","rightarrow"],"horizon":10,"forced_choices":["rightarrow","leftarrow","leftarrow","rightarrow"],"right_color":"lightblue","left_color":"orange","left_mu":40,"right_mu":44,"left_numbers":[36,36,41,34,35,30,19,46,40,36],"right_numbers":[47,41,43,64,33,48,47,43,42,45],"points_earned":444,"phase":"task","trial_type":"horizons-task","trial_index":52,"time_elapsed":901742,"internal_node_id":"0.0-48.0","task_version":"0.2"},{"response_times":[779.1250000009313,326.78000000305474,318.8699999882374,455.4400000197347,412.0650000113528],"keys_pressed":["leftarrow","rightarrow","leftarrow","rightarrow","leftarrow"],"horizon":5,"forced_choices":["leftarrow","rightarrow","leftarrow","rightarrow"],"right_color":"orange","left_color":"lightblue","left_mu":60,"right_mu":40,"left_numbers":[61,66,60,59,61],"right_numbers":[35,43,43,37,41],"points_earned":262,"phase":"task","trial_type":"horizons-task","trial_index":53,"time_elapsed":905538,"internal_node_id":"0.0-49.0","task_version":"0.2"},{"response_times":[1306.174999976065,409.399999974994,461.32000000216067,789.840000012191,1059.6200000145473],"keys_pressed":["leftarrow","rightarrow","rightarrow","rightarrow","leftarrow"],"horizon":5,"forced_choices":["leftarrow","rightarrow","rightarrow","rightarrow"],"right_color":"lightblue","left_color":"orange","left_mu":60,"right_mu":30,"left_numbers":[64,75,64,50,54],"right_numbers":[22,44,28,23,21],"points_earned":213,"phase":"task","trial_type":"horizons-task","trial_index":54,"time_elapsed":911068,"internal_node_id":"0.0-50.0","task_version":"0.2"},{"response_times":[5539.125000010245,640.4599999950733,381.62000000011176,605.4449999937788,1123.090000008233,354.35000000870787,431.9649999961257,436.2050000054296,153.22000000742264,269.26499998080544],"keys_pressed":["rightarrow","rightarrow","leftarrow","leftarrow","leftarrow","rightarrow","rightarrow","rightarrow","rightarrow","rightarrow"],"horizon":10,"forced_choices":["rightarrow","rightarrow","leftarrow","leftarrow"],"right_color":"lightblue","left_color":"orange","left_mu":60,"right_mu":90,"left_numbers":[49,55,55,73,56,64,58,46,58,62],"right_numbers":[91,92,88,77,92,91,90,77,88,100],"points_earned":813,"phase":"task","trial_type":"horizons-task","trial_index":55,"time_elapsed":922509,"internal_node_id":"0.0-51.0","task_version":"0.2"},{"response_times":[11022.609999985434,388.4900000120979,476.1949999956414,401.31500002462417,449.895000027027],"keys_pressed":["rightarrow","rightarrow","rightarrow","leftarrow","leftarrow"],"horizon":5,"forced_choices":["rightarrow","rightarrow","rightarrow","leftarrow"],"right_color":"lightblue","left_color":"orange","left_mu":40,"right_mu":36,"left_numbers":[28,49,33,34,53],"right_numbers":[36,35,18,47,36],"points_earned":176,"phase":"task","trial_type":"horizons-task","trial_index":56,"time_elapsed":936752,"internal_node_id":"0.0-52.0","task_version":"0.2"},{"response_times":[289905.91999999015,361.14000002271496,395.0699999986682,455.69000000250526,294.88500001025386],"keys_pressed":["rightarrow","rightarrow","leftarrow","leftarrow","leftarrow"],"horizon":5,"forced_choices":["rightarrow","rightarrow","leftarrow","leftarrow"],"right_color":"orange","left_color":"lightblue","left_mu":40,"right_mu":20,"left_numbers":[30,43,41,38,29],"right_numbers":[8,14,22,19,19],"points_earned":130,"phase":"task","trial_type":"horizons-task","trial_index":57,"time_elapsed":1229676,"internal_node_id":"0.0-53.0","task_version":"0.2"},{"response_times":[489.5050000050105,362.34500000136904,392.76000001700595,366.890000004787,468.9900000230409],"keys_pressed":["rightarrow","rightarrow","leftarrow","rightarrow","rightarrow"],"horizon":5,"forced_choices":["rightarrow","rightarrow","leftarrow","rightarrow"],"right_color":"lightblue","left_color":"orange","left_mu":40,"right_mu":48,"left_numbers":[42,37,35,32,25],"right_numbers":[40,45,47,40,46],"points_earned":206,"phase":"task","trial_type":"horizons-task","trial_index":58,"time_elapsed":1233260,"internal_node_id":"0.0-54.0","task_version":"0.2"},{"response_times":[483.84500000975095,324.80499998200685,402.35499999835156,706.5550000115763,467.83000000868924,554.7150000056718,360.0950000109151,182.10000000544824,156.42000001389533,142.46999999159016],"keys_pressed":["leftarrow","rightarrow","leftarrow","leftarrow","rightarrow","rightarrow","rightarrow","rightarrow","rightarrow","rightarrow"],"horizon":10,"forced_choices":["leftarrow","rightarrow","leftarrow","leftarrow"],"right_color":"lightblue","left_color":"orange","left_mu":60,"right_mu":90,"left_numbers":[57,51,65,74,56,61,62,66,68,53],"right_numbers":[82,98,77,111,96,93,96,75,92,86],"points_earned":832,"phase":"task","trial_type":"horizons-task","trial_index":59,"time_elapsed":1238545,"internal_node_id":"0.0-55.0","task_version":"0.2"},{"response_times":[17824.45000001462,544.2599999951199,360.5600000009872,525.4599999752827,399.48500000173226,482.69500001333654,491.7600000044331,363.4499999752734,157.1750000002794,157.92000002693385],"keys_pressed":["leftarrow","leftarrow","rightarrow","leftarrow","leftarrow","rightarrow","leftarrow","leftarrow","leftarrow","leftarrow"],"horizon":10,"forced_choices":["leftarrow","leftarrow","rightarrow","leftarrow"],"right_color":"orange","left_color":"lightblue","left_mu":40,"right_mu":10,"left_numbers":[59,30,44,35,27,43,33,34,25,30],"right_numbers":[0,3,11,14,0,9,3,10,4,6],"points_earned":293,"phase":"task","trial_type":"horizons-task","trial_index":60,"time_elapsed":1261362,"internal_node_id":"0.0-56.0","task_version":"0.2"},{"response_times":[445.3149999899324,400.2000000036787,512.6400000008289,396.919999999227,849.7100000095088],"keys_pressed":["rightarrow","rightarrow","rightarrow","leftarrow","rightarrow"],"horizon":5,"forced_choices":["rightarrow","rightarrow","rightarrow","leftarrow"],"right_color":"orange","left_color":"lightblue","left_mu":60,"right_mu":64,"left_numbers":[57,59,64,60,61],"right_numbers":[74,56,59,61,72],"points_earned":321,"phase":"task","trial_type":"horizons-task","trial_index":61,"time_elapsed":1265474,"internal_node_id":"0.0-57.0","task_version":"0.2"},{"response_times":[49136.05000000098,383.7649999768473,483.38499999954365,431.0000000114087,3110.2500000270084],"keys_pressed":["rightarrow","rightarrow","leftarrow","leftarrow","leftarrow"],"horizon":5,"forced_choices":["rightarrow","rightarrow","leftarrow","leftarrow"],"right_color":"lightblue","left_color":"orange","left_mu":60,"right_mu":56,"left_numbers":[49,64,53,50,63],"right_numbers":[52,51,52,63,71],"points_earned":269,"phase":"task","trial_type":"horizons-task","trial_index":62,"time_elapsed":1320526,"internal_node_id":"0.0-58.0","task_version":"0.2"},{"response_times":[3172.160000016447,511.6299999936018,461.89499998581596,505.7749999978114,438.1500000017695],"keys_pressed":["rightarrow","leftarrow","rightarrow","leftarrow","leftarrow"],"horizon":5,"forced_choices":["rightarrow","leftarrow","rightarrow","leftarrow"],"right_color":"orange","left_color":"lightblue","left_mu":40,"right_mu":10,"left_numbers":[44,34,54,44,19],"right_numbers":[0,9,7,14,17],"points_earned":104,"phase":"task","trial_type":"horizons-task","trial_index":63,"time_elapsed":1327123,"internal_node_id":"0.0-59.0","task_version":"0.2"},{"response_times":[455.984999978682,22001.604999997653,453.9049999730196,402.74499999941327,410.4200000001583,494.8650000151247,510.22500000544824,172.60500002885237,183.3500000066124,186.84499998926185],"keys_pressed":["rightarrow","rightarrow","leftarrow","leftarrow","rightarrow","rightarrow","rightarrow","rightarrow","rightarrow","rightarrow"],"horizon":10,"forced_choices":["rightarrow","rightarrow","leftarrow","leftarrow"],"right_color":"lightblue","left_color":"orange","left_mu":60,"right_mu":56,"left_numbers":[54,62,51,53,58,69,69,56,45,64],"right_numbers":[49,57,63,57,56,63,51,58,63,44],"points_earned":545,"phase":"task","trial_type":"horizons-task","trial_index":64,"time_elapsed":1353902,"internal_node_id":"0.0-60.0","task_version":"0.2"},{"response_times":[568.0300000240095,361.86999999335967,390.3799999970943,757.8399999765679,1158.7949999957345],"keys_pressed":["rightarrow","leftarrow","leftarrow","leftarrow","rightarrow"],"horizon":5,"forced_choices":["rightarrow","leftarrow","leftarrow","leftarrow"],"right_color":"orange","left_color":"lightblue","left_mu":40,"right_mu":60,"left_numbers":[45,32,54,26,40],"right_numbers":[48,61,68,59,56],"points_earned":216,"phase":"task","trial_type":"horizons-task","trial_index":65,"time_elapsed":1358644,"internal_node_id":"0.0-61.0","task_version":"0.2"},{"response_times":[472.31000001193024,367.9249999986496,351.6949999902863,397.6600000169128,432.71000002278015,595.5149999936111,342.26000000489876,177.78500000713393,153.37499999441206,166.8599999975413],"keys_pressed":["leftarrow","leftarrow","rightarrow","rightarrow","leftarrow","rightarrow","rightarrow","rightarrow","rightarrow","rightarrow"],"horizon":10,"forced_choices":["leftarrow","leftarrow","rightarrow","rightarrow"],"right_color":"orange","left_color":"lightblue","left_mu":40,"right_mu":70,"left_numbers":[41,33,38,46,34,27,52,44,38,38],"right_numbers":[67,73,66,82,73,79,67,78,59,62],"points_earned":601,"phase":"task","trial_type":"horizons-task","trial_index":66,"time_elapsed":1363609,"internal_node_id":"0.0-62.0","task_version":"0.2"},{"response_times":[2378.530000016326,392.4899999983609,406.25,537.6999999862164,515.480000001844,481.47999998764135,669.8800000012852,529.8950000142213,475.3049999999348,159.12500000558794],"keys_pressed":["rightarrow","leftarrow","rightarrow","leftarrow","rightarrow","rightarrow","leftarrow","rightarrow","rightarrow","rightarrow"],"horizon":10,"forced_choices":["rightarrow","leftarrow","rightarrow","leftarrow"],"right_color":"orange","left_color":"lightblue","left_mu":60,"right_mu":64,"left_numbers":[46,66,55,56,60,54,49,73,49,44],"right_numbers":[60,49,64,65,68,56,62,51,74,67],"points_earned":611,"phase":"task","trial_type":"horizons-task","trial_index":67,"time_elapsed":1371662,"internal_node_id":"0.0-63.0","task_version":"0.2"},{"response_times":[782.3600000119768,327.385000011418,694.0049999975599,476.09499999089167,837.0900000154506,552.7000000001863,171.19999998249114,155.81499997642823,140.0349999894388,145.72500000940636],"keys_pressed":["rightarrow","leftarrow","leftarrow","rightarrow","rightarrow","rightarrow","rightarrow","rightarrow","rightarrow","rightarrow"],"horizon":10,"forced_choices":["rightarrow","leftarrow","leftarrow","rightarrow"],"right_color":"lightblue","left_color":"orange","left_mu":60,"right_mu":80,"left_numbers":[67,71,58,64,77,62,49,59,57,46],"right_numbers":[85,86,85,88,72,86,94,78,84,89],"points_earned":805,"phase":"task","trial_type":"horizons-task","trial_index":68,"time_elapsed":1377452,"internal_node_id":"0.0-64.0","task_version":"0.2"},{"response_times":[1740.909999993164,380.82000002032146,506.88000000081956,481.195000000298,418.9900000055786],"keys_pressed":["rightarrow","leftarrow","leftarrow","rightarrow","leftarrow"],"horizon":5,"forced_choices":["rightarrow","leftarrow","leftarrow","rightarrow"],"right_color":"lightblue","left_color":"orange","left_mu":60,"right_mu":48,"left_numbers":[53,71,51,64,50],"right_numbers":[28,36,46,62,52],"points_earned":262,"phase":"task","trial_type":"horizons-task","trial_index":69,"time_elapsed":1382489,"internal_node_id":"0.0-65.0","task_version":"0.2"},{"response_times":[498.86500000138767,334.7399999911431,546.7249999928754,763.7749999994412,2776.7750000057276],"keys_pressed":["leftarrow","rightarrow","leftarrow","leftarrow","rightarrow"],"horizon":5,"forced_choices":["leftarrow","rightarrow","leftarrow","leftarrow"],"right_color":"lightblue","left_color":"orange","left_mu":60,"right_mu":90,"left_numbers":[57,64,58,73,49],"right_numbers":[93,93,84,82,109],"points_earned":390,"phase":"task","trial_type":"horizons-task","trial_index":70,"time_elapsed":1388915,"internal_node_id":"0.0-66.0","task_version":"0.2"},{"response_times":[456.83999999891967,402.16500000678934,386.30000001285225,466.2499999976717,964.3100000103004,651.0000000125729,422.92000001179986,371.0999999893829,192.74999998742715,162.85000002244487],"keys_pressed":["leftarrow","leftarrow","rightarrow","leftarrow","leftarrow","leftarrow","rightarrow","leftarrow","leftarrow","leftarrow"],"horizon":10,"forced_choices":["leftarrow","leftarrow","rightarrow","leftarrow"],"right_color":"lightblue","left_color":"orange","left_mu":40,"right_mu":28,"left_numbers":[33,34,33,41,43,53,45,49,21,43],"right_numbers":[25,10,16,32,26,25,24,23,38,29],"points_earned":357,"phase":"task","trial_type":"horizons-task","trial_index":71,"time_elapsed":1394900,"internal_node_id":"0.0-67.0","task_version":"0.2"},{"response_times":[566.7100000136998,346.3599999959115,440.7400000200141,525.0400000077207,2895.0999999942724],"keys_pressed":["rightarrow","leftarrow","leftarrow","leftarrow","leftarrow"],"horizon":5,"forced_choices":["rightarrow","leftarrow","leftarrow","leftarrow"],"right_color":"lightblue","left_color":"orange","left_mu":40,"right_mu":32,"left_numbers":[31,38,40,40,47],"right_numbers":[30,25,28,38,36],"points_earned":195,"phase":"task","trial_type":"horizons-task","trial_index":72,"time_elapsed":1401177,"internal_node_id":"0.0-68.0","task_version":"0.2"},{"response_times":[423.29000000609085,363.8199999986682,365.4849999875296,376.445000001695,2150.595000013709,706.4100000134204,570.2049999963492,1088.0400000023656,451.5700000047218,522.3499999847263],"keys_pressed":["leftarrow","leftarrow","leftarrow","rightarrow","leftarrow","rightarrow","rightarrow","leftarrow","rightarrow","rightarrow"],"horizon":10,"forced_choices":["leftarrow","leftarrow","leftarrow","rightarrow"],"right_color":"lightblue","left_color":"orange","left_mu":60,"right_mu":80,"left_numbers":[68,63,43,57,61,50,66,67,49,68],"right_numbers":[78,77,92,65,80,71,70,74,89,86],"points_earned":683,"phase":"task","trial_type":"horizons-task","trial_index":73,"time_elapsed":1409700,"internal_node_id":"0.0-69.0","task_version":"0.2"},{"response_times":[584.8150000092573,434.914999990724,452.9649999749381,509.474999998929,360.3149999980815],"keys_pressed":["leftarrow","rightarrow","leftarrow","rightarrow","leftarrow"],"horizon":5,"forced_choices":["leftarrow","rightarrow","leftarrow","rightarrow"],"right_color":"lightblue","left_color":"orange","left_mu":40,"right_mu":32,"left_numbers":[49,29,47,32,28],"right_numbers":[29,28,35,24,25],"points_earned":176,"phase":"task","trial_type":"horizons-task","trial_index":74,"time_elapsed":1413550,"internal_node_id":"0.0-70.0","task_version":"0.2"},{"response_times":[452.6049999985844,453.2550000003539,458.7350000219885,416.69500002171844,727.8750000114087],"keys_pressed":["leftarrow","leftarrow","rightarrow","leftarrow","leftarrow"],"horizon":5,"forced_choices":["leftarrow","leftarrow","rightarrow","leftarrow"],"right_color":"orange","left_color":"lightblue","left_mu":60,"right_mu":72,"left_numbers":[75,51,52,69,59],"right_numbers":[68,77,73,81,70],"points_earned":327,"phase":"task","trial_type":"horizons-task","trial_index":75,"time_elapsed":1417567,"internal_node_id":"0.0-71.0","task_version":"0.2"},{"response_times":[464.46000001742505,353.3250000036787,15691.770000004908,485.71500001708046,1646.2000000174157,514.324999996461,462.8300000040326,432.38000001292676,398.70499999960884,169.7649999987334],"keys_pressed":["rightarrow","leftarrow","rightarrow","rightarrow","leftarrow","leftarrow","rightarrow","leftarrow","leftarrow","leftarrow"],"horizon":10,"forced_choices":["rightarrow","leftarrow","rightarrow","rightarrow"],"right_color":"lightblue","left_color":"orange","left_mu":60,"right_mu":48,"left_numbers":[63,45,45,50,72,56,62,70,55,77],"right_numbers":[60,32,48,46,37,45,43,55,46,59],"points_earned":572,"phase":"task","trial_type":"horizons-task","trial_index":76,"time_elapsed":1439691,"internal_node_id":"0.0-72.0","task_version":"0.2"},{"response_times":[9378.06499999715,469.9549999786541,392.5850000232458,673.5650000046007,595.0299999967683],"keys_pressed":["rightarrow","leftarrow","leftarrow","leftarrow","rightarrow"],"horizon":5,"forced_choices":["rightarrow","leftarrow","leftarrow","leftarrow"],"right_color":"lightblue","left_color":"orange","left_mu":40,"right_mu":44,"left_numbers":[32,42,47,38,42],"right_numbers":[51,38,41,41,48],"points_earned":226,"phase":"task","trial_type":"horizons-task","trial_index":77,"time_elapsed":1452703,"internal_node_id":"0.0-73.0","task_version":"0.2"},{"response_times":[369.63999998988584,399.27999998326413,389.9600000004284,508.4299999871291,670.5300000030547],"keys_pressed":["rightarrow","leftarrow","rightarrow","leftarrow","leftarrow"],"horizon":5,"forced_choices":["rightarrow","leftarrow","rightarrow","leftarrow"],"right_color":"orange","left_color":"lightblue","left_mu":60,"right_mu":64,"left_numbers":[47,77,57,57,65],"right_numbers":[57,87,63,76,78],"points_earned":319,"phase":"task","trial_type":"horizons-task","trial_index":78,"time_elapsed":1456548,"internal_node_id":"0.0-74.0","task_version":"0.2"},{"response_times":[381.1699999787379,329.5749999815598,362.4149999814108,612.5350000220351,445.5550000129733],"keys_pressed":["rightarrow","leftarrow","rightarrow","leftarrow","rightarrow"],"horizon":5,"forced_choices":["rightarrow","leftarrow","rightarrow","leftarrow"],"right_color":"orange","left_color":"lightblue","left_mu":60,"right_mu":72,"left_numbers":[56,60,72,52,70],"right_numbers":[83,75,73,81,66],"points_earned":334,"phase":"task","trial_type":"horizons-task","trial_index":79,"time_elapsed":1460186,"internal_node_id":"0.0-75.0","task_version":"0.2"},{"response_times":[554.2249999998603,366.82500000461005,541.0550000087824,445.54000001517124,759.7249999816995,729.2499999748543,431.9099999847822,378.88000000384636,164.77999999187887,154.0099999983795],"keys_pressed":["rightarrow","rightarrow","leftarrow","rightarrow","leftarrow","leftarrow","rightarrow","leftarrow","leftarrow","leftarrow"],"horizon":10,"forced_choices":["rightarrow","rightarrow","leftarrow","rightarrow"],"right_color":"orange","left_color":"lightblue","left_mu":40,"right_mu":20,"left_numbers":[32,37,39,41,29,43,34,32,37,40],"right_numbers":[23,15,25,11,21,27,18,9,17,17],"points_earned":287,"phase":"task","trial_type":"horizons-task","trial_index":80,"time_elapsed":1466218,"internal_node_id":"0.0-76.0","task_version":"0.2"},{"response_times":[7598.535000026459,355.7100000034552,401.17499997722916,389.50499999918975,1208.8950000179466],"keys_pressed":["rightarrow","leftarrow","leftarrow","rightarrow","leftarrow"],"horizon":5,"forced_choices":["rightarrow","leftarrow","leftarrow","rightarrow"],"right_color":"lightblue","left_color":"orange","left_mu":40,"right_mu":36,"left_numbers":[31,43,33,49,52],"right_numbers":[27,36,36,34,38],"points_earned":189,"phase":"task","trial_type":"horizons-task","trial_index":81,"time_elapsed":1477680,"internal_node_id":"0.0-77.0","task_version":"0.2"},{"response_times":[501.97999997180887,400.96999998786487,466.1550000018906,635.1650000142399,1549.284999986412,460.70500000496395,445.43999998131767,621.6999999887776,526.5600000275299,507.8299999877345],"keys_pressed":["rightarrow","rightarrow","rightarrow","leftarrow","rightarrow","rightarrow","leftarrow","leftarrow","rightarrow","leftarrow"],"horizon":10,"forced_choices":["rightarrow","rightarrow","rightarrow","leftarrow"],"right_color":"orange","left_color":"lightblue","left_mu":60,"right_mu":64,"left_numbers":[47,71,69,58,61,61,69,51,72,60],"right_numbers":[64,67,61,56,46,55,67,56,58,69],"points_earned":589,"phase":"task","trial_type":"horizons-task","trial_index":82,"time_elapsed":1485301,"internal_node_id":"0.0-78.0","task_version":"0.2"},{"response_times":[521.6199999849778,428.8549999764655,434.24999999115244,421.88000000896864,525.4899999999907],"keys_pressed":["leftarrow","leftarrow","rightarrow","rightarrow","rightarrow"],"horizon":5,"forced_choices":["leftarrow","leftarrow","rightarrow","rightarrow"],"right_color":"orange","left_color":"lightblue","left_mu":40,"right_mu":70,"left_numbers":[34,55,38,44,36],"right_numbers":[62,76,71,69,80],"points_earned":309,"phase":"task","trial_type":"horizons-task","trial_index":83,"time_elapsed":1489136,"internal_node_id":"0.0-79.0","task_version":"0.2"},{"response_times":[449.41000000108033,408.7749999889638,414.8200000054203,422.0050000003539,423.3399999793619],"keys_pressed":["leftarrow","leftarrow","rightarrow","rightarrow","rightarrow"],"horizon":5,"forced_choices":["leftarrow","leftarrow","rightarrow","rightarrow"],"right_color":"orange","left_color":"lightblue","left_mu":60,"right_mu":68,"left_numbers":[62,43,60,58,61],"right_numbers":[71,84,72,70,67],"points_earned":314,"phase":"task","trial_type":"horizons-task","trial_index":84,"time_elapsed":1492763,"internal_node_id":"0.0-80.0","task_version":"0.2"},{"response_times":[424.08000002615154,348.0849999759812,433.32499999087304,398.22499998263083,981.9499999866821,412.1949999826029,529.179999983171,270.17000000341795,169.02000000118278,411.6349999967497],"keys_pressed":["rightarrow","rightarrow","leftarrow","leftarrow","leftarrow","rightarrow","leftarrow","leftarrow","leftarrow","leftarrow"],"horizon":10,"forced_choices":["rightarrow","rightarrow","leftarrow","leftarrow"],"right_color":"orange","left_color":"lightblue","left_mu":40,"right_mu":20,"left_numbers":[65,35,51,31,47,48,45,36,17,33],"right_numbers":[36,17,2,19,24,17,23,4,14,18],"points_earned":330,"phase":"task","trial_type":"horizons-task","trial_index":85,"time_elapsed":1498645,"internal_node_id":"0.0-81.0","task_version":"0.2"},{"response_times":[540.8900000038557,554.8800000105985,461.6000000096392,445.6050000153482,1028.7650000245776,562.8000000142492,370.664999994915,175.56500001228414,151.32999999332242,172.16499999631196],"keys_pressed":["leftarrow","leftarrow","leftarrow","rightarrow","rightarrow","leftarrow","rightarrow","rightarrow","rightarrow","rightarrow"],"horizon":10,"forced_choices":["leftarrow","leftarrow","leftarrow","rightarrow"],"right_color":"orange","left_color":"lightblue","left_mu":40,"right_mu":70,"left_numbers":[38,40,44,36,41,28,30,34,27,51],"right_numbers":[67,71,74,78,57,77,93,74,56,77],"points_earned":585,"phase":"task","trial_type":"horizons-task","trial_index":86,"time_elapsed":1504614,"internal_node_id":"0.0-82.0","task_version":"0.2"},{"response_times":[491.6150000062771,407.8849999932572,560.364999982994,394.8999999847729,550.0499999907333],"keys_pressed":["leftarrow","leftarrow","leftarrow","rightarrow","rightarrow"],"horizon":5,"forced_choices":["leftarrow","leftarrow","leftarrow","rightarrow"],"right_color":"orange","left_color":"lightblue","left_mu":40,"right_mu":70,"left_numbers":[47,30,41,44,42],"right_numbers":[76,71,62,84,87],"points_earned":289,"phase":"task","trial_type":"horizons-task","trial_index":87,"time_elapsed":1508523,"internal_node_id":"0.0-83.0","task_version":"0.2"},{"response_times":[363.6750000005122,367.60500000673346,424.31000000215136,437.9999999946449,897.6200000033714],"keys_pressed":["leftarrow","leftarrow","rightarrow","leftarrow","leftarrow"],"horizon":5,"forced_choices":["leftarrow","leftarrow","rightarrow","leftarrow"],"right_color":"orange","left_color":"lightblue","left_mu":40,"right_mu":10,"left_numbers":[29,43,47,29,50],"right_numbers":[0,19,4,15,4],"points_earned":155,"phase":"task","trial_type":"horizons-task","trial_index":88,"time_elapsed":1512523,"internal_node_id":"0.0-84.0","task_version":"0.2"},{"response_times":[371.43999998806976,375.9999999892898,428.5800000070594,683.8500000012573,450.26000001234934],"keys_pressed":["leftarrow","rightarrow","rightarrow","leftarrow","rightarrow"],"horizon":5,"forced_choices":["leftarrow","rightarrow","rightarrow","leftarrow"],"right_color":"orange","left_color":"lightblue","left_mu":40,"right_mu":60,"left_numbers":[43,37,36,48,37],"right_numbers":[54,67,67,64,57],"points_earned":282,"phase":"task","trial_type":"horizons-task","trial_index":89,"time_elapsed":1516342,"internal_node_id":"0.0-85.0","task_version":"0.2"},{"response_times":[489.31499998434447,383.78499998361804,346.7149999924004,407.44000000995584,397.9199999885168,2056.385000003502,292.99499999615364,571.5600000112318,331.41999997314997,329.4199999945704],"keys_pressed":["leftarrow","rightarrow","leftarrow","rightarrow","leftarrow","rightarrow","leftarrow","leftarrow","leftarrow","leftarrow"],"horizon":10,"forced_choices":["leftarrow","rightarrow","leftarrow","rightarrow"],"right_color":"orange","left_color":"lightblue","left_mu":60,"right_mu":40,"left_numbers":[58,72,49,67,56,59,60,55,67,71],"right_numbers":[32,32,33,48,38,53,53,31,30,39],"points_earned":549,"phase":"task","trial_type":"horizons-task","trial_index":90,"time_elapsed":1523457,"internal_node_id":"0.0-86.0","task_version":"0.2"},{"response_times":[4999.279999989085,411.5100000053644,806.0349999868777,427.3749999993015,1226.5450000122655,423.84999999194406,598.1699999829289,413.9499999873806,162.8599999821745,164.35000000637956],"keys_pressed":["rightarrow","rightarrow","rightarrow","leftarrow","leftarrow","rightarrow","leftarrow","leftarrow","leftarrow","leftarrow"],"horizon":10,"forced_choices":["rightarrow","rightarrow","rightarrow","leftarrow"],"right_color":"lightblue","left_color":"orange","left_mu":40,"right_mu":36,"left_numbers":[57,45,50,51,48,30,30,42,40,36],"right_numbers":[53,32,37,32,40,31,30,36,33,26],"points_earned":400,"phase":"task","trial_type":"horizons-task","trial_index":91,"time_elapsed":1534598,"internal_node_id":"0.0-87.0","task_version":"0.2"},{"rt":10785.179999977117,"responses":{"age":"20","gender-categorical":"Female","gender-free-response":"","ethnicity":"Not Hispanic or Latino","race":["Asian"],"language":"Yes","fluency":"Very well"},"survey":"demographics","trial_type":"survey-demo","trial_index":92,"time_elapsed":1545390,"internal_node_id":"0.0-88.0","task_version":"0.2"},{"rt":10119.939999975031,"responses":{"difficulty":"5","fun":"4","clarity":"4","strategy":"No","feedback":""},"survey":"debrief","trial_type":"survey-debrief","trial_index":93,"time_elapsed":1555515,"internal_node_id":"0.0-89.0","task_version":"0.2","interactions":"[{\"event\":\"blur\",\"trial\":46,\"time\":742656},{\"event\":\"focus\",\"trial\":46,\"time\":743773},{\"event\":\"blur\",\"trial\":76,\"time\":1420252},{\"event\":\"focus\",\"trial\":76,\"time\":1433626},{\"event\":\"blur\",\"trial\":77,\"time\":1440688},{\"event\":\"focus\",\"trial\":77,\"time\":1448615}]"}]