[{"view_history":"[{\"page_index\":0,\"viewing_time\":3248.000000000001}]","rt":3251,"trial_type":"instructions","trial_index":0,"time_elapsed":3264,"internal_node_id":"0.0-0.0","task_version":"0.2"},{"item_order":[4,2,9,13,0,15,10,11,8,6,5,7,14,1,12,3],"responses":{"Q05":"2","Q03":"3","Q10":"2","Q14":"1","Q01":"5","Q16":"5","Q11":"5","Q12":"4","Q09":"3","Q07":"4","Q06":"5","Q08":"4","Q15":"4","Q02":"5","Q13":"4","Q04":"5"},"radio_events":[3958,5807,11504.999999999998,19764,26825,33493,39756,43359,47664,50525,57167,100402,104788,113093,115019,124928.00000000001,127995.00000000003,140169,143350,147427],"key_events":[],"mouse_events":[0,3958,5807,11504.999999999998,19103,19764,26247,26825,32812,33493,39756,43359,47664,50525,57167,100402,104788,113093,115019,124928.00000000001,127995.00000000003,139667,140169,143350,147427,148090],"rt":148117,"survey":"nfc","trial_type":"survey-template","trial_index":1,"time_elapsed":151385,"internal_node_id":"0.0-1.0","task_version":"0.2"},{"item_order":[1,8,5,3,6,11,13,16,4,10,14,7,0,15,2,9,12],"responses":{"Q02":"3","Q09":"3","Q06":"4","Q04":"4","Q07":"4","Q12":"3","Q14":"4","Q17":"0","Q05":"4","Q11":"2","Q15":"3","Q08":"3","Q01":"4","Q16":"4","Q03":"4","Q10":"4","Q13":"4"},"radio_events":[7658.999999999971,8566,9770.99999999997,12195.99999999997,38858.99999999997,76626.99999999997,82129.99999999997,86840.99999999997,137339.99999999997,139795.00000000003,144929.99999999997,150596.99999999997,164090.99999999997,166086.99999999997,169802.99999999997,180459.99999999997,183546.99999999997,185754.00000000003,188106.99999999997,192835.99999999997],"key_events":[],"mouse_events":[6853.999999999971,7658.999999999971,8566,9770.99999999997,12195.99999999997,37614.99999999997,38858.99999999997,76626.99999999997,82129.99999999997,85216.99999999997,86336.99999999997,86840.99999999997,137339.99999999997,139795.00000000003,144929.99999999997,149449.99999999997,150039.99999999997,150596.99999999997,164090.99999999997,166086.99999999997,169802.99999999997,180459.99999999997,183546.99999999997,185754.00000000003,188106.99999999997,192835.99999999997,194380.99999999997],"rt":194388.99999999997,"survey":"pswq","trial_type":"survey-template","trial_index":2,"time_elapsed":345778,"internal_node_id":"0.0-2.0","task_version":"0.2"},{"item_order":[4,10,6,1,2,0,7,9,5,8,11,3,12],"responses":{"Q05":"2","Q11":"3","Q07":"3","Q02":"4","Q03":"3","Q01":"4","Q08":"3","Q10":"3","Q06":"3","Q09":"3","Q12":"4","Q04":"3","Q13":"4"},"radio_events":[39102,43226,48266.00000000006,50851,54578,235256,238966,243426,246467,250581,253693,258428,262209,264122],"key_events":[],"mouse_events":[39102,43226,46348,47663,48266.00000000006,50851,54578,235256,237896,238383,238966,242558,243426,245874,246467,250581,253072,253693,258428,262209,264122,266310],"rt":266317,"survey":"ius12","trial_type":"survey-template","trial_index":3,"time_elapsed":612099,"internal_node_id":"0.0-3.0","task_version":"0.2"},{"view_history":"[{\"page_index\":0,\"viewing_time\":4622.000000000116},{\"page_index\":1,\"viewing_time\":5943.999999999884},{\"page_index\":2,\"viewing_time\":8437},{\"page_index\":3,\"viewing_time\":6255},{\"page_index\":4,\"viewing_time\":7503},{\"page_index\":5,\"viewing_time\":4971},{\"page_index\":6,\"viewing_time\":6309},{\"page_index\":7,\"viewing_time\":9935},{\"page_index\":8,\"viewing_time\":8172},{\"page_index\":9,\"viewing_time\":8443}]","rt":70592,"trial_type":"instructions","trial_index":4,"time_elapsed":682691,"internal_node_id":"0.0-4.0-0.0","task_version":"0.2"},{"response_times":[1457,700,463,909,1832],"keys_pressed":["rightarrow","leftarrow","rightarrow","rightarrow","leftarrow"],"horizon":5,"forced_choices":["rightarrow","leftarrow","rightarrow","rightarrow"],"right_color":"lightblue","left_color":"orange","left_mu":40,"right_mu":20,"left_numbers":[28,25,40,36,29],"right_numbers":[20,4,20,19,19],"points_earned":113,"phase":"practice","trial_type":"horizons-task","trial_index":5,"time_elapsed":689557,"internal_node_id":"0.0-4.0-1.0","task_version":"0.2"},{"response_times":[1407,941,534,657,2394,1318,839,1248,807,778],"keys_pressed":["leftarrow","leftarrow","rightarrow","rightarrow","leftarrow","rightarrow","rightarrow","rightarrow","leftarrow","rightarrow"],"horizon":10,"forced_choices":["leftarrow","leftarrow","rightarrow","rightarrow"],"right_color":"orange","left_color":"lightblue","left_mu":60,"right_mu":70,"left_numbers":[62,56,56,55,50,66,71,57,66,55],"right_numbers":[79,74,83,69,62,69,76,62,64,75],"points_earned":668,"phase":"practice","trial_type":"horizons-task","trial_index":6,"time_elapsed":701982,"internal_node_id":"0.0-4.0-2.0","task_version":"0.2"},{"view_history":"[{\"page_index\":0,\"viewing_time\":2222},{\"page_index\":1,\"viewing_time\":2930},{\"page_index\":2,\"viewing_time\":4960},{\"page_index\":3,\"viewing_time\":2942}]","rt":13054,"trial_type":"instructions","trial_index":7,"time_elapsed":715037,"internal_node_id":"0.0-4.0-3.0","task_version":"0.2"},{"responses":["false","false","true"],"num_errors":1,"rt":13204,"trial_type":"horizons-comprehension","trial_index":8,"time_elapsed":728242,"internal_node_id":"0.0-4.0-4.0","task_version":"0.2"},{"view_history":"[{\"page_index\":0,\"viewing_time\":3440.9999999998836},{\"page_index\":1,\"viewing_time\":3508},{\"page_index\":2,\"viewing_time\":3565},{\"page_index\":3,\"viewing_time\":1053},{\"page_index\":2,\"viewing_time\":2962.0000000001164},{\"page_index\":3,\"viewing_time\":9995},{\"page_index\":4,\"viewing_time\":3288.9999999998836},{\"page_index\":5,\"viewing_time\":1556},{\"page_index\":6,\"viewing_time\":1551},{\"page_index\":7,\"viewing_time\":2838},{\"page_index\":8,\"viewing_time\":1789},{\"page_index\":9,\"viewing_time\":1186}]","rt":36733.99999999988,"trial_type":"instructions","trial_index":9,"time_elapsed":764979,"internal_node_id":"0.0-4.1-0.1","task_version":"0.2"},{"response_times":[1879,1744,589.0000000001164,618.9999999998836,236],"keys_pressed":["rightarrow","leftarrow","rightarrow","rightarrow","rightarrow"],"horizon":5,"forced_choices":["rightarrow","leftarrow","rightarrow","rightarrow"],"right_color":"lightblue","left_color":"orange","left_mu":40,"right_mu":20,"left_numbers":[21,46,59,35,38],"right_numbers":[25,24,8,15,30],"points_earned":124,"phase":"practice","trial_type":"horizons-task","trial_index":10,"time_elapsed":771549,"internal_node_id":"0.0-4.1-1.1","task_version":"0.2"},{"response_times":[3363,463.0000000001164,493.9999999998836,484,2399,601,859,388,323.9999999998836,377],"keys_pressed":["leftarrow","leftarrow","rightarrow","rightarrow","rightarrow","rightarrow","rightarrow","rightarrow","rightarrow","rightarrow"],"horizon":10,"forced_choices":["leftarrow","leftarrow","rightarrow","rightarrow"],"right_color":"orange","left_color":"lightblue","left_mu":60,"right_mu":70,"left_numbers":[49,65,71,52,66,43,49,67,59,66],"right_numbers":[66,76,68,73,70,54,62,83,69,76],"points_earned":669,"phase":"practice","trial_type":"horizons-task","trial_index":11,"time_elapsed":782804,"internal_node_id":"0.0-4.1-2.1","task_version":"0.2"},{"view_history":"[{\"page_index\":0,\"viewing_time\":1970.0000000001164},{\"page_index\":1,\"viewing_time\":1339.9999999998836},{\"page_index\":2,\"viewing_time\":1646},{\"page_index\":3,\"viewing_time\":2024}]","rt":6980,"trial_type":"instructions","trial_index":12,"time_elapsed":789785,"internal_node_id":"0.0-4.1-3.1","task_version":"0.2"},{"responses":["true","false","true"],"num_errors":0,"rt":9445,"trial_type":"horizons-comprehension","trial_index":13,"time_elapsed":799231,"internal_node_id":"0.0-4.1-4.1","task_version":"0.2"},{"trial_type":"call-function","trial_index":14,"time_elapsed":799233,"internal_node_id":"0.0-5.0","task_version":"0.2"},{"view_history":"[{\"page_index\":0,\"viewing_time\":1702},{\"page_index\":1,\"viewing_time\":4531.000000000116}]","rt":6233.000000000116,"trial_type":"instructions","trial_index":15,"time_elapsed":805467,"internal_node_id":"0.0-6.0","task_version":"0.2"},{"response_times":[1149.9999999998836,923,833,976,490],"keys_pressed":["leftarrow","rightarrow","rightarrow","rightarrow","leftarrow"],"horizon":5,"forced_choices":["leftarrow","rightarrow","rightarrow","rightarrow"],"right_color":"orange","left_color":"lightblue","left_mu":40,"right_mu":28,"left_numbers":[48,35,50,45,44],"right_numbers":[31,25,31,38,39],"points_earned":186,"phase":"task","trial_type":"horizons-task","trial_index":16,"time_elapsed":811346,"internal_node_id":"0.0-7.0","task_version":"0.2"},{"response_times":[941.0000000001164,1041.9999999998836,883,928,2283,1076.0000000001164,1948.9999999998836,550,475,851],"keys_pressed":["rightarrow","leftarrow","leftarrow","leftarrow","rightarrow","leftarrow","leftarrow","leftarrow","rightarrow","leftarrow"],"horizon":10,"forced_choices":["rightarrow","leftarrow","leftarrow","leftarrow"],"right_color":"orange","left_color":"lightblue","left_mu":60,"right_mu":68,"left_numbers":[67,49,71,68,63,69,50,66,54,54],"right_numbers":[74,58,59,67,55,78,67,76,55,69],"points_earned":611,"phase":"task","trial_type":"horizons-task","trial_index":17,"time_elapsed":823828,"internal_node_id":"0.0-8.0","task_version":"0.2"},{"response_times":[907,687,730,1022,2296],"keys_pressed":["rightarrow","rightarrow","leftarrow","rightarrow","rightarrow"],"horizon":5,"forced_choices":["rightarrow","rightarrow","leftarrow","rightarrow"],"right_color":"orange","left_color":"lightblue","left_mu":40,"right_mu":70,"left_numbers":[43,39,56,31,38],"right_numbers":[73,66,64,54,75],"points_earned":324,"phase":"task","trial_type":"horizons-task","trial_index":18,"time_elapsed":830972,"internal_node_id":"0.0-9.0","task_version":"0.2"},{"response_times":[1046.0000000001164,743.9999999998836,519,1202,934.0000000001164,712.9999999998836,789,460,425,404],"keys_pressed":["leftarrow","leftarrow","rightarrow","rightarrow","leftarrow","leftarrow","leftarrow","leftarrow","leftarrow","leftarrow"],"horizon":10,"forced_choices":["leftarrow","leftarrow","rightarrow","rightarrow"],"right_color":"lightblue","left_color":"orange","left_mu":40,"right_mu":10,"left_numbers":[40,28,38,47,46,34,36,36,41,30],"right_numbers":[14,16,10,10,16,3,11,6,17,1],"points_earned":311,"phase":"task","trial_type":"horizons-task","trial_index":19,"time_elapsed":839712,"internal_node_id":"0.0-10.0","task_version":"0.2"},{"response_times":[945,706.0000000001164,741.9999999998836,568,2373.0000000001164],"keys_pressed":["leftarrow","leftarrow","leftarrow","rightarrow","rightarrow"],"horizon":5,"forced_choices":["leftarrow","leftarrow","leftarrow","rightarrow"],"right_color":"orange","left_color":"lightblue","left_mu":60,"right_mu":64,"left_numbers":[69,70,51,36,47],"right_numbers":[70,53,71,71,75],"points_earned":336,"phase":"task","trial_type":"horizons-task","trial_index":20,"time_elapsed":846551,"internal_node_id":"0.0-11.0","task_version":"0.2"},{"response_times":[665.0000000001164,1173.9999999998836,640,2112,637],"keys_pressed":["leftarrow","leftarrow","rightarrow","rightarrow","leftarrow"],"horizon":5,"forced_choices":["leftarrow","leftarrow","rightarrow","rightarrow"],"right_color":"lightblue","left_color":"orange","left_mu":40,"right_mu":10,"left_numbers":[56,41,35,52,39],"right_numbers":[6,0,10,9,24],"points_earned":155,"phase":"task","trial_type":"horizons-task","trial_index":21,"time_elapsed":853282,"internal_node_id":"0.0-12.0","task_version":"0.2"},{"response_times":[797,726,810.0000000001164,570.9999999998836,1516.0000000001164],"keys_pressed":["rightarrow","leftarrow","leftarrow","rightarrow","rightarrow"],"horizon":5,"forced_choices":["rightarrow","leftarrow","leftarrow","rightarrow"],"right_color":"orange","left_color":"lightblue","left_mu":40,"right_mu":70,"left_numbers":[39,48,34,22,46],"right_numbers":[68,68,82,62,73],"points_earned":285,"phase":"task","trial_type":"horizons-task","trial_index":22,"time_elapsed":859205,"internal_node_id":"0.0-13.0","task_version":"0.2"},{"response_times":[590,876,844,632,1489],"keys_pressed":["leftarrow","rightarrow","rightarrow","rightarrow","leftarrow"],"horizon":5,"forced_choices":["leftarrow","rightarrow","rightarrow","rightarrow"],"right_color":"lightblue","left_color":"orange","left_mu":60,"right_mu":56,"left_numbers":[69,40,60,39,64],"right_numbers":[64,51,52,48,61],"points_earned":284,"phase":"task","trial_type":"horizons-task","trial_index":23,"time_elapsed":865139,"internal_node_id":"0.0-14.0","task_version":"0.2"},{"response_times":[815,690,749.0000000001164,644,2330.9999999998836,2722.0000000001164,1351,572.9999999998836,459,775],"keys_pressed":["leftarrow","rightarrow","rightarrow","rightarrow","leftarrow","leftarrow","rightarrow","rightarrow","rightarrow","rightarrow"],"horizon":10,"forced_choices":["leftarrow","rightarrow","rightarrow","rightarrow"],"right_color":"lightblue","left_color":"orange","left_mu":60,"right_mu":56,"left_numbers":[50,73,63,64,55,45,51,57,43,59],"right_numbers":[57,45,53,52,47,47,65,46,61,63],"points_earned":535,"phase":"task","trial_type":"horizons-task","trial_index":24,"time_elapsed":877753,"internal_node_id":"0.0-15.0","task_version":"0.2"},{"response_times":[661,730.0000000001164,498.9999999998836,710,2031],"keys_pressed":["leftarrow","leftarrow","rightarrow","leftarrow","rightarrow"],"horizon":5,"forced_choices":["leftarrow","leftarrow","rightarrow","leftarrow"],"right_color":"orange","left_color":"lightblue","left_mu":60,"right_mu":80,"left_numbers":[61,69,60,48,66],"right_numbers":[70,79,74,78,78],"points_earned":330,"phase":"task","trial_type":"horizons-task","trial_index":25,"time_elapsed":883887,"internal_node_id":"0.0-16.0","task_version":"0.2"},{"response_times":[511,742,513,483,1948,1086,442,378.0000000001164,364,431],"keys_pressed":["leftarrow","rightarrow","leftarrow","rightarrow","leftarrow","leftarrow","leftarrow","leftarrow","leftarrow","leftarrow"],"horizon":10,"forced_choices":["leftarrow","rightarrow","leftarrow","rightarrow"],"right_color":"lightblue","left_color":"orange","left_mu":60,"right_mu":48,"left_numbers":[71,66,61,68,56,46,54,55,65,55],"right_numbers":[47,49,46,50,46,51,46,39,63,37],"points_earned":562,"phase":"task","trial_type":"horizons-task","trial_index":26,"time_elapsed":892289,"internal_node_id":"0.0-17.0","task_version":"0.2"},{"response_times":[669,495,505,617,2361],"keys_pressed":["leftarrow","rightarrow","leftarrow","leftarrow","rightarrow"],"horizon":5,"forced_choices":["leftarrow","rightarrow","leftarrow","leftarrow"],"right_color":"lightblue","left_color":"orange","left_mu":40,"right_mu":52,"left_numbers":[42,41,28,22,36],"right_numbers":[53,44,44,48,65],"points_earned":201,"phase":"task","trial_type":"horizons-task","trial_index":27,"time_elapsed":898439,"internal_node_id":"0.0-18.0","task_version":"0.2"},{"response_times":[589,647.0000000001164,620.9999999998836,444,2234,677,609,322,399,364],"keys_pressed":["leftarrow","rightarrow","rightarrow","leftarrow","rightarrow","rightarrow","rightarrow","rightarrow","rightarrow","rightarrow"],"horizon":10,"forced_choices":["leftarrow","rightarrow","rightarrow","leftarrow"],"right_color":"orange","left_color":"lightblue","left_mu":40,"right_mu":60,"left_numbers":[45,38,51,44,30,29,61,49,36,50],"right_numbers":[77,57,51,58,64,67,61,72,63,61],"points_earned":585,"phase":"task","trial_type":"horizons-task","trial_index":28,"time_elapsed":906851,"internal_node_id":"0.0-19.0","task_version":"0.2"},{"response_times":[702.9999999998836,537.0000000001164,923.9999999998836,492,1298],"keys_pressed":["rightarrow","rightarrow","leftarrow","leftarrow","rightarrow"],"horizon":5,"forced_choices":["rightarrow","rightarrow","leftarrow","leftarrow"],"right_color":"orange","left_color":"lightblue","left_mu":60,"right_mu":68,"left_numbers":[52,59,53,46,46],"right_numbers":[70,63,76,73,72],"points_earned":304,"phase":"task","trial_type":"horizons-task","trial_index":29,"time_elapsed":912308,"internal_node_id":"0.0-20.0","task_version":"0.2"},{"response_times":[858,465,795,503,3677],"keys_pressed":["rightarrow","leftarrow","leftarrow","rightarrow","rightarrow"],"horizon":5,"forced_choices":["rightarrow","leftarrow","leftarrow","rightarrow"],"right_color":"lightblue","left_color":"orange","left_mu":60,"right_mu":52,"left_numbers":[45,65,62,61,66],"right_numbers":[65,54,63,63,33],"points_earned":288,"phase":"task","trial_type":"horizons-task","trial_index":30,"time_elapsed":920109,"internal_node_id":"0.0-21.0","task_version":"0.2"},{"response_times":[952,769,475,1110,1712],"keys_pressed":["rightarrow","leftarrow","rightarrow","leftarrow","leftarrow"],"horizon":5,"forced_choices":["rightarrow","leftarrow","rightarrow","leftarrow"],"right_color":"lightblue","left_color":"orange","left_mu":40,"right_mu":20,"left_numbers":[42,44,45,35,31],"right_numbers":[17,29,31,18,17],"points_earned":158,"phase":"task","trial_type":"horizons-task","trial_index":31,"time_elapsed":926630,"internal_node_id":"0.0-22.0","task_version":"0.2"},{"response_times":[836.0000000001164,729.9999999998836,760.9999999998836,936.0000000001164,1884.9999999998836,680,475,422,460,466],"keys_pressed":["leftarrow","leftarrow","rightarrow","leftarrow","leftarrow","leftarrow","leftarrow","leftarrow","leftarrow","leftarrow"],"horizon":10,"forced_choices":["leftarrow","leftarrow","rightarrow","leftarrow"],"right_color":"orange","left_color":"lightblue","left_mu":60,"right_mu":40,"left_numbers":[67,66,55,63,67,61,53,54,53,67],"right_numbers":[54,42,45,59,56,40,41,42,48,29],"points_earned":596,"phase":"task","trial_type":"horizons-task","trial_index":32,"time_elapsed":935785,"internal_node_id":"0.0-23.0","task_version":"0.2"},{"response_times":[559,1176,646,531.0000000001164,959.9999999998836],"keys_pressed":["leftarrow","leftarrow","rightarrow","rightarrow","rightarrow"],"horizon":5,"forced_choices":["leftarrow","leftarrow","rightarrow","rightarrow"],"right_color":"lightblue","left_color":"orange","left_mu":40,"right_mu":48,"left_numbers":[37,21,45,40,32],"right_numbers":[51,50,53,53,61],"points_earned":225,"phase":"task","trial_type":"horizons-task","trial_index":33,"time_elapsed":941160,"internal_node_id":"0.0-24.0","task_version":"0.2"},{"response_times":[589,682,676,596,2857,2334.0000000001164,587.9999999998836,455,366,428],"keys_pressed":["leftarrow","leftarrow","leftarrow","rightarrow","rightarrow","rightarrow","rightarrow","rightarrow","rightarrow","rightarrow"],"horizon":10,"forced_choices":["leftarrow","leftarrow","leftarrow","rightarrow"],"right_color":"orange","left_color":"lightblue","left_mu":60,"right_mu":64,"left_numbers":[72,50,46,76,48,46,57,61,70,64],"right_numbers":[73,50,47,64,57,68,63,57,73,65],"points_earned":615,"phase":"task","trial_type":"horizons-task","trial_index":34,"time_elapsed":952235,"internal_node_id":"0.0-25.0","task_version":"0.2"},{"response_times":[731,569.9999999998836,591,872,2327],"keys_pressed":["rightarrow","leftarrow","leftarrow","leftarrow","rightarrow"],"horizon":5,"forced_choices":["rightarrow","leftarrow","leftarrow","leftarrow"],"right_color":"orange","left_color":"lightblue","left_mu":60,"right_mu":68,"left_numbers":[65,53,53,60,74],"right_numbers":[60,77,59,72,60],"points_earned":286,"phase":"task","trial_type":"horizons-task","trial_index":35,"time_elapsed":958829,"internal_node_id":"0.0-26.0","task_version":"0.2"},{"response_times":[681,477,542,655,1738,1106,1404,411,350,801],"keys_pressed":["rightarrow","leftarrow","leftarrow","leftarrow","rightarrow","leftarrow","rightarrow","rightarrow","rightarrow","leftarrow"],"horizon":10,"forced_choices":["rightarrow","leftarrow","leftarrow","leftarrow"],"right_color":"orange","left_color":"lightblue","left_mu":40,"right_mu":36,"left_numbers":[27,40,24,36,39,32,43,37,20,40],"right_numbers":[47,51,39,33,38,40,39,30,15,33],"points_earned":341,"phase":"task","trial_type":"horizons-task","trial_index":36,"time_elapsed":968497,"internal_node_id":"0.0-27.0","task_version":"0.2"},{"response_times":[566,713.9999999998836,540,478,2378,959,471,375,427,438],"keys_pressed":["leftarrow","leftarrow","rightarrow","rightarrow","rightarrow","rightarrow","rightarrow","rightarrow","rightarrow","rightarrow"],"horizon":10,"forced_choices":["leftarrow","leftarrow","rightarrow","rightarrow"],"right_color":"lightblue","left_color":"orange","left_mu":40,"right_mu":48,"left_numbers":[44,22,47,35,31,47,33,49,34,54],"right_numbers":[65,42,59,35,55,51,41,46,48,63],"points_earned":464,"phase":"task","trial_type":"horizons-task","trial_index":37,"time_elapsed":977350,"internal_node_id":"0.0-28.0","task_version":"0.2"},{"response_times":[758,1505,1126.0000000001164,733.9999999998836,971,770,393,218,344,428],"keys_pressed":["rightarrow","rightarrow","leftarrow","rightarrow","leftarrow","rightarrow","rightarrow","rightarrow","rightarrow","rightarrow"],"horizon":10,"forced_choices":["rightarrow","rightarrow","leftarrow","rightarrow"],"right_color":"orange","left_color":"lightblue","left_mu":40,"right_mu":70,"left_numbers":[39,43,30,34,33,51,30,34,36,32],"right_numbers":[65,67,62,71,60,68,64,64,65,71],"points_earned":598,"phase":"task","trial_type":"horizons-task","trial_index":38,"time_elapsed":986102,"internal_node_id":"0.0-29.0","task_version":"0.2"},{"response_times":[603,780,550,678,2491],"keys_pressed":["rightarrow","rightarrow","leftarrow","leftarrow","leftarrow"],"horizon":5,"forced_choices":["rightarrow","rightarrow","leftarrow","leftarrow"],"right_color":"orange","left_color":"lightblue","left_mu":60,"right_mu":40,"left_numbers":[62,54,49,47,71],"right_numbers":[50,40,42,35,38],"points_earned":257,"phase":"task","trial_type":"horizons-task","trial_index":39,"time_elapsed":992709,"internal_node_id":"0.0-30.0","task_version":"0.2"},{"response_times":[602,691,533,659,3291.0000000001164],"keys_pressed":["rightarrow","rightarrow","leftarrow","rightarrow","leftarrow"],"horizon":5,"forced_choices":["rightarrow","rightarrow","leftarrow","rightarrow"],"right_color":"lightblue","left_color":"orange","left_mu":40,"right_mu":20,"left_numbers":[43,38,34,35,35],"right_numbers":[11,27,6,23,28],"points_earned":130,"phase":"task","trial_type":"horizons-task","trial_index":40,"time_elapsed":999988,"internal_node_id":"0.0-31.0","task_version":"0.2"},{"response_times":[639,652,452,1168,1757],"keys_pressed":["leftarrow","leftarrow","rightarrow","leftarrow","leftarrow"],"horizon":5,"forced_choices":["leftarrow","leftarrow","rightarrow","leftarrow"],"right_color":"orange","left_color":"lightblue","left_mu":60,"right_mu":40,"left_numbers":[56,63,58,73,59],"right_numbers":[37,56,36,45,31],"points_earned":287,"phase":"task","trial_type":"horizons-task","trial_index":41,"time_elapsed":1006161,"internal_node_id":"0.0-32.0","task_version":"0.2"},{"response_times":[821,444,403,961,435,2636,374.0000000001164,266.9999999998836,199,445],"keys_pressed":["rightarrow","leftarrow","rightarrow","leftarrow","rightarrow","leftarrow","leftarrow","leftarrow","leftarrow","leftarrow"],"horizon":10,"forced_choices":["rightarrow","leftarrow","rightarrow","leftarrow"],"right_color":"lightblue","left_color":"orange","left_mu":40,"right_mu":20,"left_numbers":[19,42,42,42,44,40,44,39,51,49],"right_numbers":[12,21,3,32,23,30,15,24,23,23],"points_earned":345,"phase":"task","trial_type":"horizons-task","trial_index":42,"time_elapsed":1014648,"internal_node_id":"0.0-33.0","task_version":"0.2"},{"response_times":[703.0000000001164,668,459.9999999998836,645,2437,1110,451,872.0000000001164,394,356.99999999976717],"keys_pressed":["rightarrow","rightarrow","leftarrow","rightarrow","rightarrow","rightarrow","rightarrow","rightarrow","rightarrow","rightarrow"],"horizon":10,"forced_choices":["rightarrow","rightarrow","leftarrow","rightarrow"],"right_color":"orange","left_color":"lightblue","left_mu":40,"right_mu":32,"left_numbers":[36,48,29,35,42,36,35,36,41,44],"right_numbers":[37,33,22,24,50,26,28,32,24,38],"points_earned":321,"phase":"task","trial_type":"horizons-task","trial_index":43,"time_elapsed":1024249,"internal_node_id":"0.0-34.0","task_version":"0.2"},{"response_times":[711,883.0000000001164,642,889.9999999998836,1244.0000000001164,506.9999999998836,330.0000000001164,232,397.9999999998836,396.9999999998836],"keys_pressed":["rightarrow","leftarrow","rightarrow","leftarrow","leftarrow","leftarrow","leftarrow","leftarrow","leftarrow","leftarrow"],"horizon":10,"forced_choices":["rightarrow","leftarrow","rightarrow","leftarrow"],"right_color":"orange","left_color":"lightblue","left_mu":60,"right_mu":30,"left_numbers":[68,64,50,55,47,65,59,69,59,66],"right_numbers":[30,31,22,34,34,26,24,32,23,24],"points_earned":536,"phase":"task","trial_type":"horizons-task","trial_index":44,"time_elapsed":1031990,"internal_node_id":"0.0-35.0","task_version":"0.2"},{"response_times":[1501.9999999998836,2164,1240,1052,4941,544.0000000001164,349.9999999998836,592.0000000001164,366,374],"keys_pressed":["leftarrow","rightarrow","rightarrow","rightarrow","rightarrow","rightarrow","rightarrow","rightarrow","rightarrow","rightarrow"],"horizon":10,"forced_choices":["leftarrow","rightarrow","rightarrow","rightarrow"],"right_color":"orange","left_color":"lightblue","left_mu":40,"right_mu":60,"left_numbers":[39,42,35,36,39,47,42,36,38,36],"right_numbers":[63,72,44,68,61,38,54,44,59,68],"points_earned":547,"phase":"task","trial_type":"horizons-task","trial_index":45,"time_elapsed":1046617,"internal_node_id":"0.0-36.0","task_version":"0.2"},{"response_times":[725,541.0000000002328,984.9999999997672,668,1637],"keys_pressed":["rightarrow","leftarrow","leftarrow","rightarrow","leftarrow"],"horizon":5,"forced_choices":["rightarrow","leftarrow","leftarrow","rightarrow"],"right_color":"orange","left_color":"lightblue","left_mu":40,"right_mu":28,"left_numbers":[43,42,39,36,41],"right_numbers":[28,22,25,27,18],"points_earned":177,"phase":"task","trial_type":"horizons-task","trial_index":46,"time_elapsed":1052676,"internal_node_id":"0.0-37.0","task_version":"0.2"},{"response_times":[768,576,722,441,2350,558,399,321,254,372],"keys_pressed":["rightarrow","leftarrow","leftarrow","rightarrow","rightarrow","rightarrow","rightarrow","rightarrow","rightarrow","rightarrow"],"horizon":10,"forced_choices":["rightarrow","leftarrow","leftarrow","rightarrow"],"right_color":"orange","left_color":"lightblue","left_mu":40,"right_mu":70,"left_numbers":[32,33,49,34,39,55,51,36,30,43],"right_numbers":[53,64,72,62,81,78,75,67,64,64],"points_earned":626,"phase":"task","trial_type":"horizons-task","trial_index":47,"time_elapsed":1060939,"internal_node_id":"0.0-38.0","task_version":"0.2"},{"response_times":[713,562,678,880,1774,562,484,322,254,246],"keys_pressed":["leftarrow","rightarrow","leftarrow","leftarrow","rightarrow","rightarrow","rightarrow","rightarrow","rightarrow","rightarrow"],"horizon":10,"forced_choices":["leftarrow","rightarrow","leftarrow","leftarrow"],"right_color":"lightblue","left_color":"orange","left_mu":40,"right_mu":52,"left_numbers":[32,35,42,32,53,46,27,40,37,43],"right_numbers":[52,46,57,47,34,55,53,45,51,53],"points_earned":443,"phase":"task","trial_type":"horizons-task","trial_index":48,"time_elapsed":1068921,"internal_node_id":"0.0-39.0","task_version":"0.2"},{"response_times":[794,990,575,954,932],"keys_pressed":["rightarrow","rightarrow","leftarrow","rightarrow","leftarrow"],"horizon":5,"forced_choices":["rightarrow","rightarrow","leftarrow","rightarrow"],"right_color":"orange","left_color":"lightblue","left_mu":40,"right_mu":32,"left_numbers":[28,21,44,33,24],"right_numbers":[31,30,24,37,37],"points_earned":166,"phase":"task","trial_type":"horizons-task","trial_index":49,"time_elapsed":1074670,"internal_node_id":"0.0-40.0","task_version":"0.2"},{"response_times":[819.0000000002328,506.99999999976717,887.0000000002328,507.99999999976717,1107.0000000002328],"keys_pressed":["leftarrow","rightarrow","rightarrow","leftarrow","rightarrow"],"horizon":5,"forced_choices":["leftarrow","rightarrow","rightarrow","leftarrow"],"right_color":"orange","left_color":"lightblue","left_mu":40,"right_mu":60,"left_numbers":[39,50,37,33,38],"right_numbers":[55,55,59,72,55],"points_earned":241,"phase":"task","trial_type":"horizons-task","trial_index":50,"time_elapsed":1080000,"internal_node_id":"0.0-41.0","task_version":"0.2"},{"response_times":[845,583,488,883,1989,553,379,378,273,401],"keys_pressed":["rightarrow","rightarrow","leftarrow","rightarrow","leftarrow","leftarrow","leftarrow","leftarrow","leftarrow","leftarrow"],"horizon":10,"forced_choices":["rightarrow","rightarrow","leftarrow","rightarrow"],"right_color":"lightblue","left_color":"orange","left_mu":40,"right_mu":20,"left_numbers":[26,39,33,35,48,33,52,34,37,51],"right_numbers":[14,18,27,16,23,15,11,16,15,32],"points_earned":336,"phase":"task","trial_type":"horizons-task","trial_index":51,"time_elapsed":1088275,"internal_node_id":"0.0-42.0","task_version":"0.2"},{"response_times":[689,583,827,503,460,2662,265,205,229.00000000023283,358.99999999976717],"keys_pressed":["rightarrow","leftarrow","leftarrow","rightarrow","leftarrow","leftarrow","leftarrow","leftarrow","leftarrow","leftarrow"],"horizon":10,"forced_choices":["rightarrow","leftarrow","leftarrow","rightarrow"],"right_color":"lightblue","left_color":"orange","left_mu":60,"right_mu":52,"left_numbers":[62,62,57,68,48,66,74,58,68,53],"right_numbers":[47,55,44,45,43,50,63,59,51,48],"points_earned":578,"phase":"task","trial_type":"horizons-task","trial_index":52,"time_elapsed":1096562,"internal_node_id":"0.0-43.0","task_version":"0.2"},{"response_times":[1035,672,546,807,1625,445.99999999976717,262,148.00000000023283,217.99999999976717,388.00000000023283],"keys_pressed":["leftarrow","rightarrow","rightarrow","leftarrow","rightarrow","rightarrow","rightarrow","rightarrow","rightarrow","rightarrow"],"horizon":10,"forced_choices":["leftarrow","rightarrow","rightarrow","leftarrow"],"right_color":"lightblue","left_color":"orange","left_mu":60,"right_mu":90,"left_numbers":[57,57,61,54,59,64,64,61,74,69],"right_numbers":[90,90,95,90,97,85,90,74,97,95],"points_earned":834,"phase":"task","trial_type":"horizons-task","trial_index":53,"time_elapsed":1104213,"internal_node_id":"0.0-44.0","task_version":"0.2"},{"response_times":[717,654,509,476,3007,1643.0000000002328,371.99999999976717,481,1429,437],"keys_pressed":["rightarrow","leftarrow","rightarrow","leftarrow","leftarrow","leftarrow","rightarrow","rightarrow","rightarrow","rightarrow"],"horizon":10,"forced_choices":["rightarrow","leftarrow","rightarrow","leftarrow"],"right_color":"lightblue","left_color":"orange","left_mu":60,"right_mu":56,"left_numbers":[52,59,70,57,52,57,49,67,63,57],"right_numbers":[54,53,60,56,49,50,56,57,55,48],"points_earned":555,"phase":"task","trial_type":"horizons-task","trial_index":54,"time_elapsed":1115441,"internal_node_id":"0.0-45.0","task_version":"0.2"},{"response_times":[889,716.0000000002328,529,851.9999999997672,1067],"keys_pressed":["leftarrow","leftarrow","rightarrow","leftarrow","leftarrow"],"horizon":5,"forced_choices":["leftarrow","leftarrow","rightarrow","leftarrow"],"right_color":"lightblue","left_color":"orange","left_mu":60,"right_mu":48,"left_numbers":[58,53,65,75,52],"right_numbers":[55,58,46,58,40],"points_earned":284,"phase":"task","trial_type":"horizons-task","trial_index":55,"time_elapsed":1120996,"internal_node_id":"0.0-46.0","task_version":"0.2"},{"view_history":"[{\"page_index\":0,\"viewing_time\":2639},{\"page_index\":1,\"viewing_time\":2733}]","rt":5372,"trial_type":"instructions","trial_index":56,"time_elapsed":1126369,"internal_node_id":"0.0-47.0","task_version":"0.2"},{"response_times":[1094,1077,547,669,1263,663,409,186,202,462],"keys_pressed":["rightarrow","rightarrow","rightarrow","leftarrow","leftarrow","leftarrow","leftarrow","leftarrow","leftarrow","leftarrow"],"horizon":10,"forced_choices":["rightarrow","rightarrow","rightarrow","leftarrow"],"right_color":"lightblue","left_color":"orange","left_mu":40,"right_mu":10,"left_numbers":[52,28,41,36,45,57,31,48,29,22],"right_numbers":[21,14,0,5,0,11,6,22,2,8],"points_earned":303,"phase":"task","trial_type":"horizons-task","trial_index":57,"time_elapsed":1134445,"internal_node_id":"0.0-48.0","task_version":"0.2"},{"response_times":[656,612,524,511.00000000023283,1972.9999999997672],"keys_pressed":["leftarrow","leftarrow","rightarrow","rightarrow","rightarrow"],"horizon":5,"forced_choices":["leftarrow","leftarrow","rightarrow","rightarrow"],"right_color":"lightblue","left_color":"orange","left_mu":40,"right_mu":44,"left_numbers":[39,43,38,37,37],"right_numbers":[35,45,51,40,50],"points_earned":223,"phase":"task","trial_type":"horizons-task","trial_index":58,"time_elapsed":1140223,"internal_node_id":"0.0-49.0","task_version":"0.2"},{"response_times":[972,686,809,1627,1648],"keys_pressed":["leftarrow","rightarrow","leftarrow","rightarrow","leftarrow"],"horizon":5,"forced_choices":["leftarrow","rightarrow","leftarrow","rightarrow"],"right_color":"orange","left_color":"lightblue","left_mu":40,"right_mu":36,"left_numbers":[40,38,49,34,34],"right_numbers":[34,15,34,42,32],"points_earned":180,"phase":"task","trial_type":"horizons-task","trial_index":59,"time_elapsed":1147468,"internal_node_id":"0.0-50.0","task_version":"0.2"},{"response_times":[1119,578,993,625,2060,582,1782,405,243,214],"keys_pressed":["rightarrow","leftarrow","leftarrow","rightarrow","leftarrow","leftarrow","leftarrow","leftarrow","leftarrow","leftarrow"],"horizon":10,"forced_choices":["rightarrow","leftarrow","leftarrow","rightarrow"],"right_color":"orange","left_color":"lightblue","left_mu":60,"right_mu":64,"left_numbers":[60,60,67,50,66,74,61,75,72,59],"right_numbers":[39,50,69,52,44,67,73,67,59,65],"points_earned":625,"phase":"task","trial_type":"horizons-task","trial_index":60,"time_elapsed":1157571,"internal_node_id":"0.0-51.0","task_version":"0.2"},{"response_times":[671,489,618,670,2077,757,345,201,217,438],"keys_pressed":["leftarrow","leftarrow","rightarrow","leftarrow","rightarrow","rightarrow","rightarrow","rightarrow","rightarrow","rightarrow"],"horizon":10,"forced_choices":["leftarrow","leftarrow","rightarrow","leftarrow"],"right_color":"orange","left_color":"lightblue","left_mu":60,"right_mu":80,"left_numbers":[64,63,57,74,51,66,48,66,56,58],"right_numbers":[84,67,79,67,86,65,70,79,77,68],"points_earned":725,"phase":"task","trial_type":"horizons-task","trial_index":61,"time_elapsed":1165557,"internal_node_id":"0.0-52.0","task_version":"0.2"},{"response_times":[781,593.0000000002328,665.9999999997672,532,2704],"keys_pressed":["rightarrow","leftarrow","leftarrow","rightarrow","rightarrow"],"horizon":5,"forced_choices":["rightarrow","leftarrow","leftarrow","rightarrow"],"right_color":"orange","left_color":"lightblue","left_mu":60,"right_mu":64,"left_numbers":[72,61,56,58,70],"right_numbers":[56,68,66,62,68],"points_earned":303,"phase":"task","trial_type":"horizons-task","trial_index":62,"time_elapsed":1172336,"internal_node_id":"0.0-53.0","task_version":"0.2"},{"response_times":[762,658,1117,912,1081],"keys_pressed":["rightarrow","leftarrow","rightarrow","rightarrow","leftarrow"],"horizon":5,"forced_choices":["rightarrow","leftarrow","rightarrow","rightarrow"],"right_color":"orange","left_color":"lightblue","left_mu":60,"right_mu":30,"left_numbers":[60,43,67,64,33],"right_numbers":[28,22,24,39,36],"points_earned":167,"phase":"task","trial_type":"horizons-task","trial_index":63,"time_elapsed":1178373,"internal_node_id":"0.0-54.0","task_version":"0.2"},{"response_times":[857.9999999997672,481,901,1343,1355],"keys_pressed":["leftarrow","rightarrow","leftarrow","rightarrow","leftarrow"],"horizon":5,"forced_choices":["leftarrow","rightarrow","leftarrow","rightarrow"],"right_color":"lightblue","left_color":"orange","left_mu":60,"right_mu":48,"left_numbers":[66,56,71,55,59],"right_numbers":[34,44,52,52,51],"points_earned":292,"phase":"task","trial_type":"horizons-task","trial_index":64,"time_elapsed":1184817,"internal_node_id":"0.0-55.0","task_version":"0.2"},{"response_times":[838,370,410,352.00000000023283,9148.999999999767,646,339.00000000023283,173,204.99999999976717,407],"keys_pressed":["leftarrow","rightarrow","leftarrow","rightarrow","leftarrow","leftarrow","leftarrow","leftarrow","leftarrow","leftarrow"],"horizon":10,"forced_choices":["leftarrow","rightarrow","leftarrow","rightarrow"],"right_color":"orange","left_color":"lightblue","left_mu":40,"right_mu":36,"left_numbers":[28,40,49,48,39,40,48,34,48,42],"right_numbers":[55,20,29,32,45,33,34,27,31,42],"points_earned":380,"phase":"task","trial_type":"horizons-task","trial_index":65,"time_elapsed":1199209,"internal_node_id":"0.0-56.0","task_version":"0.2"},{"response_times":[1002,832,459,1434,618],"keys_pressed":["leftarrow","rightarrow","leftarrow","rightarrow","rightarrow"],"horizon":5,"forced_choices":["leftarrow","rightarrow","leftarrow","rightarrow"],"right_color":"lightblue","left_color":"orange","left_mu":60,"right_mu":72,"left_numbers":[66,53,66,62,71],"right_numbers":[59,68,76,82,63],"points_earned":345,"phase":"task","trial_type":"horizons-task","trial_index":66,"time_elapsed":1205057,"internal_node_id":"0.0-57.0","task_version":"0.2"},{"response_times":[654,602.9999999997672,478,960,1445],"keys_pressed":["leftarrow","leftarrow","leftarrow","rightarrow","leftarrow"],"horizon":5,"forced_choices":["leftarrow","leftarrow","leftarrow","rightarrow"],"right_color":"lightblue","left_color":"orange","left_mu":40,"right_mu":44,"left_numbers":[48,34,42,36,47],"right_numbers":[35,34,51,37,31],"points_earned":208,"phase":"task","trial_type":"horizons-task","trial_index":67,"time_elapsed":1210699,"internal_node_id":"0.0-58.0","task_version":"0.2"},{"response_times":[1062,888,414,954.0000000002328,1843.9999999997672,432,187,172.00000000023283,195.99999999976717,388],"keys_pressed":["rightarrow","rightarrow","leftarrow","leftarrow","leftarrow","leftarrow","leftarrow","leftarrow","leftarrow","leftarrow"],"horizon":10,"forced_choices":["rightarrow","rightarrow","leftarrow","leftarrow"],"right_color":"orange","left_color":"lightblue","left_mu":60,"right_mu":40,"left_numbers":[62,68,59,69,64,66,59,65,67,55],"right_numbers":[32,33,38,39,29,54,33,37,40,48],"points_earned":569,"phase":"task","trial_type":"horizons-task","trial_index":68,"time_elapsed":1218739,"internal_node_id":"0.0-59.0","task_version":"0.2"},{"response_times":[819.9999999997672,515,881,897,1379],"keys_pressed":["rightarrow","leftarrow","leftarrow","leftarrow","rightarrow"],"horizon":5,"forced_choices":["rightarrow","leftarrow","leftarrow","leftarrow"],"right_color":"lightblue","left_color":"orange","left_mu":40,"right_mu":48,"left_numbers":[42,52,31,41,41],"right_numbers":[52,48,39,53,56],"points_earned":232,"phase":"task","trial_type":"horizons-task","trial_index":69,"time_elapsed":1224738,"internal_node_id":"0.0-60.0","task_version":"0.2"},{"response_times":[900,912,760,2705,1643,628,333,339,330.00000000023283,266.99999999976717],"keys_pressed":["rightarrow","rightarrow","rightarrow","leftarrow","rightarrow","rightarrow","rightarrow","rightarrow","rightarrow","rightarrow"],"horizon":10,"forced_choices":["rightarrow","rightarrow","rightarrow","leftarrow"],"right_color":"lightblue","left_color":"orange","left_mu":60,"right_mu":72,"left_numbers":[57,56,53,68,59,59,54,65,47,58],"right_numbers":[76,76,66,82,76,59,69,95,72,62],"points_earned":719,"phase":"task","trial_type":"horizons-task","trial_index":70,"time_elapsed":1235057,"internal_node_id":"0.0-61.0","task_version":"0.2"},{"response_times":[856,588,581,401,2139,474,381,510,650,344],"keys_pressed":["rightarrow","rightarrow","leftarrow","leftarrow","leftarrow","leftarrow","leftarrow","rightarrow","rightarrow","rightarrow"],"horizon":10,"forced_choices":["rightarrow","rightarrow","leftarrow","leftarrow"],"right_color":"lightblue","left_color":"orange","left_mu":40,"right_mu":52,"left_numbers":[49,39,47,52,37,36,55,35,37,22],"right_numbers":[41,45,54,55,47,51,68,56,46,38],"points_earned":453,"phase":"task","trial_type":"horizons-task","trial_index":71,"time_elapsed":1243484,"internal_node_id":"0.0-62.0","task_version":"0.2"},{"response_times":[580,476,618,881,2035],"keys_pressed":["rightarrow","leftarrow","rightarrow","rightarrow","leftarrow"],"horizon":5,"forced_choices":["rightarrow","leftarrow","rightarrow","rightarrow"],"right_color":"lightblue","left_color":"orange","left_mu":60,"right_mu":52,"left_numbers":[69,65,71,58,54],"right_numbers":[56,52,57,48,53],"points_earned":280,"phase":"task","trial_type":"horizons-task","trial_index":72,"time_elapsed":1249577,"internal_node_id":"0.0-63.0","task_version":"0.2"},{"response_times":[669,694,1250,803,1714,1952,472,279,186,371],"keys_pressed":["rightarrow","leftarrow","rightarrow","rightarrow","leftarrow","leftarrow","leftarrow","leftarrow","leftarrow","leftarrow"],"horizon":10,"forced_choices":["rightarrow","leftarrow","rightarrow","rightarrow"],"right_color":"lightblue","left_color":"orange","left_mu":60,"right_mu":52,"left_numbers":[69,43,69,78,57,59,68,49,54,62],"right_numbers":[43,47,53,36,45,50,61,65,53,56],"points_earned":524,"phase":"task","trial_type":"horizons-task","trial_index":73,"time_elapsed":1259470,"internal_node_id":"0.0-64.0","task_version":"0.2"},{"response_times":[632,548,468,837,1496,521,303,180,202,363],"keys_pressed":["rightarrow","leftarrow","rightarrow","rightarrow","leftarrow","leftarrow","leftarrow","leftarrow","leftarrow","leftarrow"],"horizon":10,"forced_choices":["rightarrow","leftarrow","rightarrow","rightarrow"],"right_color":"orange","left_color":"lightblue","left_mu":60,"right_mu":30,"left_numbers":[61,34,62,70,58,55,55,52,56,53],"right_numbers":[22,28,28,22,29,32,33,23,35,19],"points_earned":435,"phase":"task","trial_type":"horizons-task","trial_index":74,"time_elapsed":1266524,"internal_node_id":"0.0-65.0","task_version":"0.2"},{"response_times":[707,1515.0000000002328,783.9999999997672,986,1457,1005,480.00000000023283,293.99999999976717,185,236],"keys_pressed":["rightarrow","leftarrow","leftarrow","leftarrow","rightarrow","leftarrow","leftarrow","leftarrow","leftarrow","leftarrow"],"horizon":10,"forced_choices":["rightarrow","leftarrow","leftarrow","leftarrow"],"right_color":"lightblue","left_color":"orange","left_mu":40,"right_mu":48,"left_numbers":[40,42,37,49,30,55,45,48,43,53],"right_numbers":[62,47,46,49,33,58,53,36,39,45],"points_earned":467,"phase":"task","trial_type":"horizons-task","trial_index":75,"time_elapsed":1275678,"internal_node_id":"0.0-66.0","task_version":"0.2"},{"response_times":[681,673,846,1077,1263.0000000002328,1453.9999999997672,304,155,197,177],"keys_pressed":["leftarrow","rightarrow","leftarrow","rightarrow","leftarrow","rightarrow","rightarrow","rightarrow","rightarrow","rightarrow"],"horizon":10,"forced_choices":["leftarrow","rightarrow","leftarrow","rightarrow"],"right_color":"lightblue","left_color":"orange","left_mu":60,"right_mu":72,"left_numbers":[62,52,59,59,67,54,63,54,68,62],"right_numbers":[76,78,78,72,65,66,77,77,65,66],"points_earned":689,"phase":"task","trial_type":"horizons-task","trial_index":76,"time_elapsed":1284009,"internal_node_id":"0.0-67.0","task_version":"0.2"},{"response_times":[700,570,588,500,1451],"keys_pressed":["rightarrow","leftarrow","leftarrow","leftarrow","leftarrow"],"horizon":5,"forced_choices":["rightarrow","leftarrow","leftarrow","leftarrow"],"right_color":"orange","left_color":"lightblue","left_mu":40,"right_mu":36,"left_numbers":[40,56,37,44,59],"right_numbers":[39,26,27,48,39],"points_earned":235,"phase":"task","trial_type":"horizons-task","trial_index":77,"time_elapsed":1289325,"internal_node_id":"0.0-68.0","task_version":"0.2"},{"response_times":[590,477,876.0000000002328,560.9999999997672,1300],"keys_pressed":["leftarrow","rightarrow","rightarrow","leftarrow","leftarrow"],"horizon":5,"forced_choices":["leftarrow","rightarrow","rightarrow","leftarrow"],"right_color":"orange","left_color":"lightblue","left_mu":40,"right_mu":32,"left_numbers":[48,24,23,49,28],"right_numbers":[39,30,27,21,17],"points_earned":182,"phase":"task","trial_type":"horizons-task","trial_index":78,"time_elapsed":1294631,"internal_node_id":"0.0-69.0","task_version":"0.2"},{"response_times":[6138,608,464.00000000023283,518.9999999997672,2167,875,403,360,414,482],"keys_pressed":["leftarrow","leftarrow","rightarrow","rightarrow","rightarrow","rightarrow","rightarrow","rightarrow","rightarrow","rightarrow"],"horizon":10,"forced_choices":["leftarrow","leftarrow","rightarrow","rightarrow"],"right_color":"lightblue","left_color":"orange","left_mu":40,"right_mu":44,"left_numbers":[38,25,41,45,45,35,33,35,27,45],"right_numbers":[45,47,37,37,42,52,38,44,37,56],"points_earned":406,"phase":"task","trial_type":"horizons-task","trial_index":79,"time_elapsed":1308568,"internal_node_id":"0.0-70.0","task_version":"0.2"},{"response_times":[622.0000000002328,427.99999999976717,1030,660,3736,609,559,563,341,267.00000000023283],"keys_pressed":["leftarrow","rightarrow","rightarrow","leftarrow","leftarrow","leftarrow","leftarrow","leftarrow","leftarrow","leftarrow"],"horizon":10,"forced_choices":["leftarrow","rightarrow","rightarrow","leftarrow"],"right_color":"orange","left_color":"lightblue","left_mu":40,"right_mu":32,"left_numbers":[44,49,36,37,26,37,39,36,40,44],"right_numbers":[36,35,35,28,41,38,33,35,39,37],"points_earned":373,"phase":"task","trial_type":"horizons-task","trial_index":80,"time_elapsed":1318886,"internal_node_id":"0.0-71.0","task_version":"0.2"},{"response_times":[685,483,4672,740,403],"keys_pressed":["leftarrow","rightarrow","leftarrow","leftarrow","rightarrow"],"horizon":5,"forced_choices":["leftarrow","rightarrow","leftarrow","leftarrow"],"right_color":"lightblue","left_color":"orange","left_mu":60,"right_mu":90,"left_numbers":[41,58,53,54,60],"right_numbers":[81,91,101,103,87],"points_earned":326,"phase":"task","trial_type":"horizons-task","trial_index":81,"time_elapsed":1327373,"internal_node_id":"0.0-72.0","task_version":"0.2"},{"response_times":[1016.9999999997672,640,465,465.00000000023283,2474.999999999767,813.0000000002328,904,1206.9999999997672,727,626],"keys_pressed":["leftarrow","leftarrow","leftarrow","rightarrow","rightarrow","leftarrow","rightarrow","leftarrow","rightarrow","leftarrow"],"horizon":10,"forced_choices":["leftarrow","leftarrow","leftarrow","rightarrow"],"right_color":"lightblue","left_color":"orange","left_mu":40,"right_mu":44,"left_numbers":[51,43,42,50,43,37,42,40,47,50],"right_numbers":[38,46,47,57,37,22,40,45,32,52],"points_earned":429,"phase":"task","trial_type":"horizons-task","trial_index":82,"time_elapsed":1338216,"internal_node_id":"0.0-73.0","task_version":"0.2"},{"response_times":[728,567,772,987,2960.000000000233,559.9999999997672,329,156,173,383],"keys_pressed":["rightarrow","leftarrow","leftarrow","rightarrow","leftarrow","leftarrow","leftarrow","leftarrow","leftarrow","leftarrow"],"horizon":10,"forced_choices":["rightarrow","leftarrow","leftarrow","rightarrow"],"right_color":"orange","left_color":"lightblue","left_mu":40,"right_mu":28,"left_numbers":[39,37,23,37,38,45,46,27,50,40],"right_numbers":[27,34,27,30,19,20,30,22,29,21],"points_earned":363,"phase":"task","trial_type":"horizons-task","trial_index":83,"time_elapsed":1347333,"internal_node_id":"0.0-74.0","task_version":"0.2"},{"response_times":[603,682,1294.0000000002328,538,1303.9999999997672],"keys_pressed":["rightarrow","leftarrow","rightarrow","leftarrow","leftarrow"],"horizon":5,"forced_choices":["rightarrow","leftarrow","rightarrow","leftarrow"],"right_color":"orange","left_color":"lightblue","left_mu":60,"right_mu":30,"left_numbers":[58,45,63,64,55],"right_numbers":[27,37,22,24,37],"points_earned":213,"phase":"task","trial_type":"horizons-task","trial_index":84,"time_elapsed":1353258,"internal_node_id":"0.0-75.0","task_version":"0.2"},{"response_times":[692.9999999997672,432.00000000023283,923.9999999997672,788,980],"keys_pressed":["leftarrow","rightarrow","rightarrow","leftarrow","rightarrow"],"horizon":5,"forced_choices":["leftarrow","rightarrow","rightarrow","leftarrow"],"right_color":"lightblue","left_color":"orange","left_mu":60,"right_mu":90,"left_numbers":[67,51,57,66,52],"right_numbers":[86,74,82,91,103],"points_earned":392,"phase":"task","trial_type":"horizons-task","trial_index":85,"time_elapsed":1358580,"internal_node_id":"0.0-76.0","task_version":"0.2"},{"response_times":[831,433,695,478,1494],"keys_pressed":["leftarrow","rightarrow","leftarrow","rightarrow","rightarrow"],"horizon":5,"forced_choices":["leftarrow","rightarrow","leftarrow","rightarrow"],"right_color":"orange","left_color":"lightblue","left_mu":60,"right_mu":80,"left_numbers":[56,62,72,70,59],"right_numbers":[95,66,72,75,82],"points_earned":351,"phase":"task","trial_type":"horizons-task","trial_index":86,"time_elapsed":1364017,"internal_node_id":"0.0-77.0","task_version":"0.2"},{"response_times":[629.9999999997672,887,707,1035.0000000002328,1247.9999999997672],"keys_pressed":["rightarrow","rightarrow","leftarrow","leftarrow","rightarrow"],"horizon":5,"forced_choices":["rightarrow","rightarrow","leftarrow","leftarrow"],"right_color":"lightblue","left_color":"orange","left_mu":40,"right_mu":52,"left_numbers":[23,40,30,45,50],"right_numbers":[55,55,62,53,42],"points_earned":227,"phase":"task","trial_type":"horizons-task","trial_index":87,"time_elapsed":1370029,"internal_node_id":"0.0-78.0","task_version":"0.2"},{"response_times":[642,568.0000000002328,529,590.9999999997672,872,716,475.00000000023283,214.99999999976717,199.00000000023283,197.99999999976717],"keys_pressed":["leftarrow","rightarrow","leftarrow","rightarrow","rightarrow","rightarrow","rightarrow","rightarrow","rightarrow","rightarrow"],"horizon":10,"forced_choices":["leftarrow","rightarrow","leftarrow","rightarrow"],"right_color":"orange","left_color":"lightblue","left_mu":60,"right_mu":80,"left_numbers":[53,54,54,64,59,73,56,64,47,69],"right_numbers":[70,73,82,80,92,87,71,83,82,82],"points_earned":757,"phase":"task","trial_type":"horizons-task","trial_index":88,"time_elapsed":1376537,"internal_node_id":"0.0-79.0","task_version":"0.2"},{"response_times":[1056,828,483,510,1565,362,191,200,153,146],"keys_pressed":["leftarrow","leftarrow","rightarrow","leftarrow","leftarrow","leftarrow","leftarrow","leftarrow","leftarrow","leftarrow"],"horizon":10,"forced_choices":["leftarrow","leftarrow","rightarrow","leftarrow"],"right_color":"lightblue","left_color":"orange","left_mu":60,"right_mu":48,"left_numbers":[61,67,62,63,60,61,68,61,58,74],"right_numbers":[46,56,46,37,42,55,49,48,57,51],"points_earned":619,"phase":"task","trial_type":"horizons-task","trial_index":89,"time_elapsed":1383534,"internal_node_id":"0.0-80.0","task_version":"0.2"},{"response_times":[802.0000000002328,866.9999999997672,1175,611.0000000002328,510],"keys_pressed":["rightarrow","rightarrow","rightarrow","leftarrow","rightarrow"],"horizon":5,"forced_choices":["rightarrow","rightarrow","rightarrow","leftarrow"],"right_color":"lightblue","left_color":"orange","left_mu":60,"right_mu":72,"left_numbers":[53,73,74,56,76],"right_numbers":[74,66,78,68,69],"points_earned":343,"phase":"task","trial_type":"horizons-task","trial_index":90,"time_elapsed":1389002,"internal_node_id":"0.0-81.0","task_version":"0.2"},{"response_times":[858,649.0000000002328,667.9999999997672,1401,537.0000000002328],"keys_pressed":["leftarrow","rightarrow","rightarrow","rightarrow","rightarrow"],"horizon":5,"forced_choices":["leftarrow","rightarrow","rightarrow","rightarrow"],"right_color":"orange","left_color":"lightblue","left_mu":40,"right_mu":60,"left_numbers":[35,34,58,45,27],"right_numbers":[49,60,38,68,66],"points_earned":267,"phase":"task","trial_type":"horizons-task","trial_index":91,"time_elapsed":1394618,"internal_node_id":"0.0-82.0","task_version":"0.2"},{"response_times":[643,738,1041,789,749,388,179,182.00000000023283,144,169.99999999976717],"keys_pressed":["rightarrow","rightarrow","leftarrow","leftarrow","rightarrow","rightarrow","rightarrow","rightarrow","rightarrow","rightarrow"],"horizon":10,"forced_choices":["rightarrow","rightarrow","leftarrow","leftarrow"],"right_color":"orange","left_color":"lightblue","left_mu":60,"right_mu":68,"left_numbers":[60,67,69,46,65,52,68,52,53,71],"right_numbers":[75,75,76,69,68,69,77,67,77,61],"points_earned":684,"phase":"task","trial_type":"horizons-task","trial_index":92,"time_elapsed":1401143,"internal_node_id":"0.0-83.0","task_version":"0.2"},{"response_times":[737.9999999997672,648,787.0000000002328,459.99999999976717,653],"keys_pressed":["rightarrow","rightarrow","rightarrow","leftarrow","leftarrow"],"horizon":5,"forced_choices":["rightarrow","rightarrow","rightarrow","leftarrow"],"right_color":"lightblue","left_color":"orange","left_mu":40,"right_mu":10,"left_numbers":[36,56,34,44,42],"right_numbers":[10,5,15,4,7],"points_earned":116,"phase":"task","trial_type":"horizons-task","trial_index":93,"time_elapsed":1405932,"internal_node_id":"0.0-84.0","task_version":"0.2"},{"response_times":[665.9999999997672,561,924,536,1402,614,926,354,170,171],"keys_pressed":["leftarrow","rightarrow","rightarrow","rightarrow","leftarrow","leftarrow","leftarrow","leftarrow","leftarrow","leftarrow"],"horizon":10,"forced_choices":["leftarrow","rightarrow","rightarrow","rightarrow"],"right_color":"orange","left_color":"lightblue","left_mu":40,"right_mu":28,"left_numbers":[35,37,49,34,38,45,37,31,40,52],"right_numbers":[21,36,32,30,26,21,36,24,29,27],"points_earned":376,"phase":"task","trial_type":"horizons-task","trial_index":94,"time_elapsed":1413758,"internal_node_id":"0.0-85.0","task_version":"0.2"},{"response_times":[688,473,495,1675,997.0000000002328],"keys_pressed":["rightarrow","leftarrow","rightarrow","leftarrow","leftarrow"],"horizon":5,"forced_choices":["rightarrow","leftarrow","rightarrow","leftarrow"],"right_color":"lightblue","left_color":"orange","left_mu":60,"right_mu":56,"left_numbers":[72,63,50,63,65],"right_numbers":[59,48,57,53,46],"points_earned":307,"phase":"task","trial_type":"horizons-task","trial_index":95,"time_elapsed":1419590,"internal_node_id":"0.0-86.0","task_version":"0.2"},{"response_times":[630.0000000002328,564.9999999997672,1679,793,497,558,233,185.00000000023283,176.99999999976717,385],"keys_pressed":["leftarrow","rightarrow","leftarrow","leftarrow","rightarrow","rightarrow","rightarrow","rightarrow","rightarrow","rightarrow"],"horizon":10,"forced_choices":["leftarrow","rightarrow","leftarrow","leftarrow"],"right_color":"lightblue","left_color":"orange","left_mu":60,"right_mu":90,"left_numbers":[52,60,62,62,52,57,60,67,64,56],"right_numbers":[94,96,95,81,95,76,89,96,88,83],"points_earned":799,"phase":"task","trial_type":"horizons-task","trial_index":96,"time_elapsed":1426796,"internal_node_id":"0.0-87.0","task_version":"0.2"},{"rt":21262,"responses":{"age":"19","gender-categorical":"Female","gender-free-response":"","ethnicity":"Not Hispanic or Latino","race":["White"],"language":"Yes","fluency":"Well"},"survey":"demographics","trial_type":"survey-demo","trial_index":97,"time_elapsed":1448061,"internal_node_id":"0.0-88.0","task_version":"0.2"},{"rt":41974,"responses":{"difficulty":"3","fun":"5","clarity":"5","strategy":"picked the side with the highest numbers on average","feedback":""},"survey":"debrief","trial_type":"survey-debrief","trial_index":98,"time_elapsed":1490037,"internal_node_id":"0.0-89.0","task_version":"0.2","interactions":"[]"}]