[{"view_history":"[{\"page_index\":0,\"viewing_time\":5224}]","rt":5225,"trial_type":"instructions","trial_index":0,"time_elapsed":5230,"internal_node_id":"0.0-0.0","task_version":"0.2"},{"item_order":[9,14,6,2,12,11,13,15,4,5,8,10,7,3,0,1],"responses":{"Q10":"2","Q15":"3","Q07":"2","Q03":"3","Q13":"4","Q12":"4","Q14":"1","Q16":"5","Q05":"3","Q06":"4","Q09":"2","Q11":"3","Q08":"4","Q04":"3","Q01":"3","Q02":"2"},"radio_events":[7041,13355,14079,24887,29021,35717,39425,44302,49921,53783,55838,81205,84938,89348,94697,97059,100721],"key_events":[],"mouse_events":[0,6163,6575,7041,10075,13005,13355,14079,24887,28499,29021,35272,35717,39029,39425,43273,43988,44302,49921,53783,55471,55838,81205,84938,88951,89348,94697,97059,100276,100721,103729],"rt":103729,"survey":"nfc","trial_type":"survey-template","trial_index":1,"time_elapsed":108962,"internal_node_id":"0.0-1.0","task_version":"0.2"},{"item_order":[3,2,11,0,5,4,6,12,10,9,1,8,7],"responses":{"Q04":"3","Q03":"1","Q12":"1","Q01":"1","Q06":"1","Q05":"2","Q07":"1","Q13":"2","Q11":"3","Q10":"1","Q02":"2","Q09":"1","Q08":"2"},"radio_events":[5218,9588,12207,15514,20495,24800,29715,38940,43768,46136,49620,51937,55152,56062,59537],"key_events":[],"mouse_events":[4810,5218,9588,12207,15514,20495,24800,29715,38940,43352,43768,46136,49620,51937,53560,55152,56062,59219,59537,60216],"rt":60216,"survey":"ius12","trial_type":"survey-template","trial_index":2,"time_elapsed":169180,"internal_node_id":"0.0-2.0","task_version":"0.2"},{"item_order":[11,2,8,3,4,0,15,10,1,13,9,12,5,14,6,7,16],"responses":{"Q12":"2","Q03":"3","Q09":"1","Q04":"1","Q05":"2","Q01":"2","Q16":"3","Q11":"2","Q02":"1","Q14":"1","Q10":"3","Q13":"2","Q06":"2","Q15":"1","Q07":"1","Q08":"3","Q17":"0"},"radio_events":[6901,9618,14613,16507,20592,26231,29200,57395,59471,61848,65300,68091,69399,71059,73457,76196,79044],"key_events":[],"mouse_events":[6901,8563,9618,14613,16507,20246,20592,24645,25004,26231,28471,28782,29200,57395,59119,59471,61848,64483,65300,68091,69399,71059,73457,76196,79044,82287],"rt":82287,"survey":"pswq","trial_type":"survey-template","trial_index":3,"time_elapsed":251469,"internal_node_id":"0.0-3.0","task_version":"0.2"},{"view_history":"[{\"page_index\":0,\"viewing_time\":3088},{\"page_index\":1,\"viewing_time\":7120},{\"page_index\":2,\"viewing_time\":7714},{\"page_index\":3,\"viewing_time\":5607},{\"page_index\":4,\"viewing_time\":7113},{\"page_index\":5,\"viewing_time\":3512},{\"page_index\":6,\"viewing_time\":6030},{\"page_index\":7,\"viewing_time\":9748},{\"page_index\":8,\"viewing_time\":5411},{\"page_index\":9,\"viewing_time\":22863}]","rt":78206,"trial_type":"instructions","trial_index":4,"time_elapsed":329674,"internal_node_id":"0.0-4.0-0.0","task_version":"0.2"},{"response_times":[1262,833,613,735,4423],"keys_pressed":["rightarrow","leftarrow","rightarrow","rightarrow","leftarrow"],"horizon":5,"forced_choices":["rightarrow","leftarrow","rightarrow","rightarrow"],"right_color":"lightblue","left_color":"orange","left_mu":40,"right_mu":20,"left_numbers":[36,32,28,40,44],"right_numbers":[23,17,28,9,26],"points_earned":136,"phase":"practice","trial_type":"horizons-task","trial_index":5,"time_elapsed":339049,"internal_node_id":"0.0-4.0-1.0","task_version":"0.2"},{"response_times":[907,431,514,500,2472,3061,1251,1232,603,1063],"keys_pressed":["leftarrow","leftarrow","rightarrow","rightarrow","rightarrow","rightarrow","rightarrow","rightarrow","rightarrow","rightarrow"],"horizon":10,"forced_choices":["leftarrow","leftarrow","rightarrow","rightarrow"],"right_color":"orange","left_color":"lightblue","left_mu":60,"right_mu":70,"left_numbers":[47,61,65,51,55,57,74,48,84,58],"right_numbers":[78,68,66,73,64,62,75,71,63,73],"points_earned":655,"phase":"practice","trial_type":"horizons-task","trial_index":6,"time_elapsed":352587,"internal_node_id":"0.0-4.0-2.0","task_version":"0.2"},{"view_history":"[{\"page_index\":0,\"viewing_time\":2087},{\"page_index\":1,\"viewing_time\":2836},{\"page_index\":2,\"viewing_time\":4451},{\"page_index\":3,\"viewing_time\":2810}]","rt":12185,"trial_type":"instructions","trial_index":7,"time_elapsed":364772,"internal_node_id":"0.0-4.0-3.0","task_version":"0.2"},{"responses":["true","false","true"],"num_errors":0,"rt":7786,"trial_type":"horizons-comprehension","trial_index":8,"time_elapsed":372560,"internal_node_id":"0.0-4.0-4.0","task_version":"0.2"},{"trial_type":"call-function","trial_index":9,"time_elapsed":372561,"internal_node_id":"0.0-5.0","task_version":"0.2"},{"view_history":"[{\"page_index\":0,\"viewing_time\":1406},{\"page_index\":1,\"viewing_time\":4503}]","rt":5909,"trial_type":"instructions","trial_index":10,"time_elapsed":378469,"internal_node_id":"0.0-6.0","task_version":"0.2"},{"response_times":[1325,580,420,425,2108],"keys_pressed":["leftarrow","leftarrow","rightarrow","rightarrow","rightarrow"],"horizon":5,"forced_choices":["leftarrow","leftarrow","rightarrow","rightarrow"],"right_color":"orange","left_color":"lightblue","left_mu":40,"right_mu":52,"left_numbers":[39,41,31,34,33],"right_numbers":[58,65,51,44,56],"points_earned":231,"phase":"task","trial_type":"horizons-task","trial_index":11,"time_elapsed":384836,"internal_node_id":"0.0-7.0","task_version":"0.2"},{"response_times":[599,372,490,503,3582,2404,4217,1224,2947,857],"keys_pressed":["leftarrow","rightarrow","leftarrow","leftarrow","leftarrow","leftarrow","leftarrow","leftarrow","leftarrow","leftarrow"],"horizon":10,"forced_choices":["leftarrow","rightarrow","leftarrow","leftarrow"],"right_color":"orange","left_color":"lightblue","left_mu":40,"right_mu":52,"left_numbers":[46,50,48,41,40,37,38,31,36,36],"right_numbers":[37,39,54,52,48,58,61,46,50,47],"points_earned":392,"phase":"task","trial_type":"horizons-task","trial_index":12,"time_elapsed":403538,"internal_node_id":"0.0-8.0","task_version":"0.2"},{"response_times":[716,402,923,603,2162],"keys_pressed":["leftarrow","rightarrow","rightarrow","rightarrow","rightarrow"],"horizon":5,"forced_choices":["leftarrow","rightarrow","rightarrow","rightarrow"],"right_color":"lightblue","left_color":"orange","left_mu":40,"right_mu":60,"left_numbers":[40,32,42,27,47],"right_numbers":[61,45,59,63,55],"points_earned":262,"phase":"task","trial_type":"horizons-task","trial_index":13,"time_elapsed":409847,"internal_node_id":"0.0-9.0","task_version":"0.2"},{"response_times":[566,462,412,396,3729,1005,1516,3548,1721,683],"keys_pressed":["rightarrow","rightarrow","leftarrow","rightarrow","leftarrow","leftarrow","leftarrow","leftarrow","leftarrow","leftarrow"],"horizon":10,"forced_choices":["rightarrow","rightarrow","leftarrow","rightarrow"],"right_color":"lightblue","left_color":"orange","left_mu":40,"right_mu":32,"left_numbers":[44,29,31,46,49,25,24,55,32,41],"right_numbers":[27,21,32,32,37,23,26,18,27,33],"points_earned":337,"phase":"task","trial_type":"horizons-task","trial_index":14,"time_elapsed":425388,"internal_node_id":"0.0-10.0","task_version":"0.2"},{"response_times":[540,385,341,396,1481,750,546,570,601,510],"keys_pressed":["leftarrow","rightarrow","leftarrow","rightarrow","leftarrow","leftarrow","leftarrow","leftarrow","leftarrow","leftarrow"],"horizon":10,"forced_choices":["leftarrow","rightarrow","leftarrow","rightarrow"],"right_color":"lightblue","left_color":"orange","left_mu":40,"right_mu":20,"left_numbers":[46,27,33,40,41,50,51,47,41,55],"right_numbers":[30,25,28,17,21,41,16,21,13,18],"points_earned":406,"phase":"task","trial_type":"horizons-task","trial_index":15,"time_elapsed":433012,"internal_node_id":"0.0-11.0","task_version":"0.2"},{"response_times":[502,350,412,375,3848,681,823,1069,617,545],"keys_pressed":["rightarrow","leftarrow","leftarrow","rightarrow","leftarrow","leftarrow","leftarrow","leftarrow","leftarrow","leftarrow"],"horizon":10,"forced_choices":["rightarrow","leftarrow","leftarrow","rightarrow"],"right_color":"orange","left_color":"lightblue","left_mu":40,"right_mu":28,"left_numbers":[33,34,36,44,37,63,36,45,39,43],"right_numbers":[31,32,23,34,45,27,25,28,29,37],"points_earned":398,"phase":"task","trial_type":"horizons-task","trial_index":16,"time_elapsed":443741,"internal_node_id":"0.0-12.0","task_version":"0.2"},{"response_times":[428,398,457,417,4208],"keys_pressed":["rightarrow","rightarrow","rightarrow","leftarrow","rightarrow"],"horizon":5,"forced_choices":["rightarrow","rightarrow","rightarrow","leftarrow"],"right_color":"orange","left_color":"lightblue","left_mu":60,"right_mu":56,"left_numbers":[36,74,55,64,47],"right_numbers":[59,58,59,54,53],"points_earned":293,"phase":"task","trial_type":"horizons-task","trial_index":17,"time_elapsed":451156,"internal_node_id":"0.0-13.0","task_version":"0.2"},{"response_times":[464,393,467,423,1949,733,1123,1309,723,456],"keys_pressed":["leftarrow","leftarrow","leftarrow","rightarrow","leftarrow","leftarrow","leftarrow","leftarrow","leftarrow","leftarrow"],"horizon":10,"forced_choices":["leftarrow","leftarrow","leftarrow","rightarrow"],"right_color":"lightblue","left_color":"orange","left_mu":40,"right_mu":20,"left_numbers":[41,35,31,37,41,43,54,33,46,44],"right_numbers":[29,17,20,25,28,22,22,24,12,21],"points_earned":393,"phase":"task","trial_type":"horizons-task","trial_index":18,"time_elapsed":460703,"internal_node_id":"0.0-14.0","task_version":"0.2"},{"response_times":[479,402,316,676,1272],"keys_pressed":["leftarrow","rightarrow","leftarrow","rightarrow","leftarrow"],"horizon":5,"forced_choices":["leftarrow","rightarrow","leftarrow","rightarrow"],"right_color":"lightblue","left_color":"orange","left_mu":40,"right_mu":20,"left_numbers":[32,20,47,23,30],"right_numbers":[11,25,22,15,23],"points_earned":149,"phase":"task","trial_type":"horizons-task","trial_index":19,"time_elapsed":465354,"internal_node_id":"0.0-15.0","task_version":"0.2"},{"response_times":[454,340,357,364,2189,1806,588,585,483,469],"keys_pressed":["rightarrow","leftarrow","rightarrow","leftarrow","leftarrow","leftarrow","leftarrow","leftarrow","leftarrow","leftarrow"],"horizon":10,"forced_choices":["rightarrow","leftarrow","rightarrow","leftarrow"],"right_color":"orange","left_color":"lightblue","left_mu":60,"right_mu":52,"left_numbers":[55,70,64,51,56,54,73,59,55,57],"right_numbers":[45,41,56,48,55,39,66,54,42,57],"points_earned":576,"phase":"task","trial_type":"horizons-task","trial_index":20,"time_elapsed":474495,"internal_node_id":"0.0-16.0","task_version":"0.2"},{"response_times":[477,334,563,337,2137],"keys_pressed":["leftarrow","rightarrow","rightarrow","leftarrow","rightarrow"],"horizon":5,"forced_choices":["leftarrow","rightarrow","rightarrow","leftarrow"],"right_color":"lightblue","left_color":"orange","left_mu":60,"right_mu":68,"left_numbers":[57,70,51,41,57],"right_numbers":[67,50,69,60,57],"points_earned":274,"phase":"task","trial_type":"horizons-task","trial_index":21,"time_elapsed":479849,"internal_node_id":"0.0-17.0","task_version":"0.2"},{"response_times":[444,300,418,377,1590,668,412,337,363,322],"keys_pressed":["leftarrow","rightarrow","rightarrow","rightarrow","leftarrow","leftarrow","leftarrow","leftarrow","leftarrow","leftarrow"],"horizon":10,"forced_choices":["leftarrow","rightarrow","rightarrow","rightarrow"],"right_color":"lightblue","left_color":"orange","left_mu":60,"right_mu":30,"left_numbers":[71,71,67,57,76,77,53,51,47,71],"right_numbers":[35,36,44,42,40,21,28,27,28,28],"points_earned":568,"phase":"task","trial_type":"horizons-task","trial_index":22,"time_elapsed":486589,"internal_node_id":"0.0-18.0","task_version":"0.2"},{"response_times":[567,320,451,601,2325],"keys_pressed":["leftarrow","rightarrow","rightarrow","rightarrow","leftarrow"],"horizon":5,"forced_choices":["leftarrow","rightarrow","rightarrow","rightarrow"],"right_color":"lightblue","left_color":"orange","left_mu":60,"right_mu":30,"left_numbers":[69,71,46,62,68],"right_numbers":[25,39,18,30,41],"points_earned":224,"phase":"task","trial_type":"horizons-task","trial_index":23,"time_elapsed":492359,"internal_node_id":"0.0-19.0","task_version":"0.2"},{"response_times":[408,350,374,577,1662,614,434,277,303,342],"keys_pressed":["rightarrow","rightarrow","leftarrow","leftarrow","leftarrow","leftarrow","leftarrow","leftarrow","leftarrow","leftarrow"],"horizon":10,"forced_choices":["rightarrow","rightarrow","leftarrow","leftarrow"],"right_color":"lightblue","left_color":"orange","left_mu":60,"right_mu":30,"left_numbers":[54,53,51,62,55,72,57,56,50,69],"right_numbers":[35,27,19,28,29,38,31,26,32,7],"points_earned":534,"phase":"task","trial_type":"horizons-task","trial_index":24,"time_elapsed":499202,"internal_node_id":"0.0-20.0","task_version":"0.2"},{"response_times":[467,346,404,667,2953,1020,794,726,483,793],"keys_pressed":["leftarrow","rightarrow","rightarrow","rightarrow","rightarrow","rightarrow","rightarrow","rightarrow","rightarrow","rightarrow"],"horizon":10,"forced_choices":["leftarrow","rightarrow","rightarrow","rightarrow"],"right_color":"lightblue","left_color":"orange","left_mu":40,"right_mu":60,"left_numbers":[56,35,32,44,45,40,34,44,24,43],"right_numbers":[65,60,74,66,51,47,56,64,48,64],"points_earned":586,"phase":"task","trial_type":"horizons-task","trial_index":25,"time_elapsed":509361,"internal_node_id":"0.0-21.0","task_version":"0.2"},{"response_times":[415,348,610,605,3150,553,427,265,298,325],"keys_pressed":["rightarrow","leftarrow","leftarrow","rightarrow","rightarrow","rightarrow","rightarrow","rightarrow","rightarrow","rightarrow"],"horizon":10,"forced_choices":["rightarrow","leftarrow","leftarrow","rightarrow"],"right_color":"orange","left_color":"lightblue","left_mu":60,"right_mu":80,"left_numbers":[68,63,74,52,62,56,58,53,62,57],"right_numbers":[89,77,88,68,73,68,71,82,64,108],"points_earned":760,"phase":"task","trial_type":"horizons-task","trial_index":26,"time_elapsed":517863,"internal_node_id":"0.0-22.0","task_version":"0.2"},{"response_times":[428,503,504,640,2627,1625,470,380,369,350],"keys_pressed":["rightarrow","rightarrow","leftarrow","leftarrow","rightarrow","rightarrow","rightarrow","rightarrow","rightarrow","rightarrow"],"horizon":10,"forced_choices":["rightarrow","rightarrow","leftarrow","leftarrow"],"right_color":"orange","left_color":"lightblue","left_mu":40,"right_mu":44,"left_numbers":[45,43,35,40,41,21,36,33,40,49],"right_numbers":[57,41,41,41,43,51,31,48,48,41],"points_earned":435,"phase":"task","trial_type":"horizons-task","trial_index":27,"time_elapsed":527264,"internal_node_id":"0.0-23.0","task_version":"0.2"},{"response_times":[551,326,325,670,1039],"keys_pressed":["rightarrow","leftarrow","rightarrow","leftarrow","leftarrow"],"horizon":5,"forced_choices":["rightarrow","leftarrow","rightarrow","leftarrow"],"right_color":"lightblue","left_color":"orange","left_mu":60,"right_mu":48,"left_numbers":[72,71,69,55,62],"right_numbers":[43,37,42,60,54],"points_earned":273,"phase":"task","trial_type":"horizons-task","trial_index":28,"time_elapsed":531680,"internal_node_id":"0.0-24.0","task_version":"0.2"},{"response_times":[410,386,412,620,1106],"keys_pressed":["rightarrow","leftarrow","leftarrow","leftarrow","leftarrow"],"horizon":5,"forced_choices":["rightarrow","leftarrow","leftarrow","leftarrow"],"right_color":"orange","left_color":"lightblue","left_mu":40,"right_mu":10,"left_numbers":[41,40,25,43,38],"right_numbers":[12,6,2,20,5],"points_earned":158,"phase":"task","trial_type":"horizons-task","trial_index":29,"time_elapsed":536117,"internal_node_id":"0.0-25.0","task_version":"0.2"},{"response_times":[471,346,412,334,1991,2266,1907,1587,902,419],"keys_pressed":["rightarrow","leftarrow","leftarrow","rightarrow","leftarrow","leftarrow","leftarrow","rightarrow","rightarrow","rightarrow"],"horizon":10,"forced_choices":["rightarrow","leftarrow","leftarrow","rightarrow"],"right_color":"lightblue","left_color":"orange","left_mu":40,"right_mu":32,"left_numbers":[48,47,49,30,31,40,19,44,38,40],"right_numbers":[43,24,41,34,33,33,19,24,40,23],"points_earned":350,"phase":"task","trial_type":"horizons-task","trial_index":30,"time_elapsed":548258,"internal_node_id":"0.0-26.0","task_version":"0.2"},{"response_times":[580,421,426,934,1624],"keys_pressed":["rightarrow","rightarrow","leftarrow","rightarrow","rightarrow"],"horizon":5,"forced_choices":["rightarrow","rightarrow","leftarrow","rightarrow"],"right_color":"lightblue","left_color":"orange","left_mu":60,"right_mu":64,"left_numbers":[46,61,53,62,50],"right_numbers":[62,72,66,69,61],"points_earned":317,"phase":"task","trial_type":"horizons-task","trial_index":31,"time_elapsed":553746,"internal_node_id":"0.0-27.0","task_version":"0.2"},{"response_times":[356,401,394,366,917],"keys_pressed":["rightarrow","rightarrow","leftarrow","rightarrow","rightarrow"],"horizon":5,"forced_choices":["rightarrow","rightarrow","leftarrow","rightarrow"],"right_color":"orange","left_color":"lightblue","left_mu":60,"right_mu":80,"left_numbers":[58,57,73,68,65],"right_numbers":[85,73,86,80,83],"points_earned":394,"phase":"task","trial_type":"horizons-task","trial_index":32,"time_elapsed":557683,"internal_node_id":"0.0-28.0","task_version":"0.2"},{"response_times":[486,384,378,375,1048,484,320,250,246,305],"keys_pressed":["rightarrow","rightarrow","leftarrow","rightarrow","rightarrow","rightarrow","rightarrow","rightarrow","rightarrow","rightarrow"],"horizon":10,"forced_choices":["rightarrow","rightarrow","leftarrow","rightarrow"],"right_color":"orange","left_color":"lightblue","left_mu":60,"right_mu":80,"left_numbers":[67,64,61,49,58,74,50,52,69,69],"right_numbers":[86,70,84,79,71,68,81,75,83,82],"points_earned":756,"phase":"task","trial_type":"horizons-task","trial_index":33,"time_elapsed":563464,"internal_node_id":"0.0-29.0","task_version":"0.2"},{"response_times":[1205,586,757,764,1298,357,330,309,323,293],"keys_pressed":["leftarrow","rightarrow","leftarrow","rightarrow","rightarrow","rightarrow","rightarrow","rightarrow","rightarrow","rightarrow"],"horizon":10,"forced_choices":["leftarrow","rightarrow","leftarrow","rightarrow"],"right_color":"lightblue","left_color":"orange","left_mu":60,"right_mu":90,"left_numbers":[52,62,49,61,62,44,55,67,67,67],"right_numbers":[92,89,93,108,98,94,90,88,95,83],"points_earned":846,"phase":"task","trial_type":"horizons-task","trial_index":34,"time_elapsed":571194,"internal_node_id":"0.0-30.0","task_version":"0.2"},{"response_times":[737,370,492,458,4804],"keys_pressed":["rightarrow","leftarrow","leftarrow","rightarrow","rightarrow"],"horizon":5,"forced_choices":["rightarrow","leftarrow","leftarrow","rightarrow"],"right_color":"lightblue","left_color":"orange","left_mu":40,"right_mu":32,"left_numbers":[62,28,38,40,50],"right_numbers":[39,22,31,33,25],"points_earned":163,"phase":"task","trial_type":"horizons-task","trial_index":35,"time_elapsed":579560,"internal_node_id":"0.0-31.0","task_version":"0.2"},{"response_times":[494,436,373,528,737],"keys_pressed":["leftarrow","leftarrow","leftarrow","rightarrow","leftarrow"],"horizon":5,"forced_choices":["leftarrow","leftarrow","leftarrow","rightarrow"],"right_color":"lightblue","left_color":"orange","left_mu":40,"right_mu":20,"left_numbers":[47,34,40,38,40],"right_numbers":[7,6,18,9,10],"points_earned":170,"phase":"task","trial_type":"horizons-task","trial_index":36,"time_elapsed":583634,"internal_node_id":"0.0-32.0","task_version":"0.2"},{"response_times":[474,550,316,460,2226],"keys_pressed":["rightarrow","rightarrow","leftarrow","leftarrow","rightarrow"],"horizon":5,"forced_choices":["rightarrow","rightarrow","leftarrow","leftarrow"],"right_color":"orange","left_color":"lightblue","left_mu":40,"right_mu":70,"left_numbers":[26,53,42,34,55],"right_numbers":[65,79,75,74,62],"points_earned":282,"phase":"task","trial_type":"horizons-task","trial_index":37,"time_elapsed":589170,"internal_node_id":"0.0-33.0","task_version":"0.2"},{"response_times":[404,380,338,403,1757],"keys_pressed":["leftarrow","leftarrow","rightarrow","leftarrow","leftarrow"],"horizon":5,"forced_choices":["leftarrow","leftarrow","rightarrow","leftarrow"],"right_color":"lightblue","left_color":"orange","left_mu":60,"right_mu":48,"left_numbers":[68,46,59,54,67],"right_numbers":[49,50,53,49,46],"points_earned":288,"phase":"task","trial_type":"horizons-task","trial_index":38,"time_elapsed":593959,"internal_node_id":"0.0-34.0","task_version":"0.2"},{"response_times":[531,384,355,325,2823,956,627,452,310,458],"keys_pressed":["leftarrow","leftarrow","rightarrow","leftarrow","rightarrow","rightarrow","rightarrow","rightarrow","rightarrow","rightarrow"],"horizon":10,"forced_choices":["leftarrow","leftarrow","rightarrow","leftarrow"],"right_color":"lightblue","left_color":"orange","left_mu":60,"right_mu":72,"left_numbers":[60,59,56,57,44,35,64,44,63,40],"right_numbers":[63,72,73,60,51,75,63,60,69,75],"points_earned":642,"phase":"task","trial_type":"horizons-task","trial_index":39,"time_elapsed":602685,"internal_node_id":"0.0-35.0","task_version":"0.2"},{"response_times":[610,368,353,573,1182,311,314,240,345,357],"keys_pressed":["leftarrow","leftarrow","rightarrow","rightarrow","rightarrow","rightarrow","rightarrow","rightarrow","rightarrow","rightarrow"],"horizon":10,"forced_choices":["leftarrow","leftarrow","rightarrow","rightarrow"],"right_color":"lightblue","left_color":"orange","left_mu":60,"right_mu":72,"left_numbers":[54,63,46,61,62,44,52,60,55,59],"right_numbers":[79,68,74,64,84,69,81,77,66,64],"points_earned":696,"phase":"task","trial_type":"horizons-task","trial_index":40,"time_elapsed":608842,"internal_node_id":"0.0-36.0","task_version":"0.2"},{"response_times":[571,396,410,453,3158],"keys_pressed":["leftarrow","leftarrow","leftarrow","rightarrow","leftarrow"],"horizon":5,"forced_choices":["leftarrow","leftarrow","leftarrow","rightarrow"],"right_color":"orange","left_color":"lightblue","left_mu":40,"right_mu":36,"left_numbers":[50,38,29,43,39],"right_numbers":[38,23,57,38,33],"points_earned":194,"phase":"task","trial_type":"horizons-task","trial_index":41,"time_elapsed":615336,"internal_node_id":"0.0-37.0","task_version":"0.2"},{"response_times":[416,423,450,537,5220],"keys_pressed":["rightarrow","rightarrow","leftarrow","rightarrow","leftarrow"],"horizon":5,"forced_choices":["rightarrow","rightarrow","leftarrow","rightarrow"],"right_color":"lightblue","left_color":"orange","left_mu":40,"right_mu":32,"left_numbers":[37,30,45,48,29],"right_numbers":[45,14,37,46,29],"points_earned":179,"phase":"task","trial_type":"horizons-task","trial_index":42,"time_elapsed":623890,"internal_node_id":"0.0-38.0","task_version":"0.2"},{"response_times":[476,324,282,583,1668,428,213,226,274,372],"keys_pressed":["leftarrow","rightarrow","leftarrow","leftarrow","leftarrow","leftarrow","leftarrow","leftarrow","leftarrow","leftarrow"],"horizon":10,"forced_choices":["leftarrow","rightarrow","leftarrow","leftarrow"],"right_color":"lightblue","left_color":"orange","left_mu":40,"right_mu":48,"left_numbers":[33,46,48,41,48,41,45,37,37,33],"right_numbers":[49,36,38,50,48,34,44,45,44,45],"points_earned":399,"phase":"task","trial_type":"horizons-task","trial_index":43,"time_elapsed":630248,"internal_node_id":"0.0-39.0","task_version":"0.2"},{"response_times":[481,326,348,481,1801,2357,427,442,304,298],"keys_pressed":["rightarrow","leftarrow","rightarrow","rightarrow","rightarrow","rightarrow","rightarrow","rightarrow","rightarrow","rightarrow"],"horizon":10,"forced_choices":["rightarrow","leftarrow","rightarrow","rightarrow"],"right_color":"orange","left_color":"lightblue","left_mu":40,"right_mu":28,"left_numbers":[46,25,35,39,28,37,15,20,47,45],"right_numbers":[45,30,43,17,24,31,37,33,35,37],"points_earned":327,"phase":"task","trial_type":"horizons-task","trial_index":44,"time_elapsed":639019,"internal_node_id":"0.0-40.0","task_version":"0.2"},{"response_times":[425,490,360,475,2861,356,335,229,244,279],"keys_pressed":["rightarrow","rightarrow","rightarrow","leftarrow","rightarrow","rightarrow","rightarrow","rightarrow","rightarrow","rightarrow"],"horizon":10,"forced_choices":["rightarrow","rightarrow","rightarrow","leftarrow"],"right_color":"orange","left_color":"lightblue","left_mu":60,"right_mu":52,"left_numbers":[80,54,67,66,59,55,61,51,47,55],"right_numbers":[58,60,53,68,44,39,52,42,44,49],"points_earned":507,"phase":"task","trial_type":"horizons-task","trial_index":45,"time_elapsed":646578,"internal_node_id":"0.0-41.0","task_version":"0.2"},{"response_times":[517,443,346,631,1939,310,1347,425,174,210],"keys_pressed":["leftarrow","leftarrow","rightarrow","rightarrow","leftarrow","leftarrow","leftarrow","leftarrow","leftarrow","leftarrow"],"horizon":10,"forced_choices":["leftarrow","leftarrow","rightarrow","rightarrow"],"right_color":"orange","left_color":"lightblue","left_mu":60,"right_mu":40,"left_numbers":[67,58,45,65,52,51,49,65,55,55],"right_numbers":[42,32,51,47,29,48,28,40,41,29],"points_earned":550,"phase":"task","trial_type":"horizons-task","trial_index":46,"time_elapsed":654424,"internal_node_id":"0.0-42.0","task_version":"0.2"},{"response_times":[410,338,460,373,2268,283,242,185,253,461],"keys_pressed":["leftarrow","rightarrow","rightarrow","leftarrow","leftarrow","leftarrow","leftarrow","leftarrow","leftarrow","leftarrow"],"horizon":10,"forced_choices":["leftarrow","rightarrow","rightarrow","leftarrow"],"right_color":"orange","left_color":"lightblue","left_mu":60,"right_mu":56,"left_numbers":[64,65,74,61,59,67,59,52,61,63],"right_numbers":[60,63,52,57,49,52,56,60,66,55],"points_earned":601,"phase":"task","trial_type":"horizons-task","trial_index":47,"time_elapsed":661202,"internal_node_id":"0.0-43.0","task_version":"0.2"},{"response_times":[445,387,365,572,1410],"keys_pressed":["rightarrow","rightarrow","leftarrow","leftarrow","leftarrow"],"horizon":5,"forced_choices":["rightarrow","rightarrow","leftarrow","leftarrow"],"right_color":"lightblue","left_color":"orange","left_mu":60,"right_mu":30,"left_numbers":[57,57,61,40,63],"right_numbers":[23,25,23,26,24],"points_earned":212,"phase":"task","trial_type":"horizons-task","trial_index":48,"time_elapsed":665886,"internal_node_id":"0.0-44.0","task_version":"0.2"},{"response_times":[390,461,346,396,1380],"keys_pressed":["leftarrow","leftarrow","rightarrow","rightarrow","leftarrow"],"horizon":5,"forced_choices":["leftarrow","leftarrow","rightarrow","rightarrow"],"right_color":"orange","left_color":"lightblue","left_mu":60,"right_mu":40,"left_numbers":[50,64,63,62,56],"right_numbers":[37,28,40,45,37],"points_earned":255,"phase":"task","trial_type":"horizons-task","trial_index":49,"time_elapsed":670366,"internal_node_id":"0.0-45.0","task_version":"0.2"},{"response_times":[381,330,378,579,1116],"keys_pressed":["rightarrow","leftarrow","rightarrow","leftarrow","leftarrow"],"horizon":5,"forced_choices":["rightarrow","leftarrow","rightarrow","leftarrow"],"right_color":"orange","left_color":"lightblue","left_mu":60,"right_mu":52,"left_numbers":[69,65,56,65,66],"right_numbers":[54,59,58,60,42],"points_earned":308,"phase":"task","trial_type":"horizons-task","trial_index":50,"time_elapsed":674655,"internal_node_id":"0.0-46.0","task_version":"0.2"},{"view_history":"[{\"page_index\":0,\"viewing_time\":3352},{\"page_index\":1,\"viewing_time\":2390}]","rt":5742,"trial_type":"instructions","trial_index":51,"time_elapsed":680399,"internal_node_id":"0.0-47.0","task_version":"0.2"},{"response_times":[1126,329,302,409,1032],"keys_pressed":["rightarrow","leftarrow","rightarrow","rightarrow","leftarrow"],"horizon":5,"forced_choices":["rightarrow","leftarrow","rightarrow","rightarrow"],"right_color":"orange","left_color":"lightblue","left_mu":60,"right_mu":40,"left_numbers":[48,62,56,46,53],"right_numbers":[37,50,44,49,27],"points_earned":245,"phase":"task","trial_type":"horizons-task","trial_index":52,"time_elapsed":685104,"internal_node_id":"0.0-48.0","task_version":"0.2"},{"response_times":[471,301,347,335,1383],"keys_pressed":["leftarrow","rightarrow","leftarrow","rightarrow","rightarrow"],"horizon":5,"forced_choices":["leftarrow","rightarrow","leftarrow","rightarrow"],"right_color":"lightblue","left_color":"orange","left_mu":40,"right_mu":48,"left_numbers":[30,39,37,33,34],"right_numbers":[65,51,59,39,27],"points_earned":184,"phase":"task","trial_type":"horizons-task","trial_index":53,"time_elapsed":689448,"internal_node_id":"0.0-49.0","task_version":"0.2"},{"response_times":[473,346,531,365,1149],"keys_pressed":["rightarrow","leftarrow","leftarrow","rightarrow","rightarrow"],"horizon":5,"forced_choices":["rightarrow","leftarrow","leftarrow","rightarrow"],"right_color":"orange","left_color":"lightblue","left_mu":40,"right_mu":36,"left_numbers":[45,37,36,41,30],"right_numbers":[39,38,29,56,34],"points_earned":202,"phase":"task","trial_type":"horizons-task","trial_index":54,"time_elapsed":693814,"internal_node_id":"0.0-50.0","task_version":"0.2"},{"response_times":[402,415,497,429,3480,460,304,343,337,363],"keys_pressed":["leftarrow","leftarrow","rightarrow","leftarrow","leftarrow","leftarrow","leftarrow","leftarrow","leftarrow","leftarrow"],"horizon":10,"forced_choices":["leftarrow","leftarrow","rightarrow","leftarrow"],"right_color":"lightblue","left_color":"orange","left_mu":60,"right_mu":48,"left_numbers":[78,46,58,68,61,45,53,65,65,60],"right_numbers":[45,40,53,49,54,44,45,45,49,57],"points_earned":594,"phase":"task","trial_type":"horizons-task","trial_index":55,"time_elapsed":702347,"internal_node_id":"0.0-51.0","task_version":"0.2"},{"response_times":[479,273,509,402,2326,456,226,202,252,344],"keys_pressed":["rightarrow","leftarrow","leftarrow","leftarrow","leftarrow","leftarrow","leftarrow","leftarrow","leftarrow","leftarrow"],"horizon":10,"forced_choices":["rightarrow","leftarrow","leftarrow","leftarrow"],"right_color":"orange","left_color":"lightblue","left_mu":40,"right_mu":44,"left_numbers":[33,44,43,31,51,47,35,34,44,42],"right_numbers":[40,55,38,48,38,39,48,31,49,54],"points_earned":411,"phase":"task","trial_type":"horizons-task","trial_index":56,"time_elapsed":709320,"internal_node_id":"0.0-52.0","task_version":"0.2"},{"response_times":[400,314,867,553,6084],"keys_pressed":["leftarrow","rightarrow","rightarrow","leftarrow","leftarrow"],"horizon":5,"forced_choices":["leftarrow","rightarrow","rightarrow","leftarrow"],"right_color":"orange","left_color":"lightblue","left_mu":60,"right_mu":56,"left_numbers":[51,47,62,60,59],"right_numbers":[56,46,69,61,56],"points_earned":285,"phase":"task","trial_type":"horizons-task","trial_index":57,"time_elapsed":719043,"internal_node_id":"0.0-53.0","task_version":"0.2"},{"response_times":[570,264,380,341,1916,386,211,209,271,318],"keys_pressed":["rightarrow","leftarrow","leftarrow","rightarrow","leftarrow","leftarrow","leftarrow","leftarrow","leftarrow","leftarrow"],"horizon":10,"forced_choices":["rightarrow","leftarrow","leftarrow","rightarrow"],"right_color":"orange","left_color":"lightblue","left_mu":40,"right_mu":36,"left_numbers":[45,43,38,43,34,22,50,37,44,34],"right_numbers":[20,47,49,37,39,40,31,34,28,39],"points_earned":359,"phase":"task","trial_type":"horizons-task","trial_index":58,"time_elapsed":725416,"internal_node_id":"0.0-54.0","task_version":"0.2"},{"response_times":[414,290,452,622,1354,258,227,284,296,463],"keys_pressed":["leftarrow","rightarrow","rightarrow","rightarrow","rightarrow","rightarrow","rightarrow","rightarrow","rightarrow","rightarrow"],"horizon":10,"forced_choices":["leftarrow","rightarrow","rightarrow","rightarrow"],"right_color":"lightblue","left_color":"orange","left_mu":60,"right_mu":90,"left_numbers":[42,67,52,57,55,62,71,66,55,55],"right_numbers":[95,93,97,90,82,77,83,74,83,96],"points_earned":817,"phase":"task","trial_type":"horizons-task","trial_index":59,"time_elapsed":731581,"internal_node_id":"0.0-55.0","task_version":"0.2"},{"response_times":[511,315,420,519,2080,407,186,222,235,355],"keys_pressed":["leftarrow","rightarrow","rightarrow","leftarrow","rightarrow","rightarrow","rightarrow","rightarrow","rightarrow","rightarrow"],"horizon":10,"forced_choices":["leftarrow","rightarrow","rightarrow","leftarrow"],"right_color":"lightblue","left_color":"orange","left_mu":60,"right_mu":68,"left_numbers":[55,46,62,62,69,70,68,57,61,63],"right_numbers":[66,76,60,70,85,68,65,67,68,61],"points_earned":667,"phase":"task","trial_type":"horizons-task","trial_index":60,"time_elapsed":738337,"internal_node_id":"0.0-56.0","task_version":"0.2"},{"response_times":[386,345,722,814,437],"keys_pressed":["leftarrow","rightarrow","rightarrow","rightarrow","rightarrow"],"horizon":5,"forced_choices":["leftarrow","rightarrow","rightarrow","rightarrow"],"right_color":"lightblue","left_color":"orange","left_mu":60,"right_mu":90,"left_numbers":[54,57,59,55,52],"right_numbers":[74,95,86,86,81],"points_earned":402,"phase":"task","trial_type":"horizons-task","trial_index":61,"time_elapsed":742547,"internal_node_id":"0.0-57.0","task_version":"0.2"},{"response_times":[609,511,535,410,2113,493,240,176,176,315],"keys_pressed":["rightarrow","rightarrow","rightarrow","leftarrow","rightarrow","rightarrow","rightarrow","rightarrow","rightarrow","rightarrow"],"horizon":10,"forced_choices":["rightarrow","rightarrow","rightarrow","leftarrow"],"right_color":"orange","left_color":"lightblue","left_mu":60,"right_mu":56,"left_numbers":[58,55,56,52,59,61,67,61,56,76],"right_numbers":[57,61,60,64,63,68,51,58,57,60],"points_earned":587,"phase":"task","trial_type":"horizons-task","trial_index":62,"time_elapsed":749629,"internal_node_id":"0.0-58.0","task_version":"0.2"},{"response_times":[584,287,333,686,515],"keys_pressed":["leftarrow","rightarrow","leftarrow","rightarrow","rightarrow"],"horizon":5,"forced_choices":["leftarrow","rightarrow","leftarrow","rightarrow"],"right_color":"lightblue","left_color":"orange","left_mu":60,"right_mu":90,"left_numbers":[62,69,68,66,47],"right_numbers":[93,88,81,87,96],"points_earned":401,"phase":"task","trial_type":"horizons-task","trial_index":63,"time_elapsed":753540,"internal_node_id":"0.0-59.0","task_version":"0.2"},{"response_times":[696,392,375,800,465],"keys_pressed":["rightarrow","leftarrow","rightarrow","rightarrow","leftarrow"],"horizon":5,"forced_choices":["rightarrow","leftarrow","rightarrow","rightarrow"],"right_color":"orange","left_color":"lightblue","left_mu":40,"right_mu":28,"left_numbers":[32,41,40,35,48],"right_numbers":[24,32,24,6,21],"points_earned":143,"phase":"task","trial_type":"horizons-task","trial_index":64,"time_elapsed":757771,"internal_node_id":"0.0-60.0","task_version":"0.2"},{"response_times":[570,538,386,392,1404,567,684,654,190,164],"keys_pressed":["leftarrow","leftarrow","rightarrow","rightarrow","rightarrow","rightarrow","rightarrow","rightarrow","rightarrow","rightarrow"],"horizon":10,"forced_choices":["leftarrow","leftarrow","rightarrow","rightarrow"],"right_color":"orange","left_color":"lightblue","left_mu":40,"right_mu":52,"left_numbers":[39,36,56,31,27,35,39,44,45,36],"right_numbers":[45,54,54,47,52,49,56,65,58,62],"points_earned":518,"phase":"task","trial_type":"horizons-task","trial_index":65,"time_elapsed":764830,"internal_node_id":"0.0-61.0","task_version":"0.2"},{"response_times":[506,554,453,555,462,189,192,196,308,391],"keys_pressed":["rightarrow","rightarrow","leftarrow","leftarrow","rightarrow","rightarrow","rightarrow","rightarrow","rightarrow","rightarrow"],"horizon":10,"forced_choices":["rightarrow","rightarrow","leftarrow","leftarrow"],"right_color":"orange","left_color":"lightblue","left_mu":40,"right_mu":70,"left_numbers":[37,42,36,55,39,60,37,40,35,36],"right_numbers":[87,73,68,79,74,55,65,67,78,92],"points_earned":682,"phase":"task","trial_type":"horizons-task","trial_index":66,"time_elapsed":770139,"internal_node_id":"0.0-62.0","task_version":"0.2"},{"response_times":[576,466,529,536,876],"keys_pressed":["rightarrow","leftarrow","leftarrow","leftarrow","rightarrow"],"horizon":5,"forced_choices":["rightarrow","leftarrow","leftarrow","leftarrow"],"right_color":"lightblue","left_color":"orange","left_mu":60,"right_mu":68,"left_numbers":[67,69,55,51,62],"right_numbers":[76,63,61,74,70],"points_earned":321,"phase":"task","trial_type":"horizons-task","trial_index":67,"time_elapsed":774627,"internal_node_id":"0.0-63.0","task_version":"0.2"},{"response_times":[545,431,429,425,2546,408,168,170,166,283],"keys_pressed":["leftarrow","leftarrow","leftarrow","rightarrow","leftarrow","leftarrow","leftarrow","leftarrow","leftarrow","leftarrow"],"horizon":10,"forced_choices":["leftarrow","leftarrow","leftarrow","rightarrow"],"right_color":"orange","left_color":"lightblue","left_mu":40,"right_mu":36,"left_numbers":[33,31,41,46,46,34,48,22,35,35],"right_numbers":[45,49,32,33,35,41,35,42,28,37],"points_earned":358,"phase":"task","trial_type":"horizons-task","trial_index":68,"time_elapsed":781702,"internal_node_id":"0.0-64.0","task_version":"0.2"},{"response_times":[459,323,358,643,1305],"keys_pressed":["leftarrow","rightarrow","leftarrow","leftarrow","rightarrow"],"horizon":5,"forced_choices":["leftarrow","rightarrow","leftarrow","leftarrow"],"right_color":"lightblue","left_color":"orange","left_mu":40,"right_mu":48,"left_numbers":[31,49,53,39,27],"right_numbers":[45,49,52,52,43],"points_earned":215,"phase":"task","trial_type":"horizons-task","trial_index":69,"time_elapsed":786297,"internal_node_id":"0.0-65.0","task_version":"0.2"},{"response_times":[460,361,374,402,1872,355,158,159,174,396],"keys_pressed":["rightarrow","leftarrow","rightarrow","leftarrow","leftarrow","leftarrow","leftarrow","leftarrow","leftarrow","leftarrow"],"horizon":10,"forced_choices":["rightarrow","leftarrow","rightarrow","leftarrow"],"right_color":"lightblue","left_color":"orange","left_mu":60,"right_mu":48,"left_numbers":[62,54,58,45,59,63,74,53,74,66],"right_numbers":[35,48,54,48,34,54,47,54,45,53],"points_earned":577,"phase":"task","trial_type":"horizons-task","trial_index":70,"time_elapsed":792515,"internal_node_id":"0.0-66.0","task_version":"0.2"},{"response_times":[386,346,329,641,830,223,168,175,177,323],"keys_pressed":["leftarrow","rightarrow","leftarrow","rightarrow","rightarrow","rightarrow","rightarrow","rightarrow","rightarrow","rightarrow"],"horizon":10,"forced_choices":["leftarrow","rightarrow","leftarrow","rightarrow"],"right_color":"lightblue","left_color":"orange","left_mu":40,"right_mu":60,"left_numbers":[33,59,33,39,32,39,34,48,45,57],"right_numbers":[57,57,68,56,65,59,49,57,50,49],"points_earned":508,"phase":"task","trial_type":"horizons-task","trial_index":71,"time_elapsed":797620,"internal_node_id":"0.0-67.0","task_version":"0.2"},{"response_times":[561,539,515,567,1192],"keys_pressed":["rightarrow","rightarrow","rightarrow","leftarrow","leftarrow"],"horizon":5,"forced_choices":["rightarrow","rightarrow","rightarrow","leftarrow"],"right_color":"orange","left_color":"lightblue","left_mu":60,"right_mu":52,"left_numbers":[69,49,57,69,58],"right_numbers":[53,56,51,40,58],"points_earned":287,"phase":"task","trial_type":"horizons-task","trial_index":72,"time_elapsed":802500,"internal_node_id":"0.0-68.0","task_version":"0.2"},{"response_times":[511,358,401,468,476,176,183,202,204,840],"keys_pressed":["leftarrow","leftarrow","rightarrow","leftarrow","rightarrow","rightarrow","rightarrow","rightarrow","rightarrow","rightarrow"],"horizon":10,"forced_choices":["leftarrow","leftarrow","rightarrow","leftarrow"],"right_color":"orange","left_color":"lightblue","left_mu":40,"right_mu":70,"left_numbers":[41,34,42,34,44,48,31,47,34,45],"right_numbers":[70,71,74,73,71,88,74,81,73,64],"points_earned":634,"phase":"task","trial_type":"horizons-task","trial_index":73,"time_elapsed":807825,"internal_node_id":"0.0-69.0","task_version":"0.2"},{"response_times":[3670,374,314,456,1956,426,186,185,205,298],"keys_pressed":["rightarrow","leftarrow","rightarrow","rightarrow","leftarrow","leftarrow","leftarrow","leftarrow","leftarrow","leftarrow"],"horizon":10,"forced_choices":["rightarrow","leftarrow","rightarrow","rightarrow"],"right_color":"orange","left_color":"lightblue","left_mu":60,"right_mu":40,"left_numbers":[68,52,53,61,62,68,63,62,44,55],"right_numbers":[29,46,43,43,52,34,44,42,39,44],"points_earned":521,"phase":"task","trial_type":"horizons-task","trial_index":74,"time_elapsed":817401,"internal_node_id":"0.0-70.0","task_version":"0.2"},{"response_times":[404,336,395,444,465],"keys_pressed":["rightarrow","leftarrow","leftarrow","leftarrow","rightarrow"],"horizon":5,"forced_choices":["rightarrow","leftarrow","leftarrow","leftarrow"],"right_color":"orange","left_color":"lightblue","left_mu":40,"right_mu":44,"left_numbers":[44,34,31,38,43],"right_numbers":[48,45,44,50,35],"points_earned":186,"phase":"task","trial_type":"horizons-task","trial_index":75,"time_elapsed":820953,"internal_node_id":"0.0-71.0","task_version":"0.2"},{"response_times":[413,259,386,557,1650,430,197,186,224,343],"keys_pressed":["rightarrow","leftarrow","rightarrow","leftarrow","rightarrow","rightarrow","rightarrow","rightarrow","rightarrow","rightarrow"],"horizon":10,"forced_choices":["rightarrow","leftarrow","rightarrow","leftarrow"],"right_color":"lightblue","left_color":"orange","left_mu":60,"right_mu":64,"left_numbers":[58,62,58,50,59,62,69,69,57,63],"right_numbers":[61,57,65,76,61,64,77,65,70,73],"points_earned":648,"phase":"task","trial_type":"horizons-task","trial_index":76,"time_elapsed":827108,"internal_node_id":"0.0-72.0","task_version":"0.2"},{"response_times":[386,555,317,376,776],"keys_pressed":["leftarrow","leftarrow","rightarrow","rightarrow","rightarrow"],"horizon":5,"forced_choices":["leftarrow","leftarrow","rightarrow","rightarrow"],"right_color":"lightblue","left_color":"orange","left_mu":60,"right_mu":72,"left_numbers":[53,59,61,36,47],"right_numbers":[70,55,76,79,77],"points_earned":344,"phase":"task","trial_type":"horizons-task","trial_index":77,"time_elapsed":831023,"internal_node_id":"0.0-73.0","task_version":"0.2"},{"response_times":[437,399,366,653,283],"keys_pressed":["leftarrow","leftarrow","rightarrow","leftarrow","rightarrow"],"horizon":5,"forced_choices":["leftarrow","leftarrow","rightarrow","leftarrow"],"right_color":"orange","left_color":"lightblue","left_mu":40,"right_mu":70,"left_numbers":[37,37,31,44,36],"right_numbers":[98,81,68,76,64],"points_earned":250,"phase":"task","trial_type":"horizons-task","trial_index":78,"time_elapsed":834665,"internal_node_id":"0.0-74.0","task_version":"0.2"},{"response_times":[354,363,333,350,571],"keys_pressed":["leftarrow","leftarrow","rightarrow","leftarrow","rightarrow"],"horizon":5,"forced_choices":["leftarrow","leftarrow","rightarrow","leftarrow"],"right_color":"lightblue","left_color":"orange","left_mu":60,"right_mu":72,"left_numbers":[66,60,51,43,53],"right_numbers":[71,54,79,71,72],"points_earned":320,"phase":"task","trial_type":"horizons-task","trial_index":79,"time_elapsed":838140,"internal_node_id":"0.0-75.0","task_version":"0.2"},{"response_times":[403,340,552,522,1931],"keys_pressed":["rightarrow","leftarrow","leftarrow","rightarrow","leftarrow"],"horizon":5,"forced_choices":["rightarrow","leftarrow","leftarrow","rightarrow"],"right_color":"orange","left_color":"lightblue","left_mu":40,"right_mu":28,"left_numbers":[40,34,28,31,28],"right_numbers":[20,31,23,36,31],"points_earned":146,"phase":"task","trial_type":"horizons-task","trial_index":80,"time_elapsed":843390,"internal_node_id":"0.0-76.0","task_version":"0.2"},{"response_times":[493,344,312,379,3122,1141,765,724,418,391],"keys_pressed":["leftarrow","rightarrow","leftarrow","rightarrow","leftarrow","rightarrow","leftarrow","leftarrow","leftarrow","leftarrow"],"horizon":10,"forced_choices":["leftarrow","rightarrow","leftarrow","rightarrow"],"right_color":"lightblue","left_color":"orange","left_mu":40,"right_mu":48,"left_numbers":[36,42,51,39,39,28,35,39,42,34],"right_numbers":[51,33,44,47,55,38,41,50,44,43],"points_earned":394,"phase":"task","trial_type":"horizons-task","trial_index":81,"time_elapsed":852983,"internal_node_id":"0.0-77.0","task_version":"0.2"},{"response_times":[519,269,519,628,1470,602,385,165,199,450],"keys_pressed":["rightarrow","leftarrow","leftarrow","leftarrow","rightarrow","rightarrow","rightarrow","rightarrow","rightarrow","rightarrow"],"horizon":10,"forced_choices":["rightarrow","leftarrow","leftarrow","leftarrow"],"right_color":"lightblue","left_color":"orange","left_mu":60,"right_mu":68,"left_numbers":[60,67,62,80,71,71,61,45,62,62],"right_numbers":[70,65,70,53,88,74,65,68,62,58],"points_earned":694,"phase":"task","trial_type":"horizons-task","trial_index":82,"time_elapsed":859691,"internal_node_id":"0.0-78.0","task_version":"0.2"},{"response_times":[447,551,431,1242,293],"keys_pressed":["rightarrow","rightarrow","leftarrow","leftarrow","rightarrow"],"horizon":5,"forced_choices":["rightarrow","rightarrow","leftarrow","leftarrow"],"right_color":"orange","left_color":"lightblue","left_mu":40,"right_mu":44,"left_numbers":[38,46,23,44,43],"right_numbers":[42,44,44,38,46],"points_earned":199,"phase":"task","trial_type":"horizons-task","trial_index":83,"time_elapsed":864162,"internal_node_id":"0.0-79.0","task_version":"0.2"},{"response_times":[379,318,454,595,433,811,330,209,170,433],"keys_pressed":["rightarrow","leftarrow","leftarrow","leftarrow","rightarrow","leftarrow","leftarrow","leftarrow","leftarrow","leftarrow"],"horizon":10,"forced_choices":["rightarrow","leftarrow","leftarrow","leftarrow"],"right_color":"orange","left_color":"lightblue","left_mu":40,"right_mu":10,"left_numbers":[36,31,36,31,45,51,40,45,34,30],"right_numbers":[10,13,24,11,13,3,1,14,10,13],"points_earned":321,"phase":"task","trial_type":"horizons-task","trial_index":84,"time_elapsed":869799,"internal_node_id":"0.0-80.0","task_version":"0.2"},{"response_times":[441,400,384,893,577],"keys_pressed":["leftarrow","rightarrow","leftarrow","rightarrow","rightarrow"],"horizon":5,"forced_choices":["leftarrow","rightarrow","leftarrow","rightarrow"],"right_color":"lightblue","left_color":"orange","left_mu":40,"right_mu":60,"left_numbers":[31,28,39,31,50],"right_numbers":[56,53,67,41,63],"points_earned":227,"phase":"task","trial_type":"horizons-task","trial_index":85,"time_elapsed":873998,"internal_node_id":"0.0-81.0","task_version":"0.2"},{"response_times":[444,473,368,492,1000,258,307,174,157,240],"keys_pressed":["rightarrow","rightarrow","leftarrow","rightarrow","rightarrow","rightarrow","rightarrow","rightarrow","rightarrow","rightarrow"],"horizon":10,"forced_choices":["rightarrow","rightarrow","leftarrow","rightarrow"],"right_color":"lightblue","left_color":"orange","left_mu":60,"right_mu":64,"left_numbers":[54,62,53,46,56,59,69,79,45,53],"right_numbers":[67,63,65,66,78,75,73,60,56,78],"points_earned":669,"phase":"task","trial_type":"horizons-task","trial_index":86,"time_elapsed":879419,"internal_node_id":"0.0-82.0","task_version":"0.2"},{"response_times":[404,310,444,367,1179,239,170,159,172,216],"keys_pressed":["leftarrow","rightarrow","rightarrow","leftarrow","leftarrow","leftarrow","leftarrow","leftarrow","leftarrow","leftarrow"],"horizon":10,"forced_choices":["leftarrow","rightarrow","rightarrow","leftarrow"],"right_color":"orange","left_color":"lightblue","left_mu":40,"right_mu":10,"left_numbers":[40,38,47,55,49,43,23,41,55,41],"right_numbers":[7,10,16,22,2,3,10,11,19,22],"points_earned":373,"phase":"task","trial_type":"horizons-task","trial_index":87,"time_elapsed":884587,"internal_node_id":"0.0-83.0","task_version":"0.2"},{"response_times":[410,296,498,762,472],"keys_pressed":["rightarrow","leftarrow","leftarrow","rightarrow","rightarrow"],"horizon":5,"forced_choices":["rightarrow","leftarrow","leftarrow","rightarrow"],"right_color":"orange","left_color":"lightblue","left_mu":60,"right_mu":80,"left_numbers":[55,56,60,61,56],"right_numbers":[76,83,79,80,85],"points_earned":357,"phase":"task","trial_type":"horizons-task","trial_index":88,"time_elapsed":888532,"internal_node_id":"0.0-84.0","task_version":"0.2"},{"response_times":[425,315,301,427,391],"keys_pressed":["leftarrow","rightarrow","leftarrow","leftarrow","rightarrow"],"horizon":5,"forced_choices":["leftarrow","rightarrow","leftarrow","leftarrow"],"right_color":"orange","left_color":"lightblue","left_mu":40,"right_mu":52,"left_numbers":[60,42,29,48,32],"right_numbers":[44,51,60,44,41],"points_earned":229,"phase":"task","trial_type":"horizons-task","trial_index":89,"time_elapsed":891897,"internal_node_id":"0.0-85.0","task_version":"0.2"},{"response_times":[401,331,447,491,200],"keys_pressed":["leftarrow","rightarrow","rightarrow","leftarrow","leftarrow"],"horizon":5,"forced_choices":["leftarrow","rightarrow","rightarrow","leftarrow"],"right_color":"orange","left_color":"lightblue","left_mu":40,"right_mu":10,"left_numbers":[30,40,31,40,33],"right_numbers":[6,14,13,11,20],"points_earned":130,"phase":"task","trial_type":"horizons-task","trial_index":90,"time_elapsed":895271,"internal_node_id":"0.0-86.0","task_version":"0.2"},{"response_times":[552,408,657,882,848],"keys_pressed":["rightarrow","leftarrow","rightarrow","leftarrow","rightarrow"],"horizon":5,"forced_choices":["rightarrow","leftarrow","rightarrow","leftarrow"],"right_color":"lightblue","left_color":"orange","left_mu":60,"right_mu":64,"left_numbers":[68,67,66,55,54],"right_numbers":[69,73,66,68,53],"points_earned":310,"phase":"task","trial_type":"horizons-task","trial_index":91,"time_elapsed":900121,"internal_node_id":"0.0-87.0","task_version":"0.2"},{"rt":14803,"responses":{"age":"22","gender-categorical":"Male","gender-free-response":"","ethnicity":"Not Hispanic or Latino","race":["Asian"],"language":"Yes","fluency":"Very well"},"survey":"demographics","trial_type":"survey-demo","trial_index":92,"time_elapsed":914928,"internal_node_id":"0.0-88.0","task_version":"0.2"},{"rt":18207,"responses":{"difficulty":"5","fun":"4","clarity":"5","strategy":"No","feedback":"No"},"survey":"debrief","trial_type":"survey-debrief","trial_index":93,"time_elapsed":933136,"internal_node_id":"0.0-89.0","task_version":"0.2","interactions":"[{\"event\":\"focus\",\"trial\":0,\"time\":0},{\"event\":\"blur\",\"trial\":1,\"time\":20599},{\"event\":\"focus\",\"trial\":1,\"time\":23593},{\"event\":\"blur\",\"trial\":1,\"time\":66414},{\"event\":\"focus\",\"trial\":1,\"time\":80841},{\"event\":\"blur\",\"trial\":2,\"time\":139621},{\"event\":\"focus\",\"trial\":2,\"time\":144143},{\"event\":\"blur\",\"trial\":3,\"time\":200446},{\"event\":\"focus\",\"trial\":3,\"time\":212169},{\"event\":\"blur\",\"trial\":3,\"time\":214010},{\"event\":\"focus\",\"trial\":3,\"time\":217595},{\"event\":\"blur\",\"trial\":4,\"time\":255532},{\"event\":\"focus\",\"trial\":4,\"time\":257199},{\"event\":\"blur\",\"trial\":4,\"time\":310138},{\"event\":\"focus\",\"trial\":4,\"time\":319268},{\"event\":\"blur\",\"trial\":4,\"time\":325348},{\"event\":\"focus\",\"trial\":4,\"time\":327775},{\"event\":\"blur\",\"trial\":73,\"time\":806734},{\"event\":\"focus\",\"trial\":74,\"time\":810701}]"}]