[{"view_history":"[{\"page_index\":0,\"viewing_time\":6391}]","rt":6391,"trial_type":"instructions","trial_index":0,"time_elapsed":6399,"internal_node_id":"0.0-0.0","task_version":"0.2"},{"item_order":[2,1,3,5,0,11,6,10,9,7,12,4,8],"responses":{"Q03":"3","Q02":"4","Q04":"3","Q06":"4","Q01":"3","Q12":"4","Q07":"3","Q11":"3","Q10":"4","Q08":"3","Q13":"4","Q05":"3","Q09":"4"},"radio_events":[7995,10490,13658,14802,17098,19474,20586,23386,27434,28690,32498,34506,51330],"key_events":[],"mouse_events":[0,7346,7995,10490,12082,13050,13658,14802,17098,18650,19474,20586,23386,27434,28690,29914,32498,34506,36282,51330,52333],"rt":52333,"survey":"ius12","trial_type":"survey-template","trial_index":1,"time_elapsed":58737,"internal_node_id":"0.0-1.0","task_version":"0.2"},{"item_order":[14,2,3,11,0,12,9,5,1,13,16,7,8,6,4,10,15],"responses":{"Q15":"2","Q03":"1","Q04":"4","Q12":"3","Q01":"0","Q13":"3","Q10":"0","Q06":"3","Q02":"4","Q14":"3","Q17":"4","Q08":"1","Q09":"2","Q07":"3","Q05":"4","Q11":"1","Q16":"4"},"radio_events":[4457,5785,9209,10217,12560,14769,16113,17473,19761,23217,24753,25681,27105,28265,29713,34297,35440],"key_events":[],"mouse_events":[4457,5785,7961,9209,10217,12560,13697,14769,16113,17473,19761,23217,24753,25681,27105,28265,29713,31304,34297,35440,36355],"rt":36356,"survey":"pswq","trial_type":"survey-template","trial_index":2,"time_elapsed":95098,"internal_node_id":"0.0-2.0","task_version":"0.2"},{"item_order":[9,13,15,8,1,2,6,11,3,0,5,14,10,4,7,12],"responses":{"Q10":"3","Q14":"4","Q16":"5","Q09":"4","Q02":"5","Q03":"3","Q07":"4","Q12":"5","Q04":"3","Q01":"4","Q06":"5","Q15":"3","Q11":"4","Q05":"5","Q08":"4","Q13":"3"},"radio_events":[6544,7473,9785,10801,11872,14417,17938,19033,22393,23816,26009,36560,37841,38761,40729,42568],"key_events":[],"mouse_events":[6544,7473,8561,9785,10801,11872,12856,14417,15633,17938,19033,22393,23816,25537,26009,36560,37841,38761,40729,42568,43667],"rt":43667,"survey":"nfc","trial_type":"survey-template","trial_index":3,"time_elapsed":138770,"internal_node_id":"0.0-3.0","task_version":"0.2"},{"view_history":"[{\"page_index\":0,\"viewing_time\":3241},{\"page_index\":1,\"viewing_time\":3713},{\"page_index\":2,\"viewing_time\":8111},{\"page_index\":3,\"viewing_time\":4792},{\"page_index\":4,\"viewing_time\":1953},{\"page_index\":5,\"viewing_time\":3567},{\"page_index\":6,\"viewing_time\":5040},{\"page_index\":7,\"viewing_time\":1336},{\"page_index\":8,\"viewing_time\":1737},{\"page_index\":9,\"viewing_time\":968}]","rt":34458,"trial_type":"instructions","trial_index":4,"time_elapsed":173231,"internal_node_id":"0.0-4.0-0.0","task_version":"0.2"},{"response_times":[7809,2147,958,1688,520],"keys_pressed":["rightarrow","leftarrow","rightarrow","rightarrow","leftarrow"],"horizon":5,"forced_choices":["rightarrow","leftarrow","rightarrow","rightarrow"],"right_color":"lightblue","left_color":"orange","left_mu":40,"right_mu":20,"left_numbers":[41,40,23,39,45],"right_numbers":[26,39,14,28,2],"points_earned":153,"phase":"practice","trial_type":"horizons-task","trial_index":5,"time_elapsed":187870,"internal_node_id":"0.0-4.0-1.0","task_version":"0.2"},{"response_times":[3410,1016,848,1160,416,360,288,232,248,232],"keys_pressed":["leftarrow","leftarrow","rightarrow","rightarrow","leftarrow","rightarrow","leftarrow","rightarrow","leftarrow","rightarrow"],"horizon":10,"forced_choices":["leftarrow","leftarrow","rightarrow","rightarrow"],"right_color":"orange","left_color":"lightblue","left_mu":60,"right_mu":70,"left_numbers":[63,53,59,68,57,63,56,55,41,70],"right_numbers":[61,64,76,75,73,67,59,68,60,74],"points_earned":630,"phase":"practice","trial_type":"horizons-task","trial_index":6,"time_elapsed":197592,"internal_node_id":"0.0-4.0-2.0","task_version":"0.2"},{"view_history":"[{\"page_index\":0,\"viewing_time\":5920},{\"page_index\":1,\"viewing_time\":1993},{\"page_index\":2,\"viewing_time\":1800},{\"page_index\":3,\"viewing_time\":1456}]","rt":11170,"trial_type":"instructions","trial_index":7,"time_elapsed":208766,"internal_node_id":"0.0-4.0-3.0","task_version":"0.2"},{"responses":["true","false","true"],"num_errors":0,"rt":27711,"trial_type":"horizons-comprehension","trial_index":8,"time_elapsed":236480,"internal_node_id":"0.0-4.0-4.0","task_version":"0.2"},{"trial_type":"call-function","trial_index":9,"time_elapsed":236482,"internal_node_id":"0.0-5.0","task_version":"0.2"},{"view_history":"[{\"page_index\":0,\"viewing_time\":2642},{\"page_index\":1,\"viewing_time\":2352}]","rt":4994,"trial_type":"instructions","trial_index":10,"time_elapsed":241478,"internal_node_id":"0.0-6.0","task_version":"0.2"},{"response_times":[3082,767,377,326,265],"keys_pressed":["rightarrow","rightarrow","leftarrow","rightarrow","leftarrow"],"horizon":5,"forced_choices":["rightarrow","rightarrow","leftarrow","rightarrow"],"right_color":"orange","left_color":"lightblue","left_mu":60,"right_mu":30,"left_numbers":[73,62,57,64,60],"right_numbers":[38,21,17,31,35],"points_earned":207,"phase":"task","trial_type":"horizons-task","trial_index":11,"time_elapsed":247802,"internal_node_id":"0.0-7.0","task_version":"0.2"},{"response_times":[1472,647,423,280,240],"keys_pressed":["leftarrow","leftarrow","rightarrow","leftarrow","rightarrow"],"horizon":5,"forced_choices":["leftarrow","leftarrow","rightarrow","leftarrow"],"right_color":"orange","left_color":"lightblue","left_mu":40,"right_mu":20,"left_numbers":[50,47,41,39,33],"right_numbers":[18,17,13,16,37],"points_earned":186,"phase":"task","trial_type":"horizons-task","trial_index":12,"time_elapsed":252371,"internal_node_id":"0.0-8.0","task_version":"0.2"},{"response_times":[1336,344,495,465,239,176,232,182,265,169],"keys_pressed":["leftarrow","rightarrow","rightarrow","rightarrow","leftarrow","rightarrow","leftarrow","rightarrow","leftarrow","rightarrow"],"horizon":10,"forced_choices":["leftarrow","rightarrow","rightarrow","rightarrow"],"right_color":"orange","left_color":"lightblue","left_mu":40,"right_mu":36,"left_numbers":[23,45,49,38,35,42,32,45,18,48],"right_numbers":[22,29,36,35,41,35,39,28,24,49],"points_earned":320,"phase":"task","trial_type":"horizons-task","trial_index":13,"time_elapsed":257780,"internal_node_id":"0.0-9.0","task_version":"0.2"},{"response_times":[871,384,175,343,88,352,27,557,167,265],"keys_pressed":["rightarrow","rightarrow","leftarrow","leftarrow","rightarrow","rightarrow","leftarrow","rightarrow","leftarrow","rightarrow"],"horizon":10,"forced_choices":["rightarrow","rightarrow","leftarrow","leftarrow"],"right_color":"lightblue","left_color":"orange","left_mu":40,"right_mu":48,"left_numbers":[53,38,43,45,39,43,46,46,37,43],"right_numbers":[48,41,64,40,30,52,51,64,46,51],"points_earned":457,"phase":"task","trial_type":"horizons-task","trial_index":14,"time_elapsed":262521,"internal_node_id":"0.0-10.0","task_version":"0.2"},{"response_times":[1226,463,385,239,137],"keys_pressed":["rightarrow","rightarrow","rightarrow","leftarrow","rightarrow"],"horizon":5,"forced_choices":["rightarrow","rightarrow","rightarrow","leftarrow"],"right_color":"orange","left_color":"lightblue","left_mu":40,"right_mu":44,"left_numbers":[48,49,37,42,44],"right_numbers":[45,38,42,43,44],"points_earned":211,"phase":"task","trial_type":"horizons-task","trial_index":15,"time_elapsed":266485,"internal_node_id":"0.0-11.0","task_version":"0.2"},{"response_times":[805,801,319,416,289],"keys_pressed":["leftarrow","leftarrow","rightarrow","rightarrow","leftarrow"],"horizon":5,"forced_choices":["leftarrow","leftarrow","rightarrow","rightarrow"],"right_color":"orange","left_color":"lightblue","left_mu":60,"right_mu":56,"left_numbers":[65,70,65,73,65],"right_numbers":[47,57,46,58,43],"points_earned":304,"phase":"task","trial_type":"horizons-task","trial_index":16,"time_elapsed":270619,"internal_node_id":"0.0-12.0","task_version":"0.2"},{"response_times":[1303,464,376,344,128],"keys_pressed":["rightarrow","leftarrow","leftarrow","leftarrow","rightarrow"],"horizon":5,"forced_choices":["rightarrow","leftarrow","leftarrow","leftarrow"],"right_color":"lightblue","left_color":"orange","left_mu":40,"right_mu":32,"left_numbers":[24,35,33,37,39],"right_numbers":[40,41,34,21,36],"points_earned":181,"phase":"task","trial_type":"horizons-task","trial_index":17,"time_elapsed":274744,"internal_node_id":"0.0-13.0","task_version":"0.2"},{"response_times":[1114,577,263,120,208,111,208,96,201,103],"keys_pressed":["rightarrow","rightarrow","leftarrow","rightarrow","leftarrow","rightarrow","leftarrow","rightarrow","leftarrow","rightarrow"],"horizon":10,"forced_choices":["rightarrow","rightarrow","leftarrow","rightarrow"],"right_color":"orange","left_color":"lightblue","left_mu":40,"right_mu":52,"left_numbers":[42,48,49,48,56,48,35,28,38,42],"right_numbers":[49,52,57,62,46,66,50,58,44,49],"points_earned":514,"phase":"task","trial_type":"horizons-task","trial_index":18,"time_elapsed":279259,"internal_node_id":"0.0-14.0","task_version":"0.2"},{"response_times":[856,55,328,280,136],"keys_pressed":["rightarrow","leftarrow","rightarrow","rightarrow","leftarrow"],"horizon":5,"forced_choices":["rightarrow","leftarrow","rightarrow","rightarrow"],"right_color":"orange","left_color":"lightblue","left_mu":40,"right_mu":28,"left_numbers":[43,38,49,33,39],"right_numbers":[21,17,18,23,28],"points_earned":139,"phase":"task","trial_type":"horizons-task","trial_index":19,"time_elapsed":282419,"internal_node_id":"0.0-15.0","task_version":"0.2"},{"response_times":[862,199,256,208,41,231,22,369,32,264],"keys_pressed":["leftarrow","rightarrow","rightarrow","leftarrow","rightarrow","leftarrow","rightarrow","leftarrow","rightarrow","leftarrow"],"horizon":10,"forced_choices":["leftarrow","rightarrow","rightarrow","leftarrow"],"right_color":"lightblue","left_color":"orange","left_mu":40,"right_mu":70,"left_numbers":[45,38,39,41,43,36,41,49,43,44],"right_numbers":[71,83,72,70,71,65,53,70,56,79],"points_earned":550,"phase":"task","trial_type":"horizons-task","trial_index":20,"time_elapsed":286410,"internal_node_id":"0.0-16.0","task_version":"0.2"},{"response_times":[900,311,89,248,31,256,56,272,17,6366],"keys_pressed":["leftarrow","leftarrow","rightarrow","leftarrow","rightarrow","rightarrow","leftarrow","leftarrow","rightarrow","rightarrow"],"horizon":10,"forced_choices":["leftarrow","leftarrow","rightarrow","leftarrow"],"right_color":"orange","left_color":"lightblue","left_mu":40,"right_mu":20,"left_numbers":[37,33,39,45,54,47,45,51,45,38],"right_numbers":[12,25,22,13,17,10,33,17,18,19],"points_earned":297,"phase":"task","trial_type":"horizons-task","trial_index":21,"time_elapsed":296465,"internal_node_id":"0.0-17.0","task_version":"0.2"},{"response_times":[859,271,8,272,56,240,39,216,72,272],"keys_pressed":["rightarrow","leftarrow","rightarrow","leftarrow","rightarrow","leftarrow","rightarrow","leftarrow","rightarrow","leftarrow"],"horizon":10,"forced_choices":["rightarrow","leftarrow","rightarrow","leftarrow"],"right_color":"lightblue","left_color":"orange","left_mu":60,"right_mu":72,"left_numbers":[70,63,63,69,55,56,56,58,65,63],"right_numbers":[66,85,76,84,71,71,65,50,77,68],"points_earned":664,"phase":"task","trial_type":"horizons-task","trial_index":22,"time_elapsed":300273,"internal_node_id":"0.0-18.0","task_version":"0.2"},{"response_times":[6357,172,135,265,192,111,192,104,184,88],"keys_pressed":["rightarrow","leftarrow","rightarrow","rightarrow","leftarrow","rightarrow","leftarrow","rightarrow","leftarrow","rightarrow"],"horizon":10,"forced_choices":["rightarrow","leftarrow","rightarrow","rightarrow"],"right_color":"orange","left_color":"lightblue","left_mu":40,"right_mu":28,"left_numbers":[42,49,18,41,29,34,43,44,53,29],"right_numbers":[35,17,28,20,43,31,24,21,34,33],"points_earned":342,"phase":"task","trial_type":"horizons-task","trial_index":23,"time_elapsed":309577,"internal_node_id":"0.0-19.0","task_version":"0.2"},{"response_times":[2506,130,277,217,75,277,20,292,112,375],"keys_pressed":["leftarrow","rightarrow","rightarrow","leftarrow","rightarrow","leftarrow","rightarrow","leftarrow","rightarrow","leftarrow"],"horizon":10,"forced_choices":["leftarrow","rightarrow","rightarrow","leftarrow"],"right_color":"lightblue","left_color":"orange","left_mu":40,"right_mu":32,"left_numbers":[37,41,45,41,42,47,23,19,36,49],"right_numbers":[39,32,36,27,20,41,4,24,30,24],"points_earned":315,"phase":"task","trial_type":"horizons-task","trial_index":24,"time_elapsed":315372,"internal_node_id":"0.0-20.0","task_version":"0.2"},{"response_times":[4729,312,357,200,178],"keys_pressed":["rightarrow","rightarrow","leftarrow","rightarrow","leftarrow"],"horizon":5,"forced_choices":["rightarrow","rightarrow","leftarrow","rightarrow"],"right_color":"orange","left_color":"lightblue","left_mu":40,"right_mu":52,"left_numbers":[51,38,44,44,49],"right_numbers":[44,48,53,59,39],"points_earned":244,"phase":"task","trial_type":"horizons-task","trial_index":25,"time_elapsed":322650,"internal_node_id":"0.0-21.0","task_version":"0.2"},{"response_times":[34553,281,142,88,144],"keys_pressed":["rightarrow","rightarrow","leftarrow","rightarrow","leftarrow"],"horizon":5,"forced_choices":["rightarrow","rightarrow","leftarrow","rightarrow"],"right_color":"lightblue","left_color":"orange","left_mu":60,"right_mu":48,"left_numbers":[63,48,59,55,64],"right_numbers":[55,49,42,65,48],"points_earned":292,"phase":"task","trial_type":"horizons-task","trial_index":26,"time_elapsed":359370,"internal_node_id":"0.0-22.0","task_version":"0.2"},{"response_times":[1207,38,224,192,72],"keys_pressed":["leftarrow","rightarrow","rightarrow","rightarrow","leftarrow"],"horizon":5,"forced_choices":["leftarrow","rightarrow","rightarrow","rightarrow"],"right_color":"orange","left_color":"lightblue","left_mu":60,"right_mu":40,"left_numbers":[53,56,56,53,63],"right_numbers":[43,29,39,48,39],"points_earned":232,"phase":"task","trial_type":"horizons-task","trial_index":27,"time_elapsed":362621,"internal_node_id":"0.0-23.0","task_version":"0.2"},{"response_times":[869,263,304,129,177],"keys_pressed":["leftarrow","leftarrow","leftarrow","rightarrow","leftarrow"],"horizon":5,"forced_choices":["leftarrow","leftarrow","leftarrow","rightarrow"],"right_color":"lightblue","left_color":"orange","left_mu":60,"right_mu":80,"left_numbers":[62,52,57,51,63],"right_numbers":[76,72,87,71,73],"points_earned":305,"phase":"task","trial_type":"horizons-task","trial_index":28,"time_elapsed":365877,"internal_node_id":"0.0-24.0","task_version":"0.2"},{"response_times":[620,216,223,152,57],"keys_pressed":["leftarrow","rightarrow","rightarrow","leftarrow","rightarrow"],"horizon":5,"forced_choices":["leftarrow","rightarrow","rightarrow","leftarrow"],"right_color":"lightblue","left_color":"orange","left_mu":40,"right_mu":70,"left_numbers":[52,47,32,32,44],"right_numbers":[80,72,58,84,76],"points_earned":290,"phase":"task","trial_type":"horizons-task","trial_index":29,"time_elapsed":368662,"internal_node_id":"0.0-25.0","task_version":"0.2"},{"response_times":[594,239,25,216,32],"keys_pressed":["rightarrow","leftarrow","rightarrow","rightarrow","leftarrow"],"horizon":5,"forced_choices":["rightarrow","leftarrow","rightarrow","rightarrow"],"right_color":"lightblue","left_color":"orange","left_mu":40,"right_mu":10,"left_numbers":[46,43,49,42,37],"right_numbers":[14,13,7,13,23],"points_earned":114,"phase":"task","trial_type":"horizons-task","trial_index":30,"time_elapsed":371274,"internal_node_id":"0.0-26.0","task_version":"0.2"},{"response_times":[656,296,80,208,833],"keys_pressed":["leftarrow","leftarrow","rightarrow","rightarrow","rightarrow"],"horizon":5,"forced_choices":["leftarrow","leftarrow","rightarrow","rightarrow"],"right_color":"lightblue","left_color":"orange","left_mu":60,"right_mu":52,"left_numbers":[52,55,69,63,44],"right_numbers":[49,50,49,51,60],"points_earned":267,"phase":"task","trial_type":"horizons-task","trial_index":31,"time_elapsed":374855,"internal_node_id":"0.0-27.0","task_version":"0.2"},{"response_times":[731,264,33,477,56],"keys_pressed":["rightarrow","leftarrow","rightarrow","leftarrow","rightarrow"],"horizon":5,"forced_choices":["rightarrow","leftarrow","rightarrow","leftarrow"],"right_color":"lightblue","left_color":"orange","left_mu":60,"right_mu":72,"left_numbers":[61,66,61,51,66],"right_numbers":[77,68,87,79,71],"points_earned":352,"phase":"task","trial_type":"horizons-task","trial_index":32,"time_elapsed":377924,"internal_node_id":"0.0-28.0","task_version":"0.2"},{"response_times":[618,336,64,222,7],"keys_pressed":["leftarrow","leftarrow","rightarrow","leftarrow","rightarrow"],"horizon":5,"forced_choices":["leftarrow","leftarrow","rightarrow","leftarrow"],"right_color":"orange","left_color":"lightblue","left_mu":60,"right_mu":64,"left_numbers":[60,58,50,55,66],"right_numbers":[77,66,66,66,48],"points_earned":287,"phase":"task","trial_type":"horizons-task","trial_index":33,"time_elapsed":380696,"internal_node_id":"0.0-29.0","task_version":"0.2"},{"response_times":[416,291,228,216,96],"keys_pressed":["rightarrow","rightarrow","rightarrow","leftarrow","rightarrow"],"horizon":5,"forced_choices":["rightarrow","rightarrow","rightarrow","leftarrow"],"right_color":"lightblue","left_color":"orange","left_mu":60,"right_mu":52,"left_numbers":[61,49,58,58,80],"right_numbers":[49,31,52,46,46],"points_earned":236,"phase":"task","trial_type":"horizons-task","trial_index":34,"time_elapsed":383456,"internal_node_id":"0.0-30.0","task_version":"0.2"},{"response_times":[658,199,432,241,104,152,127,121,177,63],"keys_pressed":["rightarrow","leftarrow","leftarrow","rightarrow","leftarrow","rightarrow","leftarrow","rightarrow","leftarrow","rightarrow"],"horizon":10,"forced_choices":["rightarrow","leftarrow","leftarrow","rightarrow"],"right_color":"lightblue","left_color":"orange","left_mu":60,"right_mu":68,"left_numbers":[81,70,70,62,53,67,63,53,64,57],"right_numbers":[71,79,67,68,82,64,71,60,71,69],"points_earned":652,"phase":"task","trial_type":"horizons-task","trial_index":35,"time_elapsed":387238,"internal_node_id":"0.0-31.0","task_version":"0.2"},{"response_times":[717,344,320,168,896],"keys_pressed":["leftarrow","leftarrow","leftarrow","rightarrow","rightarrow"],"horizon":5,"forced_choices":["leftarrow","leftarrow","leftarrow","rightarrow"],"right_color":"orange","left_color":"lightblue","left_mu":60,"right_mu":56,"left_numbers":[59,56,65,61,61],"right_numbers":[51,55,42,40,71],"points_earned":291,"phase":"task","trial_type":"horizons-task","trial_index":36,"time_elapsed":391199,"internal_node_id":"0.0-32.0","task_version":"0.2"},{"response_times":[682,216,79,208,64],"keys_pressed":["rightarrow","leftarrow","rightarrow","leftarrow","rightarrow"],"horizon":5,"forced_choices":["rightarrow","leftarrow","rightarrow","leftarrow"],"right_color":"orange","left_color":"lightblue","left_mu":40,"right_mu":60,"left_numbers":[49,31,41,25,33],"right_numbers":[70,52,66,67,53],"points_earned":245,"phase":"task","trial_type":"horizons-task","trial_index":37,"time_elapsed":393962,"internal_node_id":"0.0-33.0","task_version":"0.2"},{"response_times":[481,271,74,183,95],"keys_pressed":["leftarrow","leftarrow","rightarrow","leftarrow","rightarrow"],"horizon":5,"forced_choices":["leftarrow","leftarrow","rightarrow","leftarrow"],"right_color":"lightblue","left_color":"orange","left_mu":40,"right_mu":48,"left_numbers":[35,38,48,31,35],"right_numbers":[56,51,48,57,53],"points_earned":205,"phase":"task","trial_type":"horizons-task","trial_index":38,"time_elapsed":396568,"internal_node_id":"0.0-34.0","task_version":"0.2"},{"response_times":[594,318,225,439,55,240,256,11,198,166],"keys_pressed":["rightarrow","rightarrow","leftarrow","leftarrow","rightarrow","rightarrow","leftarrow","rightarrow","rightarrow","leftarrow"],"horizon":10,"forced_choices":["rightarrow","rightarrow","leftarrow","leftarrow"],"right_color":"lightblue","left_color":"orange","left_mu":60,"right_mu":48,"left_numbers":[63,62,55,56,59,62,62,61,51,56],"right_numbers":[37,57,60,65,47,54,56,47,58,35],"points_earned":529,"phase":"task","trial_type":"horizons-task","trial_index":39,"time_elapsed":400581,"internal_node_id":"0.0-35.0","task_version":"0.2"},{"response_times":[662,168,143,256,161],"keys_pressed":["leftarrow","rightarrow","leftarrow","leftarrow","rightarrow"],"horizon":5,"forced_choices":["leftarrow","rightarrow","leftarrow","leftarrow"],"right_color":"lightblue","left_color":"orange","left_mu":60,"right_mu":90,"left_numbers":[41,68,49,53,50],"right_numbers":[96,97,84,67,87],"points_earned":327,"phase":"task","trial_type":"horizons-task","trial_index":40,"time_elapsed":403479,"internal_node_id":"0.0-36.0","task_version":"0.2"},{"response_times":[580,112,184,103,167,115,118,150,113,487],"keys_pressed":["rightarrow","leftarrow","rightarrow","leftarrow","rightarrow","leftarrow","rightarrow","leftarrow","rightarrow","leftarrow"],"horizon":10,"forced_choices":["rightarrow","leftarrow","rightarrow","leftarrow"],"right_color":"orange","left_color":"lightblue","left_mu":40,"right_mu":60,"left_numbers":[48,39,32,39,46,41,32,52,46,34],"right_numbers":[56,61,54,53,62,64,58,69,60,54],"points_earned":495,"phase":"task","trial_type":"horizons-task","trial_index":41,"time_elapsed":407115,"internal_node_id":"0.0-37.0","task_version":"0.2"},{"response_times":[695,160,258,260,137],"keys_pressed":["leftarrow","rightarrow","rightarrow","rightarrow","leftarrow"],"horizon":5,"forced_choices":["leftarrow","rightarrow","rightarrow","rightarrow"],"right_color":"orange","left_color":"lightblue","left_mu":40,"right_mu":36,"left_numbers":[39,34,48,47,40],"right_numbers":[52,31,28,25,35],"points_earned":163,"phase":"task","trial_type":"horizons-task","trial_index":42,"time_elapsed":410135,"internal_node_id":"0.0-38.0","task_version":"0.2"},{"response_times":[789,263,89,231,199],"keys_pressed":["rightarrow","rightarrow","leftarrow","leftarrow","rightarrow"],"horizon":5,"forced_choices":["rightarrow","rightarrow","leftarrow","leftarrow"],"right_color":"lightblue","left_color":"orange","left_mu":40,"right_mu":48,"left_numbers":[46,46,47,35,40],"right_numbers":[48,51,35,51,40],"points_earned":221,"phase":"task","trial_type":"horizons-task","trial_index":43,"time_elapsed":413219,"internal_node_id":"0.0-39.0","task_version":"0.2"},{"response_times":[873,224,48,176,23],"keys_pressed":["leftarrow","rightarrow","leftarrow","rightarrow","leftarrow"],"horizon":5,"forced_choices":["leftarrow","rightarrow","leftarrow","rightarrow"],"right_color":"orange","left_color":"lightblue","left_mu":40,"right_mu":44,"left_numbers":[40,59,28,39,34],"right_numbers":[58,49,41,51,46],"points_earned":202,"phase":"task","trial_type":"horizons-task","trial_index":44,"time_elapsed":416088,"internal_node_id":"0.0-40.0","task_version":"0.2"},{"response_times":[531,127,306,126,119,88,177,71,160,47],"keys_pressed":["rightarrow","leftarrow","leftarrow","rightarrow","leftarrow","rightarrow","leftarrow","rightarrow","leftarrow","rightarrow"],"horizon":10,"forced_choices":["rightarrow","leftarrow","leftarrow","rightarrow"],"right_color":"orange","left_color":"lightblue","left_mu":60,"right_mu":40,"left_numbers":[72,50,62,73,70,60,64,54,47,64],"right_numbers":[30,46,32,38,29,32,38,29,33,34],"points_earned":456,"phase":"task","trial_type":"horizons-task","trial_index":45,"time_elapsed":419354,"internal_node_id":"0.0-41.0","task_version":"0.2"},{"response_times":[801,176,224,111,104],"keys_pressed":["rightarrow","leftarrow","leftarrow","rightarrow","leftarrow"],"horizon":5,"forced_choices":["rightarrow","leftarrow","leftarrow","rightarrow"],"right_color":"orange","left_color":"lightblue","left_mu":40,"right_mu":36,"left_numbers":[52,37,38,42,22],"right_numbers":[28,59,40,35,44],"points_earned":160,"phase":"task","trial_type":"horizons-task","trial_index":46,"time_elapsed":422279,"internal_node_id":"0.0-42.0","task_version":"0.2"},{"response_times":[474,225,42,205,17],"keys_pressed":["leftarrow","leftarrow","rightarrow","rightarrow","leftarrow"],"horizon":5,"forced_choices":["leftarrow","leftarrow","rightarrow","rightarrow"],"right_color":"lightblue","left_color":"orange","left_mu":40,"right_mu":10,"left_numbers":[47,30,39,37,38],"right_numbers":[10,20,7,6,9],"points_earned":128,"phase":"task","trial_type":"horizons-task","trial_index":47,"time_elapsed":424757,"internal_node_id":"0.0-43.0","task_version":"0.2"},{"response_times":[678,47,339,108,176,56,167,47,240,120],"keys_pressed":["rightarrow","leftarrow","leftarrow","rightarrow","leftarrow","rightarrow","leftarrow","rightarrow","leftarrow","rightarrow"],"horizon":10,"forced_choices":["rightarrow","leftarrow","leftarrow","rightarrow"],"right_color":"orange","left_color":"lightblue","left_mu":40,"right_mu":36,"left_numbers":[41,40,48,60,43,46,32,51,41,41],"right_numbers":[44,31,51,25,39,37,23,32,39,41],"points_earned":383,"phase":"task","trial_type":"horizons-task","trial_index":48,"time_elapsed":428246,"internal_node_id":"0.0-44.0","task_version":"0.2"},{"response_times":[462,64,207,36,212],"keys_pressed":["leftarrow","rightarrow","leftarrow","rightarrow","leftarrow"],"horizon":5,"forced_choices":["leftarrow","rightarrow","leftarrow","rightarrow"],"right_color":"orange","left_color":"lightblue","left_mu":40,"right_mu":52,"left_numbers":[41,36,48,27,46],"right_numbers":[46,47,57,60,52],"points_earned":242,"phase":"task","trial_type":"horizons-task","trial_index":49,"time_elapsed":430731,"internal_node_id":"0.0-45.0","task_version":"0.2"},{"response_times":[358,47,209,246,89,168,31,200,119,128],"keys_pressed":["rightarrow","leftarrow","rightarrow","rightarrow","leftarrow","rightarrow","leftarrow","rightarrow","leftarrow","rightarrow"],"horizon":10,"forced_choices":["rightarrow","leftarrow","rightarrow","rightarrow"],"right_color":"lightblue","left_color":"orange","left_mu":40,"right_mu":10,"left_numbers":[45,27,45,34,29,35,35,32,28,45],"right_numbers":[4,8,8,12,16,3,1,18,15,9],"points_earned":173,"phase":"task","trial_type":"horizons-task","trial_index":50,"time_elapsed":433843,"internal_node_id":"0.0-46.0","task_version":"0.2"},{"view_history":"[{\"page_index\":0,\"viewing_time\":6446},{\"page_index\":1,\"viewing_time\":4497}]","rt":10943,"trial_type":"instructions","trial_index":51,"time_elapsed":444788,"internal_node_id":"0.0-47.0","task_version":"0.2"},{"response_times":[1409,111,240,216,185],"keys_pressed":["leftarrow","rightarrow","rightarrow","rightarrow","leftarrow"],"horizon":5,"forced_choices":["leftarrow","rightarrow","rightarrow","rightarrow"],"right_color":"lightblue","left_color":"orange","left_mu":60,"right_mu":72,"left_numbers":[55,56,42,63,63],"right_numbers":[74,80,83,75,73],"points_earned":356,"phase":"task","trial_type":"horizons-task","trial_index":52,"time_elapsed":448469,"internal_node_id":"0.0-48.0","task_version":"0.2"},{"response_times":[564,160,103,217,183,16,176,56,200,33],"keys_pressed":["leftarrow","rightarrow","leftarrow","leftarrow","leftarrow","rightarrow","leftarrow","rightarrow","leftarrow","rightarrow"],"horizon":10,"forced_choices":["leftarrow","rightarrow","leftarrow","leftarrow"],"right_color":"lightblue","left_color":"orange","left_mu":60,"right_mu":90,"left_numbers":[56,42,55,63,46,72,70,68,61,61],"right_numbers":[96,82,96,93,80,85,102,106,84,89],"points_earned":713,"phase":"task","trial_type":"horizons-task","trial_index":53,"time_elapsed":451684,"internal_node_id":"0.0-49.0","task_version":"0.2"},{"response_times":[447,224,55,208,262,8,231,6,224,33],"keys_pressed":["leftarrow","leftarrow","rightarrow","rightarrow","leftarrow","rightarrow","leftarrow","rightarrow","leftarrow","rightarrow"],"horizon":10,"forced_choices":["leftarrow","leftarrow","rightarrow","rightarrow"],"right_color":"lightblue","left_color":"orange","left_mu":40,"right_mu":10,"left_numbers":[45,28,38,37,45,37,41,35,54,38],"right_numbers":[21,5,7,19,6,19,20,1,18,13],"points_earned":272,"phase":"task","trial_type":"horizons-task","trial_index":54,"time_elapsed":454903,"internal_node_id":"0.0-50.0","task_version":"0.2"},{"response_times":[588,183,258,94,144],"keys_pressed":["leftarrow","rightarrow","rightarrow","leftarrow","rightarrow"],"horizon":5,"forced_choices":["leftarrow","rightarrow","rightarrow","leftarrow"],"right_color":"lightblue","left_color":"orange","left_mu":60,"right_mu":80,"left_numbers":[62,78,60,61,48],"right_numbers":[56,76,78,86,88],"points_earned":365,"phase":"task","trial_type":"horizons-task","trial_index":55,"time_elapsed":457678,"internal_node_id":"0.0-51.0","task_version":"0.2"},{"response_times":[500,241,183,216,89],"keys_pressed":["rightarrow","leftarrow","leftarrow","leftarrow","rightarrow"],"horizon":5,"forced_choices":["rightarrow","leftarrow","leftarrow","leftarrow"],"right_color":"lightblue","left_color":"orange","left_mu":60,"right_mu":68,"left_numbers":[59,61,55,53,56],"right_numbers":[73,63,65,78,78],"points_earned":320,"phase":"task","trial_type":"horizons-task","trial_index":56,"time_elapsed":460419,"internal_node_id":"0.0-52.0","task_version":"0.2"},{"response_times":[598,272,135,190,122,64,168,57,200,23],"keys_pressed":["rightarrow","rightarrow","leftarrow","leftarrow","rightarrow","leftarrow","rightarrow","leftarrow","rightarrow","leftarrow"],"horizon":10,"forced_choices":["rightarrow","rightarrow","leftarrow","leftarrow"],"right_color":"orange","left_color":"lightblue","left_mu":60,"right_mu":64,"left_numbers":[59,65,52,64,65,61,66,46,53,62],"right_numbers":[66,56,56,49,61,76,49,60,62,72],"points_earned":579,"phase":"task","trial_type":"horizons-task","trial_index":57,"time_elapsed":463753,"internal_node_id":"0.0-53.0","task_version":"0.2"},{"response_times":[711,283,231,240,17,247,8,231,18,239],"keys_pressed":["rightarrow","leftarrow","leftarrow","leftarrow","rightarrow","leftarrow","rightarrow","rightarrow","leftarrow","rightarrow"],"horizon":10,"forced_choices":["rightarrow","leftarrow","leftarrow","leftarrow"],"right_color":"lightblue","left_color":"orange","left_mu":40,"right_mu":70,"left_numbers":[41,30,33,32,44,31,30,52,32,42],"right_numbers":[74,72,72,67,76,64,69,72,68,70],"points_earned":519,"phase":"task","trial_type":"horizons-task","trial_index":58,"time_elapsed":467485,"internal_node_id":"0.0-54.0","task_version":"0.2"},{"response_times":[638,367,96,232,135,112,88,168,241,19],"keys_pressed":["leftarrow","leftarrow","rightarrow","rightarrow","leftarrow","rightarrow","leftarrow","rightarrow","leftarrow","rightarrow"],"horizon":10,"forced_choices":["leftarrow","leftarrow","rightarrow","rightarrow"],"right_color":"lightblue","left_color":"orange","left_mu":60,"right_mu":52,"left_numbers":[57,54,52,51,52,52,51,57,45,78],"right_numbers":[48,57,64,32,32,38,59,59,56,55],"points_earned":507,"phase":"task","trial_type":"horizons-task","trial_index":59,"time_elapsed":471093,"internal_node_id":"0.0-55.0","task_version":"0.2"},{"response_times":[431,280,32,215,192,40,160,95,72,160],"keys_pressed":["leftarrow","leftarrow","rightarrow","rightarrow","leftarrow","rightarrow","leftarrow","rightarrow","leftarrow","rightarrow"],"horizon":10,"forced_choices":["leftarrow","leftarrow","rightarrow","rightarrow"],"right_color":"orange","left_color":"lightblue","left_mu":60,"right_mu":56,"left_numbers":[43,38,55,66,50,70,52,51,57,72],"right_numbers":[58,58,61,61,55,45,49,46,63,64],"points_earned":517,"phase":"task","trial_type":"horizons-task","trial_index":60,"time_elapsed":474290,"internal_node_id":"0.0-56.0","task_version":"0.2"},{"response_times":[408,218,248,47,198,23,216,7,216,8],"keys_pressed":["leftarrow","leftarrow","leftarrow","rightarrow","leftarrow","rightarrow","rightarrow","leftarrow","rightarrow","leftarrow"],"horizon":10,"forced_choices":["leftarrow","leftarrow","leftarrow","rightarrow"],"right_color":"orange","left_color":"lightblue","left_mu":60,"right_mu":56,"left_numbers":[63,61,47,77,59,56,52,71,58,47],"right_numbers":[48,48,51,51,45,65,60,59,54,52],"points_earned":578,"phase":"task","trial_type":"horizons-task","trial_index":61,"time_elapsed":477397,"internal_node_id":"0.0-57.0","task_version":"0.2"},{"response_times":[493,289,238,37,212,19,228,7,232,40],"keys_pressed":["leftarrow","leftarrow","leftarrow","rightarrow","leftarrow","rightarrow","rightarrow","leftarrow","rightarrow","leftarrow"],"horizon":10,"forced_choices":["leftarrow","leftarrow","leftarrow","rightarrow"],"right_color":"lightblue","left_color":"orange","left_mu":60,"right_mu":80,"left_numbers":[56,57,61,54,63,57,55,53,56,52],"right_numbers":[88,81,84,81,80,92,89,96,79,72],"points_earned":683,"phase":"task","trial_type":"horizons-task","trial_index":62,"time_elapsed":480704,"internal_node_id":"0.0-58.0","task_version":"0.2"},{"response_times":[610,247,43,262,183,73,240,15,223,18],"keys_pressed":["leftarrow","rightarrow","leftarrow","rightarrow","leftarrow","rightarrow","leftarrow","rightarrow","leftarrow","rightarrow"],"horizon":10,"forced_choices":["leftarrow","rightarrow","leftarrow","rightarrow"],"right_color":"orange","left_color":"lightblue","left_mu":40,"right_mu":52,"left_numbers":[44,38,41,26,44,44,27,41,28,44],"right_numbers":[60,42,47,46,51,56,52,58,44,47],"points_earned":433,"phase":"task","trial_type":"horizons-task","trial_index":63,"time_elapsed":484124,"internal_node_id":"0.0-59.0","task_version":"0.2"},{"response_times":[358,168,264,127,112,80,168,35,149,56],"keys_pressed":["leftarrow","rightarrow","rightarrow","leftarrow","rightarrow","leftarrow","rightarrow","leftarrow","leftarrow","rightarrow"],"horizon":10,"forced_choices":["leftarrow","rightarrow","rightarrow","leftarrow"],"right_color":"lightblue","left_color":"orange","left_mu":60,"right_mu":80,"left_numbers":[53,58,54,61,69,61,63,60,55,56],"right_numbers":[87,81,73,89,83,76,93,94,85,84],"points_earned":704,"phase":"task","trial_type":"horizons-task","trial_index":64,"time_elapsed":487145,"internal_node_id":"0.0-60.0","task_version":"0.2"},{"response_times":[520,216,255,234,15,237,207,72,168,55],"keys_pressed":["rightarrow","leftarrow","leftarrow","leftarrow","rightarrow","rightarrow","leftarrow","rightarrow","leftarrow","rightarrow"],"horizon":10,"forced_choices":["rightarrow","leftarrow","leftarrow","leftarrow"],"right_color":"lightblue","left_color":"orange","left_mu":60,"right_mu":68,"left_numbers":[55,58,58,58,76,60,43,57,68,41],"right_numbers":[86,66,76,64,69,69,70,69,79,74],"points_earned":652,"phase":"task","trial_type":"horizons-task","trial_index":65,"time_elapsed":490643,"internal_node_id":"0.0-61.0","task_version":"0.2"},{"response_times":[462,335,33,231,192,8,216,41,199,48],"keys_pressed":["leftarrow","leftarrow","rightarrow","leftarrow","leftarrow","rightarrow","rightarrow","leftarrow","rightarrow","leftarrow"],"horizon":10,"forced_choices":["leftarrow","leftarrow","rightarrow","leftarrow"],"right_color":"orange","left_color":"lightblue","left_mu":60,"right_mu":64,"left_numbers":[64,60,68,63,72,51,53,63,71,54],"right_numbers":[87,73,56,59,59,50,64,55,64,43],"points_earned":610,"phase":"task","trial_type":"horizons-task","trial_index":66,"time_elapsed":493914,"internal_node_id":"0.0-62.0","task_version":"0.2"},{"response_times":[393,167,473,167,177],"keys_pressed":["rightarrow","leftarrow","leftarrow","rightarrow","leftarrow"],"horizon":5,"forced_choices":["rightarrow","leftarrow","leftarrow","rightarrow"],"right_color":"orange","left_color":"lightblue","left_mu":60,"right_mu":40,"left_numbers":[59,51,70,57,60],"right_numbers":[44,33,44,49,37],"points_earned":274,"phase":"task","trial_type":"horizons-task","trial_index":67,"time_elapsed":496804,"internal_node_id":"0.0-63.0","task_version":"0.2"},{"response_times":[415,21,377,178,127,128,168,73,193,38],"keys_pressed":["leftarrow","rightarrow","leftarrow","rightarrow","leftarrow","rightarrow","leftarrow","rightarrow","leftarrow","rightarrow"],"horizon":10,"forced_choices":["leftarrow","rightarrow","leftarrow","rightarrow"],"right_color":"orange","left_color":"lightblue","left_mu":40,"right_mu":44,"left_numbers":[50,48,48,44,54,45,45,55,39,49],"right_numbers":[50,38,33,37,49,47,28,35,46,26],"points_earned":419,"phase":"task","trial_type":"horizons-task","trial_index":68,"time_elapsed":500042,"internal_node_id":"0.0-64.0","task_version":"0.2"},{"response_times":[422,200,57,160,48],"keys_pressed":["leftarrow","rightarrow","leftarrow","rightarrow","leftarrow"],"horizon":5,"forced_choices":["leftarrow","rightarrow","leftarrow","rightarrow"],"right_color":"lightblue","left_color":"orange","left_mu":60,"right_mu":90,"left_numbers":[49,65,60,55,43],"right_numbers":[84,87,88,91,93],"points_earned":330,"phase":"task","trial_type":"horizons-task","trial_index":69,"time_elapsed":502434,"internal_node_id":"0.0-65.0","task_version":"0.2"},{"response_times":[416,208,225,46,169],"keys_pressed":["leftarrow","rightarrow","rightarrow","leftarrow","rightarrow"],"horizon":5,"forced_choices":["leftarrow","rightarrow","rightarrow","leftarrow"],"right_color":"lightblue","left_color":"orange","left_mu":40,"right_mu":32,"left_numbers":[45,46,29,43,46],"right_numbers":[41,39,40,22,31],"points_earned":198,"phase":"task","trial_type":"horizons-task","trial_index":70,"time_elapsed":505002,"internal_node_id":"0.0-66.0","task_version":"0.2"},{"response_times":[503,456,34,190,7],"keys_pressed":["rightarrow","rightarrow","leftarrow","leftarrow","rightarrow"],"horizon":5,"forced_choices":["rightarrow","rightarrow","leftarrow","leftarrow"],"right_color":"lightblue","left_color":"orange","left_mu":60,"right_mu":48,"left_numbers":[46,66,58,63,61],"right_numbers":[46,41,49,48,47],"points_earned":255,"phase":"task","trial_type":"horizons-task","trial_index":71,"time_elapsed":507710,"internal_node_id":"0.0-67.0","task_version":"0.2"},{"response_times":[404,248,64,176,199],"keys_pressed":["rightarrow","rightarrow","leftarrow","leftarrow","rightarrow"],"horizon":5,"forced_choices":["rightarrow","rightarrow","leftarrow","leftarrow"],"right_color":"orange","left_color":"lightblue","left_mu":60,"right_mu":64,"left_numbers":[40,57,64,66,62],"right_numbers":[75,74,70,64,58],"points_earned":337,"phase":"task","trial_type":"horizons-task","trial_index":72,"time_elapsed":510311,"internal_node_id":"0.0-68.0","task_version":"0.2"},{"response_times":[634,224,440,8,225,224,19,221,39,184],"keys_pressed":["rightarrow","rightarrow","leftarrow","rightarrow","rightarrow","leftarrow","rightarrow","rightarrow","leftarrow","rightarrow"],"horizon":10,"forced_choices":["rightarrow","rightarrow","leftarrow","rightarrow"],"right_color":"lightblue","left_color":"orange","left_mu":60,"right_mu":48,"left_numbers":[48,67,74,47,61,62,65,55,59,61],"right_numbers":[32,48,40,53,48,56,57,51,43,66],"points_earned":550,"phase":"task","trial_type":"horizons-task","trial_index":73,"time_elapsed":514042,"internal_node_id":"0.0-69.0","task_version":"0.2"},{"response_times":[424,40,223,224,95,128,81,127,29,178],"keys_pressed":["leftarrow","rightarrow","rightarrow","rightarrow","leftarrow","rightarrow","leftarrow","rightarrow","leftarrow","leftarrow"],"horizon":10,"forced_choices":["leftarrow","rightarrow","rightarrow","rightarrow"],"right_color":"orange","left_color":"lightblue","left_mu":60,"right_mu":40,"left_numbers":[58,57,47,52,67,57,59,54,60,46],"right_numbers":[37,31,39,28,44,44,54,44,48,54],"points_earned":476,"phase":"task","trial_type":"horizons-task","trial_index":74,"time_elapsed":517098,"internal_node_id":"0.0-70.0","task_version":"0.2"},{"response_times":[568,120,200,32,176,40,160,56,208,19],"keys_pressed":["leftarrow","rightarrow","leftarrow","rightarrow","leftarrow","rightarrow","leftarrow","rightarrow","rightarrow","leftarrow"],"horizon":10,"forced_choices":["leftarrow","rightarrow","leftarrow","rightarrow"],"right_color":"orange","left_color":"lightblue","left_mu":40,"right_mu":20,"left_numbers":[35,33,40,36,38,39,49,53,55,44],"right_numbers":[8,21,9,15,14,22,10,21,9,7],"points_earned":294,"phase":"task","trial_type":"horizons-task","trial_index":75,"time_elapsed":520183,"internal_node_id":"0.0-71.0","task_version":"0.2"},{"response_times":[518,152,16,216,175,16,161,23,192,223],"keys_pressed":["leftarrow","rightarrow","leftarrow","leftarrow","rightarrow","leftarrow","leftarrow","rightarrow","rightarrow","leftarrow"],"horizon":10,"forced_choices":["leftarrow","rightarrow","leftarrow","leftarrow"],"right_color":"orange","left_color":"lightblue","left_mu":40,"right_mu":60,"left_numbers":[39,39,38,40,42,51,37,46,48,43],"right_numbers":[67,65,51,60,56,56,57,63,65,62],"points_earned":497,"phase":"task","trial_type":"horizons-task","trial_index":76,"time_elapsed":523395,"internal_node_id":"0.0-72.0","task_version":"0.2"},{"response_times":[503,8,233,191,199,216,8,209,66,151],"keys_pressed":["leftarrow","rightarrow","leftarrow","rightarrow","rightarrow","rightarrow","leftarrow","rightarrow","leftarrow","rightarrow"],"horizon":10,"forced_choices":["leftarrow","rightarrow","leftarrow","rightarrow"],"right_color":"lightblue","left_color":"orange","left_mu":60,"right_mu":90,"left_numbers":[57,59,51,47,60,49,54,63,57,51],"right_numbers":[99,88,83,81,93,90,104,93,103,84],"points_earned":748,"phase":"task","trial_type":"horizons-task","trial_index":77,"time_elapsed":526692,"internal_node_id":"0.0-73.0","task_version":"0.2"},{"response_times":[406,208,231,217,776],"keys_pressed":["rightarrow","leftarrow","leftarrow","rightarrow","rightarrow"],"horizon":5,"forced_choices":["rightarrow","leftarrow","leftarrow","rightarrow"],"right_color":"lightblue","left_color":"orange","left_mu":60,"right_mu":68,"left_numbers":[61,59,54,51,64],"right_numbers":[64,70,67,68,71],"points_earned":316,"phase":"task","trial_type":"horizons-task","trial_index":78,"time_elapsed":530038,"internal_node_id":"0.0-74.0","task_version":"0.2"},{"response_times":[461,206,232,224,193,13,155,80,135,73],"keys_pressed":["leftarrow","rightarrow","rightarrow","rightarrow","leftarrow","rightarrow","leftarrow","rightarrow","leftarrow","rightarrow"],"horizon":10,"forced_choices":["leftarrow","rightarrow","rightarrow","rightarrow"],"right_color":"lightblue","left_color":"orange","left_mu":60,"right_mu":72,"left_numbers":[59,62,52,61,61,60,63,64,75,52],"right_numbers":[72,60,77,63,77,71,60,65,91,53],"points_earned":647,"phase":"task","trial_type":"horizons-task","trial_index":79,"time_elapsed":533323,"internal_node_id":"0.0-75.0","task_version":"0.2"},{"response_times":[464,232,201,175,31,145,39,144,64,584],"keys_pressed":["leftarrow","leftarrow","rightarrow","leftarrow","rightarrow","leftarrow","rightarrow","leftarrow","rightarrow","leftarrow"],"horizon":10,"forced_choices":["leftarrow","leftarrow","rightarrow","leftarrow"],"right_color":"lightblue","left_color":"orange","left_mu":40,"right_mu":48,"left_numbers":[26,36,34,51,54,23,45,33,43,37],"right_numbers":[47,49,31,45,44,46,55,47,41,51],"points_earned":377,"phase":"task","trial_type":"horizons-task","trial_index":80,"time_elapsed":536909,"internal_node_id":"0.0-76.0","task_version":"0.2"},{"response_times":[406,8,184,56,216],"keys_pressed":["leftarrow","rightarrow","leftarrow","rightarrow","rightarrow"],"horizon":5,"forced_choices":["leftarrow","rightarrow","leftarrow","rightarrow"],"right_color":"orange","left_color":"lightblue","left_mu":40,"right_mu":20,"left_numbers":[43,33,42,43,47],"right_numbers":[41,34,25,12,19],"points_earned":150,"phase":"task","trial_type":"horizons-task","trial_index":81,"time_elapsed":539288,"internal_node_id":"0.0-77.0","task_version":"0.2"},{"response_times":[410,8,216,8,208],"keys_pressed":["rightarrow","leftarrow","rightarrow","leftarrow","leftarrow"],"horizon":5,"forced_choices":["rightarrow","leftarrow","rightarrow","leftarrow"],"right_color":"orange","left_color":"lightblue","left_mu":60,"right_mu":30,"left_numbers":[60,55,71,72,48],"right_numbers":[34,30,32,20,20],"points_earned":241,"phase":"task","trial_type":"horizons-task","trial_index":82,"time_elapsed":541643,"internal_node_id":"0.0-78.0","task_version":"0.2"},{"response_times":[397,10,198,32,215],"keys_pressed":["rightarrow","leftarrow","leftarrow","rightarrow","leftarrow"],"horizon":5,"forced_choices":["rightarrow","leftarrow","leftarrow","rightarrow"],"right_color":"orange","left_color":"lightblue","left_mu":40,"right_mu":28,"left_numbers":[47,39,39,42,32],"right_numbers":[27,24,43,18,30],"points_earned":155,"phase":"task","trial_type":"horizons-task","trial_index":83,"time_elapsed":544003,"internal_node_id":"0.0-79.0","task_version":"0.2"},{"response_times":[408,223,241,175,33,199,16,152,104,88],"keys_pressed":["rightarrow","rightarrow","rightarrow","leftarrow","rightarrow","leftarrow","rightarrow","leftarrow","rightarrow","leftarrow"],"horizon":10,"forced_choices":["rightarrow","rightarrow","rightarrow","leftarrow"],"right_color":"lightblue","left_color":"orange","left_mu":60,"right_mu":52,"left_numbers":[56,56,56,65,76,57,75,56,62,57],"right_numbers":[46,46,52,54,51,64,59,51,71,57],"points_earned":560,"phase":"task","trial_type":"horizons-task","trial_index":84,"time_elapsed":547161,"internal_node_id":"0.0-80.0","task_version":"0.2"},{"response_times":[642,175,265,230,112],"keys_pressed":["rightarrow","leftarrow","leftarrow","leftarrow","rightarrow"],"horizon":5,"forced_choices":["rightarrow","leftarrow","leftarrow","leftarrow"],"right_color":"lightblue","left_color":"orange","left_mu":40,"right_mu":70,"left_numbers":[30,38,33,43,46],"right_numbers":[70,65,65,68,86],"points_earned":270,"phase":"task","trial_type":"horizons-task","trial_index":85,"time_elapsed":550099,"internal_node_id":"0.0-81.0","task_version":"0.2"},{"response_times":[864,191,72,177,48,192,102,208,40,273],"keys_pressed":["rightarrow","leftarrow","rightarrow","leftarrow","rightarrow","leftarrow","rightarrow","rightarrow","leftarrow","rightarrow"],"horizon":10,"forced_choices":["rightarrow","leftarrow","rightarrow","leftarrow"],"right_color":"orange","left_color":"lightblue","left_mu":60,"right_mu":30,"left_numbers":[58,58,59,60,56,61,76,52,62,50],"right_numbers":[34,39,24,14,35,31,35,15,35,19],"points_earned":403,"phase":"task","trial_type":"horizons-task","trial_index":86,"time_elapsed":553778,"internal_node_id":"0.0-82.0","task_version":"0.2"},{"response_times":[384,48,215,200,241,24,232,248,63,200],"keys_pressed":["rightarrow","leftarrow","leftarrow","rightarrow","leftarrow","rightarrow","rightarrow","leftarrow","rightarrow","leftarrow"],"horizon":10,"forced_choices":["rightarrow","leftarrow","leftarrow","rightarrow"],"right_color":"orange","left_color":"lightblue","left_mu":40,"right_mu":28,"left_numbers":[41,45,34,26,38,54,43,48,30,45],"right_numbers":[16,34,39,24,33,42,18,26,22,39],"points_earned":332,"phase":"task","trial_type":"horizons-task","trial_index":87,"time_elapsed":557139,"internal_node_id":"0.0-83.0","task_version":"0.2"},{"response_times":[424,15,192,223,40],"keys_pressed":["leftarrow","rightarrow","leftarrow","leftarrow","rightarrow"],"horizon":5,"forced_choices":["leftarrow","rightarrow","leftarrow","leftarrow"],"right_color":"orange","left_color":"lightblue","left_mu":40,"right_mu":60,"left_numbers":[38,42,21,54,39],"right_numbers":[63,55,52,47,67],"points_earned":235,"phase":"task","trial_type":"horizons-task","trial_index":88,"time_elapsed":559537,"internal_node_id":"0.0-84.0","task_version":"0.2"},{"response_times":[414,255,240,128,112,190,57,216,39,207],"keys_pressed":["rightarrow","rightarrow","rightarrow","leftarrow","rightarrow","leftarrow","rightarrow","rightarrow","leftarrow","leftarrow"],"horizon":10,"forced_choices":["rightarrow","rightarrow","rightarrow","leftarrow"],"right_color":"orange","left_color":"lightblue","left_mu":40,"right_mu":44,"left_numbers":[40,34,37,36,43,40,36,33,43,35],"right_numbers":[55,45,39,45,50,47,46,57,42,36],"points_earned":446,"phase":"task","trial_type":"horizons-task","trial_index":89,"time_elapsed":562905,"internal_node_id":"0.0-85.0","task_version":"0.2"},{"response_times":[439,190,470,977,176,136,103,144,104,135],"keys_pressed":["rightarrow","leftarrow","leftarrow","leftarrow","rightarrow","leftarrow","rightarrow","leftarrow","rightarrow","leftarrow"],"horizon":10,"forced_choices":["rightarrow","leftarrow","leftarrow","leftarrow"],"right_color":"lightblue","left_color":"orange","left_mu":40,"right_mu":32,"left_numbers":[29,42,49,33,43,44,35,42,36,27],"right_numbers":[22,17,25,44,25,29,42,38,24,39],"points_earned":350,"phase":"task","trial_type":"horizons-task","trial_index":90,"time_elapsed":567295,"internal_node_id":"0.0-86.0","task_version":"0.2"},{"response_times":[489,264,207,21,251,200,39,224,8,599],"keys_pressed":["rightarrow","rightarrow","leftarrow","rightarrow","rightarrow","leftarrow","rightarrow","rightarrow","leftarrow","rightarrow"],"horizon":10,"forced_choices":["rightarrow","rightarrow","leftarrow","rightarrow"],"right_color":"orange","left_color":"lightblue","left_mu":60,"right_mu":30,"left_numbers":[53,67,58,50,63,69,56,63,65,52],"right_numbers":[24,23,16,33,29,43,27,31,35,41],"points_earned":400,"phase":"task","trial_type":"horizons-task","trial_index":91,"time_elapsed":571105,"internal_node_id":"0.0-87.0","task_version":"0.2"},{"rt":69754,"responses":{"age":"35","gender-categorical":"Male","gender-free-response":"","ethnicity":"Not Hispanic or Latino","race":["White"],"language":"Yes","fluency":"Very well"},"survey":"demographics","trial_type":"survey-demo","trial_index":92,"time_elapsed":640870,"internal_node_id":"0.0-88.0","task_version":"0.2"},{"rt":139348,"responses":{"difficulty":"5","fun":"4","clarity":"5","strategy":"easy strategies ","feedback":"very nice"},"survey":"debrief","trial_type":"survey-debrief","trial_index":93,"time_elapsed":780221,"internal_node_id":"0.0-89.0","task_version":"0.2","interactions":"[{\"event\":\"focus\",\"trial\":0,\"time\":0},{\"event\":\"blur\",\"trial\":8,\"time\":221089},{\"event\":\"focus\",\"trial\":8,\"time\":230874},{\"event\":\"blur\",\"trial\":26,\"time\":325960},{\"event\":\"focus\",\"trial\":26,\"time\":355723},{\"event\":\"blur\",\"trial\":92,\"time\":592540},{\"event\":\"focus\",\"trial\":92,\"time\":600111},{\"event\":\"blur\",\"trial\":92,\"time\":617949},{\"event\":\"focus\",\"trial\":92,\"time\":626551},{\"event\":\"blur\",\"trial\":92,\"time\":630336},{\"event\":\"focus\",\"trial\":92,\"time\":636661},{\"event\":\"blur\",\"trial\":93,\"time\":650920},{\"event\":\"focus\",\"trial\":93,\"time\":660645},{\"event\":\"blur\",\"trial\":93,\"time\":676769},{\"event\":\"focus\",\"trial\":93,\"time\":682605},{\"event\":\"blur\",\"trial\":93,\"time\":689951},{\"event\":\"focus\",\"trial\":93,\"time\":695765},{\"event\":\"blur\",\"trial\":93,\"time\":703529},{\"event\":\"focus\",\"trial\":93,\"time\":748736},{\"event\":\"blur\",\"trial\":93,\"time\":763439},{\"event\":\"focus\",\"trial\":93,\"time\":769393}]"}]