[{"view_history":"[{\"page_index\":0,\"viewing_time\":3496.2450000457466}]","rt":3497.7550000185147,"trial_type":"instructions","trial_index":0,"time_elapsed":3524,"internal_node_id":"0.0-0.0","task_version":"0.2"},{"item_order":[2,7,3,6,11,15,10,4,14,9,12,5,0,8,13,1],"responses":{"Q03":"4","Q08":"5","Q04":"2","Q07":"4","Q12":"3","Q16":"5","Q11":"3","Q05":"1","Q15":"2","Q10":"2","Q13":"3","Q06":"2","Q01":"2","Q09":"1","Q14":"0","Q02":"0"},"radio_events":[8481.115000031423,11569.290000014007,17953.09000002453,21281.4650000073,22489.92000002181,24802.240000048187,27793.455000035465,31737.35500004841,37313.070000032894,40137.054999999236,43066.135000030044,47688.67500004126,51081.32500003558,55697.54500000272,57232.53500001738,65441.17000000551,71152.50500000548,75729.11500005284],"key_events":[],"mouse_events":[0.8249999955296516,8481.115000031423,11569.290000014007,16336.965000024065,17953.09000002453,21281.4650000073,22489.92000002181,24802.240000048187,27793.455000035465,31737.35500004841,37313.070000032894,40137.054999999236,43066.135000030044,47688.67500004126,51081.32500003558,54528.96500000497,55697.54500000272,57232.53500001738,64065.96500001615,65441.17000000551,71152.50500000548,75729.11500005284,78337.63000002364],"rt":78354.35000003781,"survey":"nfc","trial_type":"survey-template","trial_index":1,"time_elapsed":81896,"internal_node_id":"0.0-1.0","task_version":"0.2"},{"item_order":[15,7,1,12,5,0,6,8,13,16,9,14,10,3,4,11,2],"responses":{"Q16":"3","Q08":"2","Q02":"1","Q13":"2","Q06":"2","Q01":"3","Q07":"1","Q09":"2","Q14":"1","Q17":"0","Q10":"2","Q15":"1","Q11":"1","Q04":"1","Q05":"1","Q12":"1","Q03":"2"},"radio_events":[4655.3949999506585,7255.209999973886,9487.224999989849,13311.224999953993,14807.579999964219,21463.0799999577,30679.249999986496,34863.24999999488,38142.80999999028,41423.26499999035,45143.544999998994,47103.54499996174,50695.26499998756,53927.32999997679,56319.324999989476,58414.96999998344,64222.97999996226],"key_events":[],"mouse_events":[3959.35499999905,4655.3949999506585,7255.209999973886,9487.224999989849,13311.224999953993,14807.579999964219,21463.0799999577,29335.299999976996,30679.249999986496,34863.24999999488,37287.87499997998,38142.80999999028,41423.26499999035,45143.544999998994,47103.54499996174,50695.26499998756,53927.32999997679,56319.324999989476,58414.96999998344,62751.83500000276,64222.97999996226,66199.48999996996],"rt":66209.86499998253,"survey":"pswq","trial_type":"survey-template","trial_index":2,"time_elapsed":148119,"internal_node_id":"0.0-2.0","task_version":"0.2"},{"item_order":[8,0,1,2,5,12,3,6,4,10,9,11,7],"responses":{"Q09":"1","Q01":"1","Q02":"3","Q03":"0","Q06":"0","Q13":"4","Q04":"2","Q07":"2","Q05":"0","Q11":"1","Q10":"0","Q12":"0","Q08":"1"},"radio_events":[4840.8049999852665,7264.73499997519,12000.400000018999,14320.72999997763,16993.505000020377,19384.81999997748,22368.2699999772,27152.615000028163,30496.71999999555,34232.529999979306,37208.70499999728,39384.23999998486,41472.82999998424,44328.41499999631],"key_events":[],"mouse_events":[4840.8049999852665,7264.73499997519,10896.439999982249,12000.400000018999,14320.72999997763,16993.505000020377,19384.81999997748,22368.2699999772,27152.615000028163,30496.71999999555,33465.02499998314,34232.529999979306,37208.70499999728,39384.23999998486,41472.82999998424,44328.41499999631,45584.81000002939],"rt":45592.91000000667,"survey":"ius12","trial_type":"survey-template","trial_index":3,"time_elapsed":193724,"internal_node_id":"0.0-3.0","task_version":"0.2"},{"view_history":"[{\"page_index\":0,\"viewing_time\":89176.2999999919},{\"page_index\":1,\"viewing_time\":8760.645000031218},{\"page_index\":2,\"viewing_time\":10095.19999998156},{\"page_index\":3,\"viewing_time\":10080.300000030547},{\"page_index\":4,\"viewing_time\":4711.955000006128},{\"page_index\":5,\"viewing_time\":3808.934999979101},{\"page_index\":6,\"viewing_time\":5911.290000018198},{\"page_index\":7,\"viewing_time\":9543.669999984559},{\"page_index\":8,\"viewing_time\":6856.04499996407},{\"page_index\":9,\"viewing_time\":9200.430000026245}]","rt":158148.1550000026,"trial_type":"instructions","trial_index":4,"time_elapsed":351876,"internal_node_id":"0.0-4.0-0.0","task_version":"0.2"},{"response_times":[1786.2000000313856,1363.9899999834597,928.0400000279769,1295.929999963846,2527.5100000435486],"keys_pressed":["rightarrow","leftarrow","rightarrow","rightarrow","leftarrow"],"horizon":5,"forced_choices":["rightarrow","leftarrow","rightarrow","rightarrow"],"right_color":"lightblue","left_color":"orange","left_mu":40,"right_mu":20,"left_numbers":[43,43,45,45,50],"right_numbers":[6,6,0,20,25],"points_earned":119,"phase":"practice","trial_type":"horizons-task","trial_index":5,"time_elapsed":361312,"internal_node_id":"0.0-4.0-1.0","task_version":"0.2"},{"response_times":[1811.1400000052527,1184.2000000178814,2319.4499999517575,807.8249999671243,2488.0999999586493,1487.8800000296906,1359.7599999629892,1368.030000012368,1448.1699999887496,935.6799999950454],"keys_pressed":["leftarrow","leftarrow","rightarrow","rightarrow","rightarrow","rightarrow","leftarrow","leftarrow","rightarrow","leftarrow"],"horizon":10,"forced_choices":["leftarrow","leftarrow","rightarrow","rightarrow"],"right_color":"orange","left_color":"lightblue","left_mu":60,"right_mu":70,"left_numbers":[55,49,63,62,51,66,64,45,53,60],"right_numbers":[68,70,80,67,78,43,82,71,55,80],"points_earned":596,"phase":"practice","trial_type":"horizons-task","trial_index":6,"time_elapsed":378028,"internal_node_id":"0.0-4.0-2.0","task_version":"0.2"},{"view_history":"[{\"page_index\":0,\"viewing_time\":3297.4300000350922},{\"page_index\":1,\"viewing_time\":2703.869999968447},{\"page_index\":2,\"viewing_time\":6368.350000004284},{\"page_index\":3,\"viewing_time\":3999.4150000275113}]","rt":16370.370000018738,"trial_type":"instructions","trial_index":7,"time_elapsed":394402,"internal_node_id":"0.0-4.0-3.0","task_version":"0.2"},{"responses":["true","false","true"],"num_errors":0,"rt":10964.51999997953,"trial_type":"horizons-comprehension","trial_index":8,"time_elapsed":405373,"internal_node_id":"0.0-4.0-4.0","task_version":"0.2"},{"trial_type":"call-function","trial_index":9,"time_elapsed":405384,"internal_node_id":"0.0-5.0","task_version":"0.2"},{"view_history":"[{\"page_index\":0,\"viewing_time\":1846.7299999902025},{\"page_index\":1,\"viewing_time\":4008.3749999757856}]","rt":5856.244999973569,"trial_type":"instructions","trial_index":10,"time_elapsed":411242,"internal_node_id":"0.0-6.0","task_version":"0.2"},{"response_times":[2686.199999996461,1015.0800000410527,623.9150000037625,560.0399999530055,1087.96999999322],"keys_pressed":["leftarrow","rightarrow","leftarrow","rightarrow","leftarrow"],"horizon":5,"forced_choices":["leftarrow","rightarrow","leftarrow","rightarrow"],"right_color":"orange","left_color":"lightblue","left_mu":60,"right_mu":80,"left_numbers":[71,53,69,75,61],"right_numbers":[78,78,80,78,74],"points_earned":357,"phase":"task","trial_type":"horizons-task","trial_index":11,"time_elapsed":418734,"internal_node_id":"0.0-7.0","task_version":"0.2"},{"response_times":[1422.4599999724887,3735.1549999439158,2984.3000000109896,1623.9000000059605,1959.885000018403,1800.2700000070035,760.0400000228547,815.5599999590777,615.6750000081956,495.8350000088103],"keys_pressed":["rightarrow","rightarrow","leftarrow","leftarrow","rightarrow","rightarrow","rightarrow","rightarrow","rightarrow","rightarrow"],"horizon":10,"forced_choices":["rightarrow","rightarrow","leftarrow","leftarrow"],"right_color":"orange","left_color":"lightblue","left_mu":60,"right_mu":56,"left_numbers":[67,66,68,63,57,61,65,43,51,49],"right_numbers":[57,64,59,65,49,61,51,56,57,74],"points_earned":600,"phase":"task","trial_type":"horizons-task","trial_index":12,"time_elapsed":436453,"internal_node_id":"0.0-8.0","task_version":"0.2"},{"response_times":[3677.819999982603,959.7700000158511,1464.2250000033528,880.2449999493547,471.1799999931827,920.0399999972433,879.7600000398234,1464.0650000073947,559.9949999595992,2136.1200000392273],"keys_pressed":["rightarrow","leftarrow","rightarrow","rightarrow","leftarrow","leftarrow","leftarrow","leftarrow","leftarrow","rightarrow"],"horizon":10,"forced_choices":["rightarrow","leftarrow","rightarrow","rightarrow"],"right_color":"lightblue","left_color":"orange","left_mu":40,"right_mu":28,"left_numbers":[38,26,26,43,46,39,43,29,39,48],"right_numbers":[16,40,33,34,13,29,37,23,18,29],"points_earned":334,"phase":"task","trial_type":"horizons-task","trial_index":13,"time_elapsed":451373,"internal_node_id":"0.0-9.0","task_version":"0.2"},{"response_times":[1750.835000013467,984.3150000087917,711.5699999849312,1096.060000010766,1695.7249999977648],"keys_pressed":["rightarrow","rightarrow","rightarrow","leftarrow","leftarrow"],"horizon":5,"forced_choices":["rightarrow","rightarrow","rightarrow","leftarrow"],"right_color":"lightblue","left_color":"orange","left_mu":40,"right_mu":44,"left_numbers":[37,37,35,21,28],"right_numbers":[41,34,38,43,41],"points_earned":162,"phase":"task","trial_type":"horizons-task","trial_index":14,"time_elapsed":459117,"internal_node_id":"0.0-10.0","task_version":"0.2"},{"response_times":[1510.7399999978952,688.1549999816343,1560.0650000269525,527.730000030715,648.1299999868497],"keys_pressed":["leftarrow","rightarrow","leftarrow","rightarrow","rightarrow"],"horizon":5,"forced_choices":["leftarrow","rightarrow","leftarrow","rightarrow"],"right_color":"lightblue","left_color":"orange","left_mu":40,"right_mu":70,"left_numbers":[34,45,38,34,32],"right_numbers":[63,68,66,78,52],"points_earned":270,"phase":"task","trial_type":"horizons-task","trial_index":15,"time_elapsed":465579,"internal_node_id":"0.0-11.0","task_version":"0.2"},{"response_times":[1160.4900000384077,1063.1200000061654,503.8650000351481,1024.0900000208057,895.9500000346452],"keys_pressed":["rightarrow","leftarrow","rightarrow","leftarrow","rightarrow"],"horizon":5,"forced_choices":["rightarrow","leftarrow","rightarrow","leftarrow"],"right_color":"lightblue","left_color":"orange","left_mu":40,"right_mu":60,"left_numbers":[40,31,43,31,53],"right_numbers":[58,50,66,50,76],"points_earned":262,"phase":"task","trial_type":"horizons-task","trial_index":16,"time_elapsed":471733,"internal_node_id":"0.0-12.0","task_version":"0.2"},{"response_times":[1727.4449999677017,671.570000005886,1368.5450000339188,1263.5550000122748,2495.7399999839254,1135.9799999627285,552.094999991823,431.72000005142763,407.7899999683723,399.8600000049919],"keys_pressed":["leftarrow","rightarrow","rightarrow","leftarrow","leftarrow","leftarrow","leftarrow","leftarrow","leftarrow","leftarrow"],"horizon":10,"forced_choices":["leftarrow","rightarrow","rightarrow","leftarrow"],"right_color":"orange","left_color":"lightblue","left_mu":60,"right_mu":68,"left_numbers":[49,66,71,72,54,57,65,55,64,71],"right_numbers":[72,66,87,83,74,74,88,69,71,65],"points_earned":640,"phase":"task","trial_type":"horizons-task","trial_index":17,"time_elapsed":483693,"internal_node_id":"0.0-13.0","task_version":"0.2"},{"response_times":[1095.2350000152364,3464.6300000022165,1255.3000000189058,503.7799999699928,872.2500000149012,999.6350000146776,639.885000011418,655.910000030417,519.9299999512732,487.8049999824725],"keys_pressed":["rightarrow","leftarrow","leftarrow","rightarrow","leftarrow","rightarrow","leftarrow","leftarrow","leftarrow","leftarrow"],"horizon":10,"forced_choices":["rightarrow","leftarrow","leftarrow","rightarrow"],"right_color":"orange","left_color":"lightblue","left_mu":60,"right_mu":52,"left_numbers":[61,45,62,59,52,42,68,65,76,58],"right_numbers":[67,48,61,35,51,34,59,52,59,45],"points_earned":562,"phase":"task","trial_type":"horizons-task","trial_index":18,"time_elapsed":495693,"internal_node_id":"0.0-14.0","task_version":"0.2"},{"response_times":[990.5349999899045,583.9350000023842,672.019999998156,832.1749999886379,535.6299999984913],"keys_pressed":["leftarrow","rightarrow","rightarrow","leftarrow","leftarrow"],"horizon":5,"forced_choices":["leftarrow","rightarrow","rightarrow","leftarrow"],"right_color":"orange","left_color":"lightblue","left_mu":60,"right_mu":48,"left_numbers":[46,84,61,83,62],"right_numbers":[43,44,30,47,62],"points_earned":265,"phase":"task","trial_type":"horizons-task","trial_index":19,"time_elapsed":500813,"internal_node_id":"0.0-15.0","task_version":"0.2"},{"response_times":[1055.1200000336394,824.1449999623001,800.199999997858,687.5550000113435,1551.8450000090525,872.060000023339,432.1749999653548,375.49000000581145,399.9150000163354,352.09499998018146],"keys_pressed":["leftarrow","rightarrow","rightarrow","leftarrow","leftarrow","leftarrow","leftarrow","leftarrow","leftarrow","leftarrow"],"horizon":10,"forced_choices":["leftarrow","rightarrow","rightarrow","leftarrow"],"right_color":"orange","left_color":"lightblue","left_mu":60,"right_mu":48,"left_numbers":[62,58,67,76,68,66,66,65,62,60],"right_numbers":[52,48,58,51,51,55,50,46,36,44],"points_earned":631,"phase":"task","trial_type":"horizons-task","trial_index":20,"time_elapsed":509669,"internal_node_id":"0.0-16.0","task_version":"0.2"},{"response_times":[1071.025000012014,1023.6350000486709,615.9049999550916,783.9849999872968,1543.7950000050478,496.32999999448657,471.7650000238791,455.98999998765066,463.70500000193715,543.8100000028498],"keys_pressed":["rightarrow","leftarrow","leftarrow","rightarrow","rightarrow","rightarrow","rightarrow","rightarrow","rightarrow","rightarrow"],"horizon":10,"forced_choices":["rightarrow","leftarrow","leftarrow","rightarrow"],"right_color":"lightblue","left_color":"orange","left_mu":40,"right_mu":28,"left_numbers":[37,13,45,36,34,40,31,39,42,39],"right_numbers":[27,33,16,32,19,41,31,35,41,26],"points_earned":310,"phase":"task","trial_type":"horizons-task","trial_index":21,"time_elapsed":518669,"internal_node_id":"0.0-17.0","task_version":"0.2"},{"response_times":[1133.269999991171,968.0850000004284,1583.5949999745935,872.2850000485778,1479.5100000337698],"keys_pressed":["leftarrow","rightarrow","rightarrow","leftarrow","leftarrow"],"horizon":5,"forced_choices":["leftarrow","rightarrow","rightarrow","leftarrow"],"right_color":"lightblue","left_color":"orange","left_mu":60,"right_mu":72,"left_numbers":[58,63,68,65,50],"right_numbers":[75,77,75,66,72],"points_earned":325,"phase":"task","trial_type":"horizons-task","trial_index":22,"time_elapsed":526212,"internal_node_id":"0.0-18.0","task_version":"0.2"},{"response_times":[711.5700000431389,1487.9300000029616,1728.1200000434183,615.7050000037998,600.2650000154972],"keys_pressed":["rightarrow","leftarrow","rightarrow","leftarrow","leftarrow"],"horizon":5,"forced_choices":["rightarrow","leftarrow","rightarrow","leftarrow"],"right_color":"orange","left_color":"lightblue","left_mu":40,"right_mu":10,"left_numbers":[35,47,37,27,47],"right_numbers":[14,10,0,0,0],"points_earned":135,"phase":"task","trial_type":"horizons-task","trial_index":23,"time_elapsed":532860,"internal_node_id":"0.0-19.0","task_version":"0.2"},{"response_times":[1071.5450000134297,639.5999999949709,1224.1899999789894,480.06999999051914,711.864999961108,551.8150000134483,407.9600000404753,319.7400000062771,535.8199999900535,352.07500000251457],"keys_pressed":["leftarrow","rightarrow","rightarrow","rightarrow","leftarrow","leftarrow","leftarrow","leftarrow","leftarrow","leftarrow"],"horizon":10,"forced_choices":["leftarrow","rightarrow","rightarrow","rightarrow"],"right_color":"orange","left_color":"lightblue","left_mu":40,"right_mu":32,"left_numbers":[46,41,40,35,40,48,48,36,31,35],"right_numbers":[24,19,17,25,40,35,25,34,33,45],"points_earned":345,"phase":"task","trial_type":"horizons-task","trial_index":24,"time_elapsed":540661,"internal_node_id":"0.0-20.0","task_version":"0.2"},{"response_times":[910.535000031814,543.2699999655597,840.009999985341,495.93500001356006,1279.8300000140443,376.17499998304993,327.7949999901466,159.84999999636784,135.95500000519678,143.89000000664964],"keys_pressed":["leftarrow","leftarrow","rightarrow","leftarrow","leftarrow","leftarrow","leftarrow","leftarrow","leftarrow","leftarrow"],"horizon":10,"forced_choices":["leftarrow","leftarrow","rightarrow","leftarrow"],"right_color":"orange","left_color":"lightblue","left_mu":60,"right_mu":80,"left_numbers":[62,46,73,48,57,54,63,76,72,53],"right_numbers":[98,83,76,85,85,78,79,79,90,59],"points_earned":607,"phase":"task","trial_type":"horizons-task","trial_index":25,"time_elapsed":547380,"internal_node_id":"0.0-21.0","task_version":"0.2"},{"response_times":[967.3900000052527,920.2900000382215,2416.0749999573454,1239.609999989625,559.6800000057556,391.875000030268,224.06500001670793,151.72500000335276,160.0149999721907,143.90999998431653],"keys_pressed":["rightarrow","leftarrow","rightarrow","leftarrow","rightarrow","rightarrow","rightarrow","rightarrow","rightarrow","rightarrow"],"horizon":10,"forced_choices":["rightarrow","leftarrow","rightarrow","leftarrow"],"right_color":"lightblue","left_color":"orange","left_mu":60,"right_mu":90,"left_numbers":[52,62,49,57,40,79,76,49,63,61],"right_numbers":[83,89,89,94,85,87,94,95,97,100],"points_earned":849,"phase":"task","trial_type":"horizons-task","trial_index":26,"time_elapsed":556061,"internal_node_id":"0.0-22.0","task_version":"0.2"},{"response_times":[1382.4449999956414,935.9399999957532,1272.0350000308827,639.7500000311993,535.9549999702722,224.11499998997897,215.75999999186024,287.75000001769513,256.5700000268407,311.41000002389774],"keys_pressed":["rightarrow","leftarrow","rightarrow","leftarrow","leftarrow","leftarrow","leftarrow","leftarrow","leftarrow","leftarrow"],"horizon":10,"forced_choices":["rightarrow","leftarrow","rightarrow","leftarrow"],"right_color":"orange","left_color":"lightblue","left_mu":40,"right_mu":10,"left_numbers":[45,43,49,46,43,48,41,21,36,45],"right_numbers":[19,0,16,0,5,0,10,18,11,7],"points_earned":358,"phase":"task","trial_type":"horizons-task","trial_index":27,"time_elapsed":563628,"internal_node_id":"0.0-23.0","task_version":"0.2"},{"response_times":[1151.8299999879673,647.8450000286102,799.8749999678694,1135.9100000117905,695.9749999805354,327.82499998575076,160.0849999813363,151.78499999456108,127.83999997191131,128.4150000428781],"keys_pressed":["leftarrow","leftarrow","rightarrow","rightarrow","rightarrow","rightarrow","rightarrow","rightarrow","rightarrow","rightarrow"],"horizon":10,"forced_choices":["leftarrow","leftarrow","rightarrow","rightarrow"],"right_color":"lightblue","left_color":"orange","left_mu":40,"right_mu":36,"left_numbers":[42,47,45,52,43,45,42,32,54,57],"right_numbers":[35,29,40,33,31,45,35,22,39,36],"points_earned":370,"phase":"task","trial_type":"horizons-task","trial_index":28,"time_elapsed":570460,"internal_node_id":"0.0-24.0","task_version":"0.2"},{"response_times":[1111.7499999818392,1648.1149999890476,1311.5250000264496,935.7549999840558,2096.1000000243075,623.9950000308454,703.9600000134669,567.7100000320934,536.1200000043027,639.7350000333972],"keys_pressed":["rightarrow","rightarrow","leftarrow","rightarrow","rightarrow","rightarrow","rightarrow","rightarrow","rightarrow","rightarrow"],"horizon":10,"forced_choices":["rightarrow","rightarrow","leftarrow","rightarrow"],"right_color":"lightblue","left_color":"orange","left_mu":60,"right_mu":72,"left_numbers":[61,71,58,53,61,71,59,55,57,54],"right_numbers":[76,76,67,68,68,62,72,79,96,80],"points_earned":735,"phase":"task","trial_type":"horizons-task","trial_index":29,"time_elapsed":582141,"internal_node_id":"0.0-25.0","task_version":"0.2"},{"response_times":[838.640000030864,792.1249999781139,1351.6749999835156,391.91999996546656,1087.9149999818765],"keys_pressed":["rightarrow","leftarrow","leftarrow","leftarrow","leftarrow"],"horizon":5,"forced_choices":["rightarrow","leftarrow","leftarrow","leftarrow"],"right_color":"orange","left_color":"lightblue","left_mu":60,"right_mu":30,"left_numbers":[75,59,48,51,55],"right_numbers":[25,29,24,41,18],"points_earned":238,"phase":"task","trial_type":"horizons-task","trial_index":30,"time_elapsed":588109,"internal_node_id":"0.0-26.0","task_version":"0.2"},{"response_times":[1821.8299999716692,535.3500000201166,528.0049999710172,623.8500000326894,1231.9300000090152,183.98000003071502,159.91000004578382,159.85499997623265,143.93000002019107,128.1749999616295],"keys_pressed":["leftarrow","rightarrow","leftarrow","rightarrow","rightarrow","rightarrow","rightarrow","rightarrow","rightarrow","rightarrow"],"horizon":10,"forced_choices":["leftarrow","rightarrow","leftarrow","rightarrow"],"right_color":"lightblue","left_color":"orange","left_mu":60,"right_mu":40,"left_numbers":[79,51,61,51,70,51,70,61,55,56],"right_numbers":[37,48,23,46,43,40,28,45,39,44],"points_earned":473,"phase":"task","trial_type":"horizons-task","trial_index":31,"time_elapsed":595132,"internal_node_id":"0.0-27.0","task_version":"0.2"},{"response_times":[2367.5700000021607,1703.7300000083633,687.8949999809265,1080.0500000477768,791.8400000198744,295.8099999814294,183.96999995457008,192.1100000035949,191.7700000340119,975.8849999634549],"keys_pressed":["leftarrow","leftarrow","rightarrow","leftarrow","leftarrow","leftarrow","leftarrow","leftarrow","leftarrow","leftarrow"],"horizon":10,"forced_choices":["leftarrow","leftarrow","rightarrow","leftarrow"],"right_color":"orange","left_color":"lightblue","left_mu":60,"right_mu":64,"left_numbers":[55,52,46,54,56,66,48,65,52,58],"right_numbers":[63,59,73,68,58,58,62,66,63,55],"points_earned":579,"phase":"task","trial_type":"horizons-task","trial_index":32,"time_elapsed":605109,"internal_node_id":"0.0-28.0","task_version":"0.2"},{"response_times":[942.9799999925308,519.460000039544,559.9400000064634,600.220000022091,1015.735000022687,999.6249999967404,1512.5249999691732,583.5599999991246,560.2400000207126,423.3000000240281],"keys_pressed":["leftarrow","leftarrow","rightarrow","rightarrow","leftarrow","leftarrow","rightarrow","leftarrow","leftarrow","leftarrow"],"horizon":10,"forced_choices":["leftarrow","leftarrow","rightarrow","rightarrow"],"right_color":"orange","left_color":"lightblue","left_mu":40,"right_mu":32,"left_numbers":[43,38,44,42,29,38,47,54,29,39],"right_numbers":[31,32,42,39,28,30,36,30,34,32],"points_earned":387,"phase":"task","trial_type":"horizons-task","trial_index":33,"time_elapsed":614332,"internal_node_id":"0.0-29.0","task_version":"0.2"},{"response_times":[983.9200000278652,1512.0050000259653,695.659999968484,872.5649999687448,1175.4649999784306],"keys_pressed":["rightarrow","rightarrow","rightarrow","leftarrow","rightarrow"],"horizon":5,"forced_choices":["rightarrow","rightarrow","rightarrow","leftarrow"],"right_color":"lightblue","left_color":"orange","left_mu":40,"right_mu":52,"left_numbers":[37,47,53,26,37],"right_numbers":[53,51,58,53,48],"points_earned":236,"phase":"task","trial_type":"horizons-task","trial_index":34,"time_elapsed":621076,"internal_node_id":"0.0-30.0","task_version":"0.2"},{"response_times":[991.8799999868497,1271.950000023935,415.71999998996034,1216.1850000265986,999.7149999835528],"keys_pressed":["leftarrow","rightarrow","leftarrow","rightarrow","leftarrow"],"horizon":5,"forced_choices":["leftarrow","rightarrow","leftarrow","rightarrow"],"right_color":"orange","left_color":"lightblue","left_mu":60,"right_mu":30,"left_numbers":[67,54,52,53,50],"right_numbers":[34,29,26,19,20],"points_earned":217,"phase":"task","trial_type":"horizons-task","trial_index":35,"time_elapsed":627476,"internal_node_id":"0.0-31.0","task_version":"0.2"},{"response_times":[1206.5749999601394,599.5550000225194,736.0300000291318,671.9999999622814,807.8600000008009,511.8099999963306,360.01000000396743,144.02000000700355,167.68499999307096,144.01000004727393],"keys_pressed":["rightarrow","rightarrow","rightarrow","leftarrow","rightarrow","rightarrow","rightarrow","rightarrow","rightarrow","rightarrow"],"horizon":10,"forced_choices":["rightarrow","rightarrow","rightarrow","leftarrow"],"right_color":"lightblue","left_color":"orange","left_mu":40,"right_mu":52,"left_numbers":[40,41,45,44,31,60,47,46,29,44],"right_numbers":[56,48,40,47,49,52,63,52,59,55],"points_earned":518,"phase":"task","trial_type":"horizons-task","trial_index":36,"time_elapsed":634334,"internal_node_id":"0.0-32.0","task_version":"0.2"},{"response_times":[758.3849999937229,671.8100000289269,807.8499999828637,1127.905000001192,679.950000019744],"keys_pressed":["leftarrow","rightarrow","leftarrow","leftarrow","rightarrow"],"horizon":5,"forced_choices":["leftarrow","rightarrow","leftarrow","leftarrow"],"right_color":"lightblue","left_color":"orange","left_mu":40,"right_mu":60,"left_numbers":[51,34,44,45,41],"right_numbers":[55,61,64,70,58],"points_earned":259,"phase":"task","trial_type":"horizons-task","trial_index":37,"time_elapsed":639886,"internal_node_id":"0.0-33.0","task_version":"0.2"},{"response_times":[782.0100000244565,1887.639999971725,791.7749999905936,656.1450000153854,551.8250000313856,288.00000000046566,191.83999998494983,183.7950000190176,191.93999998969957,183.97499999264255],"keys_pressed":["leftarrow","leftarrow","rightarrow","rightarrow","leftarrow","leftarrow","leftarrow","leftarrow","leftarrow","leftarrow"],"horizon":10,"forced_choices":["leftarrow","leftarrow","rightarrow","rightarrow"],"right_color":"orange","left_color":"lightblue","left_mu":60,"right_mu":64,"left_numbers":[50,56,56,68,48,42,73,66,56,57],"right_numbers":[59,46,57,70,59,64,52,69,66,74],"points_earned":575,"phase":"task","trial_type":"horizons-task","trial_index":38,"time_elapsed":647101,"internal_node_id":"0.0-34.0","task_version":"0.2"},{"response_times":[727.6450000354089,1200.0150000094436,751.734999998007,639.9349999846891,600.2849999931641],"keys_pressed":["leftarrow","leftarrow","leftarrow","rightarrow","rightarrow"],"horizon":5,"forced_choices":["leftarrow","leftarrow","leftarrow","rightarrow"],"right_color":"lightblue","left_color":"orange","left_mu":60,"right_mu":40,"left_numbers":[57,55,66,57,56],"right_numbers":[38,29,40,36,31],"points_earned":245,"phase":"task","trial_type":"horizons-task","trial_index":39,"time_elapsed":652527,"internal_node_id":"0.0-35.0","task_version":"0.2"},{"response_times":[3252.970000030473,767.4949999782257,1088.0400000023656,519.8649999802001,984.0149999945424,447.80500000342727,231.99499998008832,207.8149999724701,200.17999998526648,191.86000002082437],"keys_pressed":["leftarrow","rightarrow","leftarrow","rightarrow","leftarrow","leftarrow","leftarrow","leftarrow","leftarrow","leftarrow"],"horizon":10,"forced_choices":["leftarrow","rightarrow","leftarrow","rightarrow"],"right_color":"orange","left_color":"lightblue","left_mu":60,"right_mu":80,"left_numbers":[68,63,48,69,52,67,71,69,34,58],"right_numbers":[62,69,74,89,90,71,90,84,83,86],"points_earned":625,"phase":"task","trial_type":"horizons-task","trial_index":40,"time_elapsed":661925,"internal_node_id":"0.0-36.0","task_version":"0.2"},{"response_times":[1190.950000018347,847.6600000285544,607.9500000341795,527.8599999728613,904.1100000031292,191.5850000223145,192.01499997870997,200.06000000284985,191.78999995347112,200.07999998051673],"keys_pressed":["rightarrow","leftarrow","leftarrow","rightarrow","leftarrow","leftarrow","leftarrow","leftarrow","leftarrow","leftarrow"],"horizon":10,"forced_choices":["rightarrow","leftarrow","leftarrow","rightarrow"],"right_color":"orange","left_color":"lightblue","left_mu":40,"right_mu":20,"left_numbers":[42,48,28,36,34,26,28,26,45,47],"right_numbers":[25,36,26,25,20,9,26,20,14,15],"points_earned":332,"phase":"task","trial_type":"horizons-task","trial_index":41,"time_elapsed":668485,"internal_node_id":"0.0-37.0","task_version":"0.2"},{"response_times":[670.8000000216998,1191.8249999871477,640.0049999938346,967.975000035949,1087.5450000166893],"keys_pressed":["rightarrow","rightarrow","leftarrow","rightarrow","rightarrow"],"horizon":5,"forced_choices":["rightarrow","rightarrow","leftarrow","rightarrow"],"right_color":"lightblue","left_color":"orange","left_mu":60,"right_mu":72,"left_numbers":[51,65,58,51,48],"right_numbers":[64,56,74,73,74],"points_earned":325,"phase":"task","trial_type":"horizons-task","trial_index":42,"time_elapsed":674548,"internal_node_id":"0.0-38.0","task_version":"0.2"},{"response_times":[2719.954999978654,2471.689999976661,702.9599999659695,800.21499999566,512.3500000336207],"keys_pressed":["leftarrow","leftarrow","rightarrow","rightarrow","leftarrow"],"horizon":5,"forced_choices":["leftarrow","leftarrow","rightarrow","rightarrow"],"right_color":"orange","left_color":"lightblue","left_mu":60,"right_mu":64,"left_numbers":[74,64,74,78,50],"right_numbers":[79,64,66,66,70],"points_earned":320,"phase":"task","trial_type":"horizons-task","trial_index":43,"time_elapsed":683261,"internal_node_id":"0.0-39.0","task_version":"0.2"},{"response_times":[782.9149999888614,839.6799999754876,2016.1199999856763,1160.494999960065,2863.2850000285544],"keys_pressed":["rightarrow","leftarrow","rightarrow","rightarrow","leftarrow"],"horizon":5,"forced_choices":["rightarrow","leftarrow","rightarrow","rightarrow"],"right_color":"orange","left_color":"lightblue","left_mu":60,"right_mu":68,"left_numbers":[61,56,59,65,63],"right_numbers":[80,46,68,89,48],"points_earned":356,"phase":"task","trial_type":"horizons-task","trial_index":44,"time_elapsed":692428,"internal_node_id":"0.0-40.0","task_version":"0.2"},{"response_times":[807.8600000008009,983.7500000139698,840.1399999856949,663.730000029318,871.9600000185892,151.85500000370666,167.8350000292994,159.90500000771135,136.0650000278838,135.72500000009313],"keys_pressed":["rightarrow","rightarrow","leftarrow","leftarrow","rightarrow","rightarrow","rightarrow","rightarrow","rightarrow","rightarrow"],"horizon":10,"forced_choices":["rightarrow","rightarrow","leftarrow","leftarrow"],"right_color":"lightblue","left_color":"orange","left_mu":40,"right_mu":48,"left_numbers":[40,49,46,34,33,44,51,49,46,54],"right_numbers":[34,39,42,46,49,38,62,50,56,45],"points_earned":453,"phase":"task","trial_type":"horizons-task","trial_index":45,"time_elapsed":698853,"internal_node_id":"0.0-41.0","task_version":"0.2"},{"response_times":[926.2450000387616,807.3999999905936,752.234999963548,1047.7850000024773,575.9599999873899],"keys_pressed":["leftarrow","leftarrow","rightarrow","leftarrow","leftarrow"],"horizon":5,"forced_choices":["leftarrow","leftarrow","rightarrow","leftarrow"],"right_color":"orange","left_color":"lightblue","left_mu":60,"right_mu":64,"left_numbers":[51,57,61,59,53],"right_numbers":[59,59,58,48,62],"points_earned":278,"phase":"task","trial_type":"horizons-task","trial_index":46,"time_elapsed":704469,"internal_node_id":"0.0-42.0","task_version":"0.2"},{"response_times":[2367.0600000186823,799.5900000096299,673.4099999885075,974.5600000023842,3064.3099999870174],"keys_pressed":["leftarrow","leftarrow","rightarrow","leftarrow","leftarrow"],"horizon":5,"forced_choices":["leftarrow","leftarrow","rightarrow","leftarrow"],"right_color":"orange","left_color":"lightblue","left_mu":60,"right_mu":52,"left_numbers":[50,58,72,55,53],"right_numbers":[52,49,36,38,47],"points_earned":252,"phase":"task","trial_type":"horizons-task","trial_index":47,"time_elapsed":713853,"internal_node_id":"0.0-43.0","task_version":"0.2"},{"response_times":[1055.0849999999627,1271.965000021737,471.9049999839626,543.9749999786727,503.91500000841916],"keys_pressed":["leftarrow","rightarrow","rightarrow","leftarrow","leftarrow"],"horizon":5,"forced_choices":["leftarrow","rightarrow","rightarrow","leftarrow"],"right_color":"orange","left_color":"lightblue","left_mu":60,"right_mu":68,"left_numbers":[66,62,62,62,57],"right_numbers":[66,60,56,63,69],"points_earned":301,"phase":"task","trial_type":"horizons-task","trial_index":48,"time_elapsed":719205,"internal_node_id":"0.0-44.0","task_version":"0.2"},{"response_times":[1023.1550000025891,655.689999985043,495.9950000047684,431.9649999961257,784.1699999989942,383.48499999847263,167.905000038445,191.93500000983477,183.91999998129904,184.05999999959022],"keys_pressed":["leftarrow","rightarrow","rightarrow","rightarrow","leftarrow","leftarrow","leftarrow","leftarrow","leftarrow","leftarrow"],"horizon":10,"forced_choices":["leftarrow","rightarrow","rightarrow","rightarrow"],"right_color":"orange","left_color":"lightblue","left_mu":60,"right_mu":56,"left_numbers":[58,60,62,64,70,62,63,76,66,70],"right_numbers":[54,48,64,44,41,56,60,52,53,51],"points_earned":621,"phase":"task","trial_type":"horizons-task","trial_index":49,"time_elapsed":725212,"internal_node_id":"0.0-45.0","task_version":"0.2"},{"response_times":[1655.9199999901466,815.8599999733269,567.9399999789894,471.9199999817647,1055.9099999954924,192.01999995857477,183.79499996080995,183.8799999677576,160.16999998828396,167.94499999377877],"keys_pressed":["rightarrow","leftarrow","leftarrow","leftarrow","leftarrow","leftarrow","leftarrow","leftarrow","leftarrow","leftarrow"],"horizon":10,"forced_choices":["rightarrow","leftarrow","leftarrow","leftarrow"],"right_color":"orange","left_color":"lightblue","left_mu":60,"right_mu":48,"left_numbers":[66,57,60,57,71,57,51,56,74,53],"right_numbers":[46,47,45,40,35,46,38,57,39,55],"points_earned":582,"phase":"task","trial_type":"horizons-task","trial_index":50,"time_elapsed":732172,"internal_node_id":"0.0-46.0","task_version":"0.2"},{"view_history":"[{\"page_index\":0,\"viewing_time\":21021.83000004152},{\"page_index\":1,\"viewing_time\":7587.339999969117}]","rt":28610.50000000978,"trial_type":"instructions","trial_index":51,"time_elapsed":760785,"internal_node_id":"0.0-47.0","task_version":"0.2"},{"response_times":[1020.0699999695644,567.0099999988452,375.9250000002794,488.54000004939735,967.5500000012107],"keys_pressed":["rightarrow","leftarrow","rightarrow","leftarrow","rightarrow"],"horizon":5,"forced_choices":["rightarrow","leftarrow","rightarrow","leftarrow"],"right_color":"lightblue","left_color":"orange","left_mu":60,"right_mu":90,"left_numbers":[69,61,56,66,61],"right_numbers":[87,81,93,62,90],"points_earned":397,"phase":"task","trial_type":"horizons-task","trial_index":52,"time_elapsed":765724,"internal_node_id":"0.0-48.0","task_version":"0.2"},{"response_times":[799.7800000011921,631.8699999828823,575.7749999756925,944.019999995362,536.0900000086986],"keys_pressed":["rightarrow","leftarrow","leftarrow","rightarrow","rightarrow"],"horizon":5,"forced_choices":["rightarrow","leftarrow","leftarrow","rightarrow"],"right_color":"lightblue","left_color":"orange","left_mu":40,"right_mu":28,"left_numbers":[59,15,36,34,27],"right_numbers":[14,34,40,23,32],"points_earned":120,"phase":"task","trial_type":"horizons-task","trial_index":53,"time_elapsed":770716,"internal_node_id":"0.0-49.0","task_version":"0.2"},{"response_times":[928.3700000378303,447.45499995769933,735.8099999837577,896.1799999815412,527.7600000263192],"keys_pressed":["rightarrow","leftarrow","leftarrow","leftarrow","leftarrow"],"horizon":5,"forced_choices":["rightarrow","leftarrow","leftarrow","leftarrow"],"right_color":"orange","left_color":"lightblue","left_mu":60,"right_mu":48,"left_numbers":[45,61,53,45,77],"right_numbers":[53,60,40,58,52],"points_earned":289,"phase":"task","trial_type":"horizons-task","trial_index":54,"time_elapsed":775756,"internal_node_id":"0.0-50.0","task_version":"0.2"},{"response_times":[703.0899999663234,698.5699999495409,789.4749999977648,959.839999966789,583.7349999928847],"keys_pressed":["rightarrow","leftarrow","leftarrow","rightarrow","leftarrow"],"horizon":5,"forced_choices":["rightarrow","leftarrow","leftarrow","rightarrow"],"right_color":"orange","left_color":"lightblue","left_mu":60,"right_mu":52,"left_numbers":[63,54,74,55,68],"right_numbers":[52,45,41,58,53],"points_earned":306,"phase":"task","trial_type":"horizons-task","trial_index":55,"time_elapsed":780997,"internal_node_id":"0.0-51.0","task_version":"0.2"},{"response_times":[1501.9500000053085,607.9150000005029,519.8949999758042,752.2099999478087,159.61000003153458],"keys_pressed":["leftarrow","leftarrow","rightarrow","leftarrow","leftarrow"],"horizon":5,"forced_choices":["leftarrow","leftarrow","rightarrow","leftarrow"],"right_color":"orange","left_color":"lightblue","left_mu":60,"right_mu":80,"left_numbers":[55,66,62,66,66],"right_numbers":[77,81,94,77,79],"points_earned":347,"phase":"task","trial_type":"horizons-task","trial_index":56,"time_elapsed":786045,"internal_node_id":"0.0-52.0","task_version":"0.2"},{"response_times":[630.3650000481866,456.05500001693144,751.734999998007,528.4649999812245,1455.6100000045262,175.56500004138798,135.98500000080094,128.035000001546,167.8049999754876,695.9500000230037],"keys_pressed":["rightarrow","leftarrow","leftarrow","rightarrow","rightarrow","rightarrow","rightarrow","rightarrow","rightarrow","rightarrow"],"horizon":10,"forced_choices":["rightarrow","leftarrow","leftarrow","rightarrow"],"right_color":"lightblue","left_color":"orange","left_mu":40,"right_mu":44,"left_numbers":[51,39,37,43,32,23,48,41,37,43],"right_numbers":[45,29,33,49,38,43,38,54,45,38],"points_earned":426,"phase":"task","trial_type":"horizons-task","trial_index":57,"time_elapsed":792676,"internal_node_id":"0.0-53.0","task_version":"0.2"},{"response_times":[935.8500000089407,783.9749999693595,791.8649999774061,983.7749999715015,607.9699999536388],"keys_pressed":["leftarrow","rightarrow","leftarrow","leftarrow","rightarrow"],"horizon":5,"forced_choices":["leftarrow","rightarrow","leftarrow","leftarrow"],"right_color":"lightblue","left_color":"orange","left_mu":40,"right_mu":70,"left_numbers":[36,43,41,27,57],"right_numbers":[73,70,62,56,77],"points_earned":251,"phase":"task","trial_type":"horizons-task","trial_index":58,"time_elapsed":798285,"internal_node_id":"0.0-54.0","task_version":"0.2"},{"response_times":[1263.2449999800883,487.82999999821186,647.7750000194646,719.8699999717064,511.8749999674037],"keys_pressed":["rightarrow","leftarrow","leftarrow","leftarrow","rightarrow"],"horizon":5,"forced_choices":["rightarrow","leftarrow","leftarrow","leftarrow"],"right_color":"lightblue","left_color":"orange","left_mu":60,"right_mu":90,"left_numbers":[62,52,39,57,48],"right_numbers":[82,85,106,84,85],"points_earned":315,"phase":"task","trial_type":"horizons-task","trial_index":59,"time_elapsed":803421,"internal_node_id":"0.0-55.0","task_version":"0.2"},{"response_times":[694.5849999901839,424.1899999906309,863.5099999955855,727.8900000383146,936.1850000568666,480.1699999952689,151.49999997811392,143.84499995503575,136.18499995209277,135.64999995287508],"keys_pressed":["leftarrow","rightarrow","leftarrow","leftarrow","rightarrow","rightarrow","rightarrow","rightarrow","rightarrow","rightarrow"],"horizon":10,"forced_choices":["leftarrow","rightarrow","leftarrow","leftarrow"],"right_color":"lightblue","left_color":"orange","left_mu":40,"right_mu":70,"left_numbers":[46,40,38,38,47,26,34,37,48,39],"right_numbers":[71,65,54,58,81,65,59,78,68,74],"points_earned":612,"phase":"task","trial_type":"horizons-task","trial_index":60,"time_elapsed":809620,"internal_node_id":"0.0-56.0","task_version":"0.2"},{"response_times":[711.1049999948591,791.8899999931455,623.7900000414811,943.9649999840185,471.84500005096197],"keys_pressed":["rightarrow","rightarrow","leftarrow","leftarrow","rightarrow"],"horizon":5,"forced_choices":["rightarrow","rightarrow","leftarrow","leftarrow"],"right_color":"lightblue","left_color":"orange","left_mu":40,"right_mu":48,"left_numbers":[41,43,25,25,47],"right_numbers":[52,51,49,46,52],"points_earned":205,"phase":"task","trial_type":"horizons-task","trial_index":61,"time_elapsed":814669,"internal_node_id":"0.0-57.0","task_version":"0.2"},{"response_times":[655.0350000034086,423.3849999727681,511.8450000300072,800.0299999839626,952.3400000180118,175.5849999608472,151.93999995244667,151.8999999971129,136.03500003227964,143.70999997481704],"keys_pressed":["rightarrow","rightarrow","leftarrow","rightarrow","rightarrow","rightarrow","rightarrow","rightarrow","rightarrow","rightarrow"],"horizon":10,"forced_choices":["rightarrow","rightarrow","leftarrow","rightarrow"],"right_color":"lightblue","left_color":"orange","left_mu":40,"right_mu":48,"left_numbers":[32,49,44,39,39,37,34,33,44,21],"right_numbers":[56,44,50,51,34,39,52,57,51,38],"points_earned":466,"phase":"task","trial_type":"horizons-task","trial_index":62,"time_elapsed":820276,"internal_node_id":"0.0-58.0","task_version":"0.2"},{"response_times":[815.9699999960139,608.089999994263,639.6399999503046,728.1699999584816,1223.604999948293,168.00000000512227,183.95000003511086,167.89499996230006,167.97499998938292,183.89500002376735],"keys_pressed":["leftarrow","leftarrow","rightarrow","leftarrow","leftarrow","leftarrow","leftarrow","leftarrow","leftarrow","leftarrow"],"horizon":10,"forced_choices":["leftarrow","leftarrow","rightarrow","leftarrow"],"right_color":"orange","left_color":"lightblue","left_mu":60,"right_mu":52,"left_numbers":[55,65,52,56,62,62,51,67,42,72],"right_numbers":[42,59,52,52,45,57,49,66,56,62],"points_earned":584,"phase":"task","trial_type":"horizons-task","trial_index":63,"time_elapsed":826670,"internal_node_id":"0.0-59.0","task_version":"0.2"},{"response_times":[735.5399999651127,735.454999958165,631.7699999781325,647.9299999773502,448.10499995946884],"keys_pressed":["rightarrow","rightarrow","leftarrow","leftarrow","rightarrow"],"horizon":5,"forced_choices":["rightarrow","rightarrow","leftarrow","leftarrow"],"right_color":"lightblue","left_color":"orange","left_mu":40,"right_mu":52,"left_numbers":[39,34,54,41,53],"right_numbers":[61,54,59,55,41],"points_earned":251,"phase":"task","trial_type":"horizons-task","trial_index":64,"time_elapsed":831373,"internal_node_id":"0.0-60.0","task_version":"0.2"},{"response_times":[767.1599999885075,720.0999999768101,463.6249999748543,567.975000012666,1319.885000004433],"keys_pressed":["leftarrow","leftarrow","leftarrow","rightarrow","leftarrow"],"horizon":5,"forced_choices":["leftarrow","leftarrow","leftarrow","rightarrow"],"right_color":"orange","left_color":"lightblue","left_mu":40,"right_mu":10,"left_numbers":[35,41,32,45,48],"right_numbers":[22,6,0,0,7],"points_earned":156,"phase":"task","trial_type":"horizons-task","trial_index":65,"time_elapsed":836716,"internal_node_id":"0.0-61.0","task_version":"0.2"},{"response_times":[647.1900000469759,1336.219999997411,599.3050000397488,784.189999976661,783.6449999595061,152.14999997988343,151.65000001434237,144.03000002494082,135.9950000187382,151.9099999568425],"keys_pressed":["rightarrow","leftarrow","leftarrow","leftarrow","rightarrow","rightarrow","rightarrow","rightarrow","rightarrow","rightarrow"],"horizon":10,"forced_choices":["rightarrow","leftarrow","leftarrow","leftarrow"],"right_color":"lightblue","left_color":"orange","left_mu":60,"right_mu":90,"left_numbers":[62,66,64,50,59,62,81,55,44,50],"right_numbers":[92,89,103,78,79,86,87,97,84,96],"points_earned":801,"phase":"task","trial_type":"horizons-task","trial_index":66,"time_elapsed":843110,"internal_node_id":"0.0-62.0","task_version":"0.2"},{"response_times":[598.1400000164285,431.73999997088686,775.9799999766983,472.00499998871237,904.1800000122748,159.82500003883615,151.66999999200925,135.84499998250976,144.1249999916181,151.7650000168942],"keys_pressed":["leftarrow","rightarrow","leftarrow","rightarrow","rightarrow","rightarrow","rightarrow","rightarrow","rightarrow","rightarrow"],"horizon":10,"forced_choices":["leftarrow","rightarrow","leftarrow","rightarrow"],"right_color":"lightblue","left_color":"orange","left_mu":40,"right_mu":70,"left_numbers":[49,26,33,46,43,40,44,44,28,43],"right_numbers":[65,60,77,71,61,74,78,79,65,70],"points_earned":640,"phase":"task","trial_type":"horizons-task","trial_index":67,"time_elapsed":848541,"internal_node_id":"0.0-63.0","task_version":"0.2"},{"response_times":[487.58999997517094,695.3949999879114,695.9650000208057,664.1550000058487,959.8950000363402],"keys_pressed":["leftarrow","leftarrow","rightarrow","rightarrow","leftarrow"],"horizon":5,"forced_choices":["leftarrow","leftarrow","rightarrow","rightarrow"],"right_color":"orange","left_color":"lightblue","left_mu":40,"right_mu":32,"left_numbers":[32,36,32,35,45],"right_numbers":[34,40,28,27,38],"points_earned":168,"phase":"task","trial_type":"horizons-task","trial_index":68,"time_elapsed":853549,"internal_node_id":"0.0-64.0","task_version":"0.2"},{"response_times":[2455.309999990277,1143.6800000374205,471.7999999993481,1616.4650000282563,831.3649999909103],"keys_pressed":["leftarrow","rightarrow","rightarrow","rightarrow","leftarrow"],"horizon":5,"forced_choices":["leftarrow","rightarrow","rightarrow","rightarrow"],"right_color":"orange","left_color":"lightblue","left_mu":40,"right_mu":32,"left_numbers":[39,29,39,35,46],"right_numbers":[39,23,20,25,32],"points_earned":153,"phase":"task","trial_type":"horizons-task","trial_index":69,"time_elapsed":861573,"internal_node_id":"0.0-65.0","task_version":"0.2"},{"response_times":[1095.5500000272878,639.9849999579601,543.9649999607354,296.52999999234453,151.2349999975413],"keys_pressed":["leftarrow","leftarrow","rightarrow","rightarrow","rightarrow"],"horizon":5,"forced_choices":["leftarrow","leftarrow","rightarrow","rightarrow"],"right_color":"lightblue","left_color":"orange","left_mu":40,"right_mu":36,"left_numbers":[33,45,37,41,39],"right_numbers":[61,41,34,43,37],"points_earned":192,"phase":"task","trial_type":"horizons-task","trial_index":70,"time_elapsed":865805,"internal_node_id":"0.0-66.0","task_version":"0.2"},{"response_times":[975.075000023935,751.5399999683723,663.9799999538809,672.1249999827705,175.8150000241585,720.1300000306219,175.86499999742955,151.9099999568425,143.83999997517094,151.8999999971129],"keys_pressed":["leftarrow","leftarrow","leftarrow","rightarrow","rightarrow","rightarrow","rightarrow","rightarrow","rightarrow","rightarrow"],"horizon":10,"forced_choices":["leftarrow","leftarrow","leftarrow","rightarrow"],"right_color":"lightblue","left_color":"orange","left_mu":60,"right_mu":40,"left_numbers":[69,50,37,71,72,74,70,58,50,48],"right_numbers":[45,45,28,29,24,50,29,40,29,39],"points_earned":396,"phase":"task","trial_type":"horizons-task","trial_index":71,"time_elapsed":871893,"internal_node_id":"0.0-67.0","task_version":"0.2"},{"response_times":[663.2799999788404,488.1900000036694,431.88499996904284,639.6650000242516,719.9099999852479,176.0750000248663,183.78000002121553,159.92000000551343,160.09999997913837,151.8250000081025],"keys_pressed":["leftarrow","leftarrow","leftarrow","rightarrow","leftarrow","leftarrow","leftarrow","leftarrow","leftarrow","leftarrow"],"horizon":10,"forced_choices":["leftarrow","leftarrow","leftarrow","rightarrow"],"right_color":"orange","left_color":"lightblue","left_mu":40,"right_mu":10,"left_numbers":[43,42,39,41,21,40,54,52,41,45],"right_numbers":[9,11,17,0,11,16,0,8,14,0],"points_earned":377,"phase":"task","trial_type":"horizons-task","trial_index":72,"time_elapsed":877174,"internal_node_id":"0.0-68.0","task_version":"0.2"},{"response_times":[1022.3400000249967,368.37999999988824,519.4550000014715,471.94499999750406,992.2800000058487,151.73000004142523,159.83999997843057,152.1500000380911,151.75999997882172,151.81499999016523],"keys_pressed":["leftarrow","rightarrow","rightarrow","rightarrow","rightarrow","rightarrow","rightarrow","rightarrow","rightarrow","rightarrow"],"horizon":10,"forced_choices":["leftarrow","rightarrow","rightarrow","rightarrow"],"right_color":"lightblue","left_color":"orange","left_mu":40,"right_mu":36,"left_numbers":[37,39,24,41,38,33,28,43,37,45],"right_numbers":[30,18,29,40,35,33,35,38,34,22],"points_earned":321,"phase":"task","trial_type":"horizons-task","trial_index":73,"time_elapsed":882821,"internal_node_id":"0.0-69.0","task_version":"0.2"},{"response_times":[695.7450000336394,888.7899999972433,1071.1400000145659,1111.8750000023283,823.9450000110082,159.9350000033155,167.94499999377877,151.88000001944602,200.13000001199543,175.77999999048188],"keys_pressed":["rightarrow","leftarrow","leftarrow","leftarrow","leftarrow","leftarrow","leftarrow","leftarrow","leftarrow","leftarrow"],"horizon":10,"forced_choices":["rightarrow","leftarrow","leftarrow","leftarrow"],"right_color":"orange","left_color":"lightblue","left_mu":60,"right_mu":30,"left_numbers":[70,58,61,54,52,54,60,62,43,48],"right_numbers":[32,41,31,25,32,43,30,30,35,41],"points_earned":524,"phase":"task","trial_type":"horizons-task","trial_index":74,"time_elapsed":889774,"internal_node_id":"0.0-70.0","task_version":"0.2"},{"response_times":[1231.4600000390783,1031.1799999908544,584.1350000118837,4784.060000034515,983.6550000472926,183.9250000193715,152.1550000179559,159.8050000029616,159.89999996963888,167.905000038445],"keys_pressed":["rightarrow","rightarrow","leftarrow","leftarrow","rightarrow","rightarrow","rightarrow","rightarrow","rightarrow","rightarrow"],"horizon":10,"forced_choices":["rightarrow","rightarrow","leftarrow","leftarrow"],"right_color":"lightblue","left_color":"orange","left_mu":40,"right_mu":52,"left_numbers":[37,29,46,35,43,40,33,46,41,28],"right_numbers":[39,42,53,52,49,48,42,40,43,63],"points_earned":447,"phase":"task","trial_type":"horizons-task","trial_index":75,"time_elapsed":900717,"internal_node_id":"0.0-71.0","task_version":"0.2"},{"response_times":[597.1449999487959,1063.4299999801442,655.9300000080839,583.939999982249,423.7800000119023],"keys_pressed":["rightarrow","rightarrow","leftarrow","rightarrow","rightarrow"],"horizon":5,"forced_choices":["rightarrow","rightarrow","leftarrow","rightarrow"],"right_color":"lightblue","left_color":"orange","left_mu":40,"right_mu":48,"left_numbers":[42,42,32,33,36],"right_numbers":[50,50,40,54,47],"points_earned":233,"phase":"task","trial_type":"horizons-task","trial_index":76,"time_elapsed":905549,"internal_node_id":"0.0-72.0","task_version":"0.2"},{"response_times":[583.6150000104681,1080.179999989923,1567.929999961052,503.8349999813363,487.8350000362843],"keys_pressed":["rightarrow","leftarrow","leftarrow","rightarrow","rightarrow"],"horizon":5,"forced_choices":["rightarrow","leftarrow","leftarrow","rightarrow"],"right_color":"lightblue","left_color":"orange","left_mu":40,"right_mu":44,"left_numbers":[37,34,41,46,44],"right_numbers":[48,46,73,50,43],"points_earned":216,"phase":"task","trial_type":"horizons-task","trial_index":77,"time_elapsed":911277,"internal_node_id":"0.0-73.0","task_version":"0.2"},{"response_times":[1031.6149999853224,511.3450000062585,383.9750000042841,431.88999994890764,1000.0299999956042],"keys_pressed":["leftarrow","rightarrow","rightarrow","rightarrow","rightarrow"],"horizon":5,"forced_choices":["leftarrow","rightarrow","rightarrow","rightarrow"],"right_color":"lightblue","left_color":"orange","left_mu":40,"right_mu":36,"left_numbers":[36,46,40,49,31],"right_numbers":[42,30,33,34,28],"points_earned":161,"phase":"task","trial_type":"horizons-task","trial_index":78,"time_elapsed":916142,"internal_node_id":"0.0-74.0","task_version":"0.2"},{"response_times":[1046.8700000201352,472.1600000048056,624.0300000063144,639.6599999861792,872.4049999727868,143.5899999924004,151.78000001469627,136.17000001249835,151.6950000077486,128.02500004181638],"keys_pressed":["leftarrow","rightarrow","rightarrow","leftarrow","rightarrow","rightarrow","rightarrow","rightarrow","rightarrow","rightarrow"],"horizon":10,"forced_choices":["leftarrow","rightarrow","rightarrow","leftarrow"],"right_color":"lightblue","left_color":"orange","left_mu":60,"right_mu":72,"left_numbers":[61,65,64,52,58,45,60,63,73,58],"right_numbers":[64,69,73,71,72,63,66,63,72,64],"points_earned":655,"phase":"task","trial_type":"horizons-task","trial_index":79,"time_elapsed":922013,"internal_node_id":"0.0-75.0","task_version":"0.2"},{"response_times":[679.0599999949336,495.7050000084564,471.9550000154413,672.1600000164472,863.8100000098348,175.8399999816902,151.8499999656342,151.9799999659881,151.84000000590459,160.14999995240942],"keys_pressed":["rightarrow","leftarrow","rightarrow","leftarrow","rightarrow","rightarrow","rightarrow","rightarrow","rightarrow","rightarrow"],"horizon":10,"forced_choices":["rightarrow","leftarrow","rightarrow","leftarrow"],"right_color":"lightblue","left_color":"orange","left_mu":40,"right_mu":60,"left_numbers":[39,48,41,37,40,37,49,30,37,30],"right_numbers":[63,53,57,66,67,56,61,63,58,50],"points_earned":560,"phase":"task","trial_type":"horizons-task","trial_index":80,"time_elapsed":927493,"internal_node_id":"0.0-76.0","task_version":"0.2"},{"response_times":[789.8999999742955,488.05499996524304,480.089999968186,615.7300000195391,807.7799999737181],"keys_pressed":["rightarrow","leftarrow","rightarrow","rightarrow","rightarrow"],"horizon":5,"forced_choices":["rightarrow","leftarrow","rightarrow","rightarrow"],"right_color":"lightblue","left_color":"orange","left_mu":40,"right_mu":28,"left_numbers":[23,48,28,45,41],"right_numbers":[33,10,25,22,29],"points_earned":157,"phase":"task","trial_type":"horizons-task","trial_index":81,"time_elapsed":932182,"internal_node_id":"0.0-77.0","task_version":"0.2"},{"response_times":[855.6300000054762,775.2800000016578,615.9249999909662,360.01000000396743,2079.955000022892],"keys_pressed":["leftarrow","rightarrow","rightarrow","rightarrow","leftarrow"],"horizon":5,"forced_choices":["leftarrow","rightarrow","rightarrow","rightarrow"],"right_color":"orange","left_color":"lightblue","left_mu":60,"right_mu":56,"left_numbers":[63,62,56,58,60],"right_numbers":[48,57,59,43,54],"points_earned":282,"phase":"task","trial_type":"horizons-task","trial_index":82,"time_elapsed":938373,"internal_node_id":"0.0-78.0","task_version":"0.2"},{"response_times":[1087.7699999837205,703.9300000178628,591.8649999657646,864.0050000394695,1088.0550000001676],"keys_pressed":["rightarrow","rightarrow","leftarrow","rightarrow","leftarrow"],"horizon":5,"forced_choices":["rightarrow","rightarrow","leftarrow","rightarrow"],"right_color":"orange","left_color":"lightblue","left_mu":40,"right_mu":20,"left_numbers":[34,54,37,37,42],"right_numbers":[22,35,5,5,15],"points_earned":141,"phase":"task","trial_type":"horizons-task","trial_index":83,"time_elapsed":944214,"internal_node_id":"0.0-79.0","task_version":"0.2"},{"response_times":[663.1400000187568,1047.5499999593012,504.0850000223145,567.7799999830313,791.9499999843538,160.16000002855435,175.760000012815,239.9299999815412,255.96500001847744,255.6600000243634],"keys_pressed":["leftarrow","rightarrow","leftarrow","rightarrow","leftarrow","leftarrow","leftarrow","leftarrow","leftarrow","leftarrow"],"horizon":10,"forced_choices":["leftarrow","rightarrow","leftarrow","rightarrow"],"right_color":"orange","left_color":"lightblue","left_mu":60,"right_mu":30,"left_numbers":[56,47,60,58,76,72,60,44,58,69],"right_numbers":[24,30,34,22,28,44,21,32,31,27],"points_earned":547,"phase":"task","trial_type":"horizons-task","trial_index":84,"time_elapsed":950381,"internal_node_id":"0.0-80.0","task_version":"0.2"},{"response_times":[686.9249999872409,617.8599999984726,437.98500002594665,751.6549999709241,1119.940000004135,159.97499995864928,143.9900000113994,159.8249999806285,143.915000022389,135.8699999982491],"keys_pressed":["leftarrow","rightarrow","leftarrow","leftarrow","rightarrow","rightarrow","rightarrow","rightarrow","rightarrow","rightarrow"],"horizon":10,"forced_choices":["leftarrow","rightarrow","leftarrow","leftarrow"],"right_color":"lightblue","left_color":"orange","left_mu":40,"right_mu":60,"left_numbers":[15,33,48,43,38,37,36,60,51,33],"right_numbers":[61,57,59,50,53,39,48,51,56,56],"points_earned":466,"phase":"task","trial_type":"horizons-task","trial_index":85,"time_elapsed":956245,"internal_node_id":"0.0-81.0","task_version":"0.2"},{"response_times":[535.7550000189804,415.82500003278255,575.524999992922,607.9200000385754,1023.9949999959208],"keys_pressed":["leftarrow","rightarrow","leftarrow","rightarrow","rightarrow"],"horizon":5,"forced_choices":["leftarrow","rightarrow","leftarrow","rightarrow"],"right_color":"lightblue","left_color":"orange","left_mu":60,"right_mu":40,"left_numbers":[64,61,66,63,60],"right_numbers":[30,55,38,43,43],"points_earned":271,"phase":"task","trial_type":"horizons-task","trial_index":86,"time_elapsed":960909,"internal_node_id":"0.0-82.0","task_version":"0.2"},{"response_times":[631.325000023935,671.764999977313,496.0499999579042,783.6449999595061,983.9650000212714,167.97000000951812,159.795000043232,159.96999997878447,159.86000001430511,151.94499999051914],"keys_pressed":["rightarrow","leftarrow","rightarrow","rightarrow","leftarrow","leftarrow","leftarrow","leftarrow","leftarrow","leftarrow"],"horizon":10,"forced_choices":["rightarrow","leftarrow","rightarrow","rightarrow"],"right_color":"orange","left_color":"lightblue","left_mu":60,"right_mu":68,"left_numbers":[67,57,50,54,70,67,43,76,58,62],"right_numbers":[57,70,47,68,68,75,78,61,72,71],"points_earned":605,"phase":"task","trial_type":"horizons-task","trial_index":87,"time_elapsed":966780,"internal_node_id":"0.0-83.0","task_version":"0.2"},{"response_times":[448.6800000304356,1575.23499999661,1087.7500000060536,720.035000005737,736.1750000272878,159.70499999821186,151.92999999271706,151.83499996783212,143.89499998651445,143.95499997772276],"keys_pressed":["rightarrow","rightarrow","rightarrow","leftarrow","rightarrow","rightarrow","rightarrow","rightarrow","rightarrow","rightarrow"],"horizon":10,"forced_choices":["rightarrow","rightarrow","rightarrow","leftarrow"],"right_color":"lightblue","left_color":"orange","left_mu":40,"right_mu":44,"left_numbers":[42,32,55,32,33,29,33,46,37,46],"right_numbers":[30,41,40,52,48,51,61,57,50,50],"points_earned":460,"phase":"task","trial_type":"horizons-task","trial_index":88,"time_elapsed":973606,"internal_node_id":"0.0-84.0","task_version":"0.2"},{"response_times":[607.0199999958277,1223.7800000002608,655.8099999674596,528.070000000298,800.325000018347],"keys_pressed":["rightarrow","leftarrow","leftarrow","rightarrow","leftarrow"],"horizon":5,"forced_choices":["rightarrow","leftarrow","leftarrow","rightarrow"],"right_color":"orange","left_color":"lightblue","left_mu":40,"right_mu":20,"left_numbers":[46,28,46,35,28],"right_numbers":[18,14,16,27,19],"points_earned":147,"phase":"task","trial_type":"horizons-task","trial_index":89,"time_elapsed":978926,"internal_node_id":"0.0-85.0","task_version":"0.2"},{"response_times":[622.9900000034831,1367.774999991525,623.9500000374392,776.2499999953434,1095.8949999767356,191.69499998679385,168.00000000512227,160.29500000877306,175.57000002125278,152.03500003553927],"keys_pressed":["rightarrow","rightarrow","leftarrow","rightarrow","leftarrow","leftarrow","leftarrow","leftarrow","leftarrow","leftarrow"],"horizon":10,"forced_choices":["rightarrow","rightarrow","leftarrow","rightarrow"],"right_color":"orange","left_color":"lightblue","left_mu":40,"right_mu":20,"left_numbers":[45,44,27,44,37,51,38,56,36,38],"right_numbers":[35,15,0,25,15,39,25,19,11,26],"points_earned":358,"phase":"task","trial_type":"horizons-task","trial_index":90,"time_elapsed":985766,"internal_node_id":"0.0-86.0","task_version":"0.2"},{"response_times":[574.1099999868311,632.0149999810383,584.1700000455603,615.334999980405,848.0700000072829],"keys_pressed":["rightarrow","rightarrow","leftarrow","leftarrow","leftarrow"],"horizon":5,"forced_choices":["rightarrow","rightarrow","leftarrow","leftarrow"],"right_color":"orange","left_color":"lightblue","left_mu":60,"right_mu":56,"left_numbers":[48,57,56,75,53],"right_numbers":[57,43,60,59,62],"points_earned":284,"phase":"task","trial_type":"horizons-task","trial_index":91,"time_elapsed":990525,"internal_node_id":"0.0-87.0","task_version":"0.2"},{"rt":25440.969999996014,"responses":{"age":"21","gender-categorical":"Female","gender-free-response":"","ethnicity":"Not Hispanic or Latino","race":["White"],"language":"Yes","fluency":"Very well"},"survey":"demographics","trial_type":"survey-demo","trial_index":92,"time_elapsed":1015975,"internal_node_id":"0.0-88.0","task_version":"0.2"},{"rt":51164.815000025555,"responses":{"difficulty":"5","fun":"5","clarity":"5","strategy":"I tried to mentally remember the numbers to average them out and choose the best machine","feedback":""},"survey":"debrief","trial_type":"survey-debrief","trial_index":93,"time_elapsed":1067149,"internal_node_id":"0.0-89.0","task_version":"0.2","interactions":"[{\"event\":\"blur\",\"trial\":51,\"time\":752875},{\"event\":\"focus\",\"trial\":51,\"time\":753074}]"}]