[{"view_history":"[{\"page_index\":0,\"viewing_time\":5680.109999957494}]","rt":5680.939999991097,"trial_type":"instructions","trial_index":0,"time_elapsed":5690,"internal_node_id":"0.0-0.0","task_version":"0.2"},{"item_order":[4,15,11,9,12,5,10,3,7,6,2,14,13,8,0,1],"responses":{"Q05":"3","Q16":"3","Q12":"3","Q10":"2","Q13":"2","Q06":"2","Q11":"3","Q04":"3","Q08":"3","Q07":"3","Q03":"2","Q15":"2","Q14":"2","Q09":"3","Q01":"4","Q02":"4"},"radio_events":[6021.345000015572,8520.23000002373,9594.145000039134,12424.745000025723,13562.87500000326,14288.630000024568,16333.03000003798,16936.235000030138,18966.264999995474,19410.495000018273,22799.334999988787,25034.58999999566,26596.755000005942,27856.614999996964,28944.07999998657,29920.21000001114,30723.920000018552,38371.95000000065],"key_events":[],"mouse_events":[0.3700000233948231,6021.345000015572,6495.909999997821,7528.8650000002235,8002.934999996796,8520.23000002373,8940.869999991264,9594.145000039134,10026.149999990594,10492.454999999609,10855.1350000198,11454.310000000987,12424.745000025723,13032.295000040904,13562.87500000326,14288.630000024568,15185.954999993555,15999.1250000312,16333.03000003798,16936.235000030138,18344.730000011623,18966.264999995474,19410.495000018273,20278.404999990016,21207.185000006575,21765.905000036582,22450.155000027735,22799.334999988787,23692.58999999147,25034.58999999566,26051.169999991544,26596.755000005942,27856.614999996964,28944.07999998657,29920.21000001114,30723.920000018552,36644.97000002302,37368.69500001194,37724.250000028405,38371.95000000065,39088.53499998804],"rt":39091.01000003284,"survey":"nfc","trial_type":"survey-template","trial_index":1,"time_elapsed":44785,"internal_node_id":"0.0-1.0","task_version":"0.2"},{"item_order":[7,6,2,5,11,0,3,4,12,9,8,1,10],"responses":{"Q08":"2","Q07":"2","Q03":"2","Q06":"1","Q12":"1","Q01":"1","Q04":"2","Q05":"2","Q13":"4","Q10":"2","Q09":"2","Q02":"2","Q11":"3"},"radio_events":[7903.3800000324845,12781.995000026654,13743.735000025481,15395.224999985658,15872.455000004265,16821.490000002086,18711.799999990035,20302.00500000501,21919.745000021067,23061.655000026803,23632.090000028256,25774.0600000252,27563.480000011623,28951.980000012554],"key_events":[],"mouse_events":[3732.205000007525,7431.225000007544,7903.3800000324845,9320.164999982808,11689.904999977443,12337.360000004992,12781.995000026654,13743.735000025481,14337.654999981169,14929.264999984298,15395.224999985658,15872.455000004265,16821.490000002086,18353.605000011157,18711.799999990035,20302.00500000501,21586.000000010245,21919.745000021067,23061.655000026803,23632.090000028256,24942.16500001494,25382.250000024214,25774.0600000252,26343.61500001978,26731.37500003213,27563.480000011623,28951.980000012554,31447.730000014417],"rt":31449.239999987185,"survey":"ius12","trial_type":"survey-template","trial_index":2,"time_elapsed":76239,"internal_node_id":"0.0-2.0","task_version":"0.2"},{"item_order":[6,3,14,8,12,7,4,16,9,0,1,2,5,10,13,15,11],"responses":{"Q07":"3","Q04":"2","Q15":"2","Q09":"2","Q13":"2","Q08":"2","Q05":"2","Q17":"0","Q10":"1","Q01":"3","Q02":"1","Q03":"2","Q06":"1","Q11":"2","Q14":"2","Q16":"2","Q12":"2"},"radio_events":[5879.35500004096,7628.290000022389,10087.265000038315,12062.580000027083,13041.035000002012,13814.760000037495,14585.305000015069,15808.725000009872,18111.435000027996,20217.420000000857,22326.810000056867,22946.650000056252,29898.900000029244,32041.490000032354,34411.575000034645,36012.81500002369,37101.625000010245,39280.96000000369,40264.5500000217],"key_events":[],"mouse_events":[4978.445000015199,5469.830000016373,5879.35500004096,6380.915000045206,7628.290000022389,8187.2150000417605,10087.265000038315,11323.755000019446,11648.630000010598,12062.580000027083,12759.56000003498,13041.035000002012,13814.760000037495,14274.755000020377,14585.305000015069,15377.225000003818,15808.725000009872,18111.435000027996,20217.420000000857,20840.905000048224,21973.875000025146,22326.810000056867,22946.650000056252,23570.23500005016,24136.870000045747,25278.795000049286,28540.515000000596,29898.900000029244,31084.915000014007,32041.490000032354,33627.510000020266,34411.575000034645,36012.81500002369,37101.625000010245,38229.32000004221,38626.65000004927,39280.96000000369,40264.5500000217,41534.87000003224],"rt":41536.68000001926,"survey":"pswq","trial_type":"survey-template","trial_index":3,"time_elapsed":117782,"internal_node_id":"0.0-3.0","task_version":"0.2"},{"view_history":"[{\"page_index\":0,\"viewing_time\":7263.62500002142},{\"page_index\":1,\"viewing_time\":3333.5400000214577},{\"page_index\":2,\"viewing_time\":7218.134999973699},{\"page_index\":3,\"viewing_time\":5922.000000020489},{\"page_index\":4,\"viewing_time\":4550.185000000056},{\"page_index\":5,\"viewing_time\":3744.4649999961257},{\"page_index\":6,\"viewing_time\":3739.6200000075623},{\"page_index\":7,\"viewing_time\":6331.379999988712},{\"page_index\":8,\"viewing_time\":4318.28000000678},{\"page_index\":9,\"viewing_time\":4570.084999955725}]","rt":50992.10500001209,"trial_type":"instructions","trial_index":4,"time_elapsed":168778,"internal_node_id":"0.0-4.0-0.0","task_version":"0.2"},{"response_times":[1822.4850000115111,814.3750000162981,471.6350000235252,576.5649999957532,2111.830000008922],"keys_pressed":["rightarrow","leftarrow","rightarrow","rightarrow","rightarrow"],"horizon":5,"forced_choices":["rightarrow","leftarrow","rightarrow","rightarrow"],"right_color":"lightblue","left_color":"orange","left_mu":40,"right_mu":20,"left_numbers":[35,30,36,42,48],"right_numbers":[18,5,38,8,13],"points_earned":107,"phase":"practice","trial_type":"horizons-task","trial_index":5,"time_elapsed":176084,"internal_node_id":"0.0-4.0-1.0","task_version":"0.2"},{"response_times":[1049.924999999348,528.0599999823608,415.9400000353344,479.6249999781139,2447.715000016615,1696.2949999724515,1895.9449999965727,2152.299999957904,1223.839999991469,1248.0999999679625],"keys_pressed":["leftarrow","leftarrow","rightarrow","rightarrow","rightarrow","rightarrow","leftarrow","leftarrow","leftarrow","leftarrow"],"horizon":10,"forced_choices":["leftarrow","leftarrow","rightarrow","rightarrow"],"right_color":"orange","left_color":"lightblue","left_mu":60,"right_mu":70,"left_numbers":[59,72,52,45,60,76,66,67,71,61],"right_numbers":[69,66,65,77,69,63,73,67,50,57],"points_earned":670,"phase":"practice","trial_type":"horizons-task","trial_index":6,"time_elapsed":190724,"internal_node_id":"0.0-4.0-2.0","task_version":"0.2"},{"view_history":"[{\"page_index\":0,\"viewing_time\":1976.395000005141},{\"page_index\":1,\"viewing_time\":1668.790000025183},{\"page_index\":2,\"viewing_time\":3449.499999987893},{\"page_index\":3,\"viewing_time\":745.3399999649264}]","rt":7840.439999999944,"trial_type":"instructions","trial_index":7,"time_elapsed":198565,"internal_node_id":"0.0-4.0-3.0","task_version":"0.2"},{"responses":["true","false","true"],"num_errors":0,"rt":8522.969999990892,"trial_type":"horizons-comprehension","trial_index":8,"time_elapsed":207090,"internal_node_id":"0.0-4.0-4.0","task_version":"0.2"},{"trial_type":"call-function","trial_index":9,"time_elapsed":207095,"internal_node_id":"0.0-5.0","task_version":"0.2"},{"view_history":"[{\"page_index\":0,\"viewing_time\":1127.5199999799952},{\"page_index\":1,\"viewing_time\":2443.9800000400282}]","rt":3571.8699999852106,"trial_type":"instructions","trial_index":10,"time_elapsed":210667,"internal_node_id":"0.0-6.0","task_version":"0.2"},{"response_times":[1311.2449999898672,343.979999946896,424.0350000327453,367.8000000072643,688.0850000306964,743.9599999925122,695.9700000006706,791.6249999543652,592.2300000092946,1055.7450000196695],"keys_pressed":["rightarrow","leftarrow","leftarrow","rightarrow","leftarrow","rightarrow","rightarrow","leftarrow","rightarrow","rightarrow"],"horizon":10,"forced_choices":["rightarrow","leftarrow","leftarrow","rightarrow"],"right_color":"orange","left_color":"lightblue","left_mu":40,"right_mu":52,"left_numbers":[35,47,37,52,38,33,52,44,36,43],"right_numbers":[33,54,46,39,48,52,65,45,43,55],"points_earned":453,"phase":"task","trial_type":"horizons-task","trial_index":11,"time_elapsed":219188,"internal_node_id":"0.0-7.0","task_version":"0.2"},{"response_times":[513.4550000075251,423.81499998737127,520.0349999940954,511.8650000076741,440.07500004954636,784.0449999785051,519.884999957867,688.0249999812804,599.7450000140816,615.8649999997579],"keys_pressed":["rightarrow","leftarrow","leftarrow","leftarrow","rightarrow","rightarrow","leftarrow","leftarrow","rightarrow","rightarrow"],"horizon":10,"forced_choices":["rightarrow","leftarrow","leftarrow","leftarrow"],"right_color":"lightblue","left_color":"orange","left_mu":60,"right_mu":64,"left_numbers":[62,54,51,56,69,59,67,65,53,68],"right_numbers":[70,63,65,65,64,48,57,64,75,67],"points_earned":617,"phase":"task","trial_type":"horizons-task","trial_index":12,"time_elapsed":226308,"internal_node_id":"0.0-8.0","task_version":"0.2"},{"response_times":[1033.8950000004843,471.674999978859,495.95000001136214,551.8799999845214,616.0599999711849],"keys_pressed":["leftarrow","leftarrow","rightarrow","rightarrow","leftarrow"],"horizon":5,"forced_choices":["leftarrow","leftarrow","rightarrow","rightarrow"],"right_color":"lightblue","left_color":"orange","left_mu":40,"right_mu":36,"left_numbers":[36,31,26,39,43],"right_numbers":[30,46,32,37,34],"points_earned":179,"phase":"task","trial_type":"horizons-task","trial_index":13,"time_elapsed":230980,"internal_node_id":"0.0-9.0","task_version":"0.2"},{"response_times":[650.0099999830127,439.8500000243075,479.7699999762699,399.8049999936484,664.3749999930151,479.98000000370666,456.06499997666106,543.7050000182353,567.9850000306033,512.0050000259653],"keys_pressed":["leftarrow","rightarrow","rightarrow","leftarrow","rightarrow","leftarrow","leftarrow","leftarrow","rightarrow","rightarrow"],"horizon":10,"forced_choices":["leftarrow","rightarrow","rightarrow","leftarrow"],"right_color":"orange","left_color":"lightblue","left_mu":60,"right_mu":72,"left_numbers":[69,44,57,59,42,64,53,48,59,64],"right_numbers":[75,61,72,73,61,78,81,72,65,70],"points_earned":622,"phase":"task","trial_type":"horizons-task","trial_index":14,"time_elapsed":237676,"internal_node_id":"0.0-10.0","task_version":"0.2"},{"response_times":[610.114999988582,455.78499999828637,447.9799999971874,512.0199999655597,495.9950000047684],"keys_pressed":["rightarrow","leftarrow","rightarrow","rightarrow","leftarrow"],"horizon":5,"forced_choices":["rightarrow","leftarrow","rightarrow","rightarrow"],"right_color":"orange","left_color":"lightblue","left_mu":60,"right_mu":72,"left_numbers":[69,58,60,59,52],"right_numbers":[76,80,63,82,65],"points_earned":331,"phase":"task","trial_type":"horizons-task","trial_index":15,"time_elapsed":241701,"internal_node_id":"0.0-11.0","task_version":"0.2"},{"response_times":[504.39499999629334,1048.0100000277162,664.0050000278279,519.6400000131689,424.34999998658895],"keys_pressed":["rightarrow","leftarrow","leftarrow","leftarrow","rightarrow"],"horizon":5,"forced_choices":["rightarrow","leftarrow","leftarrow","leftarrow"],"right_color":"lightblue","left_color":"orange","left_mu":60,"right_mu":90,"left_numbers":[45,52,54,51,62],"right_numbers":[85,80,95,83,94],"points_earned":336,"phase":"task","trial_type":"horizons-task","trial_index":16,"time_elapsed":246364,"internal_node_id":"0.0-12.0","task_version":"0.2"},{"response_times":[682.0949999964796,591.9200000353158,479.59000000264496,440.4750000103377,687.7049999893643],"keys_pressed":["leftarrow","leftarrow","rightarrow","leftarrow","leftarrow"],"horizon":5,"forced_choices":["leftarrow","leftarrow","rightarrow","leftarrow"],"right_color":"orange","left_color":"lightblue","left_mu":40,"right_mu":20,"left_numbers":[31,37,46,45,54],"right_numbers":[4,33,27,16,21],"points_earned":194,"phase":"task","trial_type":"horizons-task","trial_index":17,"time_elapsed":250748,"internal_node_id":"0.0-13.0","task_version":"0.2"},{"response_times":[666.3200000184588,463.6799999861978,576.0000000009313,448.0650000041351,751.7050000024028],"keys_pressed":["leftarrow","leftarrow","leftarrow","rightarrow","rightarrow"],"horizon":5,"forced_choices":["leftarrow","leftarrow","leftarrow","rightarrow"],"right_color":"orange","left_color":"lightblue","left_mu":40,"right_mu":28,"left_numbers":[32,37,31,49,57],"right_numbers":[35,25,24,22,35],"points_earned":157,"phase":"task","trial_type":"horizons-task","trial_index":18,"time_elapsed":255155,"internal_node_id":"0.0-14.0","task_version":"0.2"},{"response_times":[578.8000000175089,407.52000000793487,472.07000001799315,504.224999982398,1176.000000035856],"keys_pressed":["rightarrow","leftarrow","leftarrow","rightarrow","rightarrow"],"horizon":5,"forced_choices":["rightarrow","leftarrow","leftarrow","rightarrow"],"right_color":"lightblue","left_color":"orange","left_mu":60,"right_mu":56,"left_numbers":[66,68,62,58,45],"right_numbers":[61,53,68,67,61],"points_earned":319,"phase":"task","trial_type":"horizons-task","trial_index":19,"time_elapsed":259796,"internal_node_id":"0.0-15.0","task_version":"0.2"},{"response_times":[521.6650000074878,471.674999978859,400.47500003129244,415.8750000060536,583.634999988135,815.7750000245869,1136.2450000015087,544.0850000013597,512.224999954924,575.7600000360981],"keys_pressed":["rightarrow","rightarrow","leftarrow","rightarrow","leftarrow","rightarrow","rightarrow","rightarrow","rightarrow","rightarrow"],"horizon":10,"forced_choices":["rightarrow","rightarrow","leftarrow","rightarrow"],"right_color":"orange","left_color":"lightblue","left_mu":40,"right_mu":52,"left_numbers":[27,42,36,43,25,36,34,31,47,53],"right_numbers":[62,45,57,59,49,42,52,59,42,41],"points_earned":463,"phase":"task","trial_type":"horizons-task","trial_index":20,"time_elapsed":267276,"internal_node_id":"0.0-16.0","task_version":"0.2"},{"response_times":[665.9050000016578,375.88499998673797,439.6249999990687,495.9950000047684,712.3999999603257],"keys_pressed":["rightarrow","leftarrow","rightarrow","leftarrow","leftarrow"],"horizon":5,"forced_choices":["rightarrow","leftarrow","rightarrow","leftarrow"],"right_color":"lightblue","left_color":"orange","left_mu":40,"right_mu":44,"left_numbers":[33,44,41,44,36],"right_numbers":[46,49,43,45,55],"points_earned":213,"phase":"task","trial_type":"horizons-task","trial_index":21,"time_elapsed":271469,"internal_node_id":"0.0-17.0","task_version":"0.2"},{"response_times":[601.2399999890476,615.60499999905,368.1699999724515,471.67500003706664,608.2650000462309,615.9399999887682,552.0250000408851,535.7450000010431,608.3050000015646,607.9250000184402],"keys_pressed":["rightarrow","leftarrow","rightarrow","leftarrow","leftarrow","leftarrow","leftarrow","leftarrow","leftarrow","leftarrow"],"horizon":10,"forced_choices":["rightarrow","leftarrow","rightarrow","leftarrow"],"right_color":"orange","left_color":"lightblue","left_mu":40,"right_mu":48,"left_numbers":[39,35,47,34,30,51,40,45,44,55],"right_numbers":[40,51,53,55,50,43,29,57,58,36],"points_earned":427,"phase":"task","trial_type":"horizons-task","trial_index":22,"time_elapsed":278557,"internal_node_id":"0.0-18.0","task_version":"0.2"},{"response_times":[616.8200000538491,424.21500000637025,399.81999999145046,799.5050000026822,496.2800000212155,760.4150000261143,519.4800000172108,512.3499999754131,729.6750000095926,1013.8649999862537],"keys_pressed":["leftarrow","leftarrow","rightarrow","rightarrow","leftarrow","rightarrow","leftarrow","leftarrow","rightarrow","rightarrow"],"horizon":10,"forced_choices":["leftarrow","leftarrow","rightarrow","rightarrow"],"right_color":"orange","left_color":"lightblue","left_mu":40,"right_mu":60,"left_numbers":[37,26,38,39,35,26,41,57,38,32],"right_numbers":[62,68,54,60,63,43,68,54,57,57],"points_earned":467,"phase":"task","trial_type":"horizons-task","trial_index":23,"time_elapsed":286332,"internal_node_id":"0.0-19.0","task_version":"0.2"},{"response_times":[625.255000020843,392.2349999775179,480.0550000509247,352.0649999845773,631.6399999777786],"keys_pressed":["leftarrow","leftarrow","rightarrow","leftarrow","rightarrow"],"horizon":5,"forced_choices":["leftarrow","leftarrow","rightarrow","leftarrow"],"right_color":"lightblue","left_color":"orange","left_mu":60,"right_mu":80,"left_numbers":[47,68,46,66,71],"right_numbers":[75,83,77,81,82],"points_earned":340,"phase":"task","trial_type":"horizons-task","trial_index":24,"time_elapsed":290315,"internal_node_id":"0.0-20.0","task_version":"0.2"},{"response_times":[642.1350000309758,464.22500000335276,432.0300000254065,423.7900000298396,384.2549999826588,520.1550000347197,647.6350000011735,407.77500002877787,472.1099999733269,455.85000002756715],"keys_pressed":["rightarrow","rightarrow","rightarrow","leftarrow","rightarrow","rightarrow","leftarrow","rightarrow","rightarrow","rightarrow"],"horizon":10,"forced_choices":["rightarrow","rightarrow","rightarrow","leftarrow"],"right_color":"lightblue","left_color":"orange","left_mu":40,"right_mu":70,"left_numbers":[35,33,41,49,42,43,46,50,30,33],"right_numbers":[75,69,75,65,54,60,59,78,63,69],"points_earned":638,"phase":"task","trial_type":"horizons-task","trial_index":25,"time_elapsed":296668,"internal_node_id":"0.0-21.0","task_version":"0.2"},{"response_times":[650.1999999745749,439.829999988433,423.7100000027567,456.1749999993481,224.01000000536442,439.89999999757856,344.04499997617677,527.6599999633618,536.1099999863654,240.16499996650964],"keys_pressed":["leftarrow","rightarrow","leftarrow","rightarrow","leftarrow","leftarrow","leftarrow","rightarrow","leftarrow","leftarrow"],"horizon":10,"forced_choices":["leftarrow","rightarrow","leftarrow","rightarrow"],"right_color":"orange","left_color":"lightblue","left_mu":60,"right_mu":52,"left_numbers":[62,67,59,60,51,55,58,52,47,60],"right_numbers":[48,50,57,65,59,60,58,43,54,48],"points_earned":550,"phase":"task","trial_type":"horizons-task","trial_index":26,"time_elapsed":302453,"internal_node_id":"0.0-22.0","task_version":"0.2"},{"response_times":[537.0600000023842,424.07499998807907,487.8150000004098,304.3250000337139,271.70000004116446],"keys_pressed":["rightarrow","rightarrow","leftarrow","rightarrow","rightarrow"],"horizon":5,"forced_choices":["rightarrow","rightarrow","leftarrow","rightarrow"],"right_color":"orange","left_color":"lightblue","left_mu":60,"right_mu":68,"left_numbers":[50,56,49,66,56],"right_numbers":[59,51,52,76,70],"points_earned":305,"phase":"task","trial_type":"horizons-task","trial_index":27,"time_elapsed":305979,"internal_node_id":"0.0-23.0","task_version":"0.2"},{"response_times":[579.2600000277162,399.70999996876344,271.85499999905005,408.11000001849607,727.8700000024401,888.0449999705888,615.7300000195391,407.8599999775179,343.6999999685213,384.15499997790903],"keys_pressed":["rightarrow","rightarrow","rightarrow","leftarrow","leftarrow","rightarrow","leftarrow","leftarrow","leftarrow","leftarrow"],"horizon":10,"forced_choices":["rightarrow","rightarrow","rightarrow","leftarrow"],"right_color":"lightblue","left_color":"orange","left_mu":60,"right_mu":56,"left_numbers":[57,55,51,67,56,48,57,63,68,55],"right_numbers":[54,58,47,55,76,51,53,58,61,60],"points_earned":576,"phase":"task","trial_type":"horizons-task","trial_index":28,"time_elapsed":312508,"internal_node_id":"0.0-24.0","task_version":"0.2"},{"response_times":[993.6100000049919,424.00500003714114,247.87500000093132,392.1550000086427,487.89500002749264,383.7799999746494,295.86000001290813,384.28499997826293,359.8900000215508,311.74500001361594],"keys_pressed":["rightarrow","leftarrow","rightarrow","rightarrow","leftarrow","rightarrow","rightarrow","rightarrow","rightarrow","rightarrow"],"horizon":10,"forced_choices":["rightarrow","leftarrow","rightarrow","rightarrow"],"right_color":"orange","left_color":"lightblue","left_mu":60,"right_mu":72,"left_numbers":[42,51,63,58,62,52,56,62,62,69],"right_numbers":[61,58,66,73,83,78,76,76,71,71],"points_earned":685,"phase":"task","trial_type":"horizons-task","trial_index":29,"time_elapsed":318291,"internal_node_id":"0.0-25.0","task_version":"0.2"},{"response_times":[594.2299999878742,392.4600000027567,239.79500000132248,504.30999998934567,511.70999999158084],"keys_pressed":["leftarrow","rightarrow","leftarrow","rightarrow","leftarrow"],"horizon":5,"forced_choices":["leftarrow","rightarrow","leftarrow","rightarrow"],"right_color":"orange","left_color":"lightblue","left_mu":60,"right_mu":52,"left_numbers":[60,64,59,66,65],"right_numbers":[57,59,48,52,52],"points_earned":295,"phase":"task","trial_type":"horizons-task","trial_index":30,"time_elapsed":322036,"internal_node_id":"0.0-26.0","task_version":"0.2"},{"response_times":[578.075000026729,375.7900000200607,296.3950000121258,440.15500001842156,631.8000000319444],"keys_pressed":["rightarrow","rightarrow","rightarrow","leftarrow","leftarrow"],"horizon":5,"forced_choices":["rightarrow","rightarrow","rightarrow","leftarrow"],"right_color":"lightblue","left_color":"orange","left_mu":60,"right_mu":56,"left_numbers":[64,44,45,57,58],"right_numbers":[54,64,56,49,55],"points_earned":289,"phase":"task","trial_type":"horizons-task","trial_index":31,"time_elapsed":325859,"internal_node_id":"0.0-27.0","task_version":"0.2"},{"response_times":[537.8999999957159,416.2600000272505,408.1949999672361,359.8900000215508,592.0599999953993],"keys_pressed":["leftarrow","rightarrow","leftarrow","rightarrow","rightarrow"],"horizon":5,"forced_choices":["leftarrow","rightarrow","leftarrow","rightarrow"],"right_color":"lightblue","left_color":"orange","left_mu":60,"right_mu":64,"left_numbers":[65,54,48,59,67],"right_numbers":[57,72,66,65,79],"points_earned":329,"phase":"task","trial_type":"horizons-task","trial_index":32,"time_elapsed":329676,"internal_node_id":"0.0-28.0","task_version":"0.2"},{"response_times":[609.2700000153854,359.91500003729016,439.8800000199117,288.20000000996515,759.8400000133552],"keys_pressed":["rightarrow","rightarrow","leftarrow","rightarrow","leftarrow"],"horizon":5,"forced_choices":["rightarrow","rightarrow","leftarrow","rightarrow"],"right_color":"orange","left_color":"lightblue","left_mu":40,"right_mu":52,"left_numbers":[27,43,40,35,56],"right_numbers":[43,45,45,68,59],"points_earned":252,"phase":"task","trial_type":"horizons-task","trial_index":33,"time_elapsed":333636,"internal_node_id":"0.0-29.0","task_version":"0.2"},{"response_times":[713.980000000447,359.7450000233948,631.519999995362,520.1699999743141,408.31500000786036,575.9100000141189,543.9049999695271,455.98999998765066,504.17500000912696,471.7600000440143],"keys_pressed":["leftarrow","leftarrow","rightarrow","rightarrow","leftarrow","leftarrow","leftarrow","leftarrow","leftarrow","leftarrow"],"horizon":10,"forced_choices":["leftarrow","leftarrow","rightarrow","rightarrow"],"right_color":"lightblue","left_color":"orange","left_mu":60,"right_mu":40,"left_numbers":[55,57,51,75,73,68,71,67,72,67],"right_numbers":[44,42,31,35,40,57,34,42,35,29],"points_earned":596,"phase":"task","trial_type":"horizons-task","trial_index":34,"time_elapsed":340324,"internal_node_id":"0.0-30.0","task_version":"0.2"},{"response_times":[1162.0950000360608,439.91499999538064,479.5499999891035,416.3800000096671,552.144999965094],"keys_pressed":["leftarrow","leftarrow","rightarrow","leftarrow","rightarrow"],"horizon":5,"forced_choices":["leftarrow","leftarrow","rightarrow","leftarrow"],"right_color":"orange","left_color":"lightblue","left_mu":40,"right_mu":32,"left_numbers":[47,30,50,28,37],"right_numbers":[25,42,26,34,22],"points_earned":153,"phase":"task","trial_type":"horizons-task","trial_index":35,"time_elapsed":344876,"internal_node_id":"0.0-31.0","task_version":"0.2"},{"response_times":[489.4600000116043,352.1299999556504,423.82999998517334,440.085000009276,608.0049999873154],"keys_pressed":["leftarrow","leftarrow","rightarrow","rightarrow","leftarrow"],"horizon":5,"forced_choices":["leftarrow","leftarrow","rightarrow","rightarrow"],"right_color":"lightblue","left_color":"orange","left_mu":60,"right_mu":40,"left_numbers":[64,69,67,62,44],"right_numbers":[42,32,45,37,50],"points_earned":259,"phase":"task","trial_type":"horizons-task","trial_index":36,"time_elapsed":348692,"internal_node_id":"0.0-32.0","task_version":"0.2"},{"response_times":[513.8300000107847,384.1000000247732,392.28000002913177,479.64999999385327,1239.5000000251457,840.2599999681115,352.1500000497326,536.0149999614805,407.66000002622604,464.1000000410713],"keys_pressed":["leftarrow","rightarrow","rightarrow","rightarrow","leftarrow","leftarrow","leftarrow","leftarrow","leftarrow","leftarrow"],"horizon":10,"forced_choices":["leftarrow","rightarrow","rightarrow","rightarrow"],"right_color":"orange","left_color":"lightblue","left_mu":40,"right_mu":10,"left_numbers":[29,50,41,35,49,36,37,44,32,47],"right_numbers":[14,16,17,6,4,7,17,21,8,6],"points_earned":313,"phase":"task","trial_type":"horizons-task","trial_index":37,"time_elapsed":355803,"internal_node_id":"0.0-33.0","task_version":"0.2"},{"response_times":[570.9599999827333,375.74500002665445,423.68999996688217,416.2800000049174,343.98000000510365],"keys_pressed":["rightarrow","rightarrow","rightarrow","leftarrow","leftarrow"],"horizon":5,"forced_choices":["rightarrow","rightarrow","rightarrow","leftarrow"],"right_color":"lightblue","left_color":"orange","left_mu":40,"right_mu":70,"left_numbers":[26,32,37,58,49],"right_numbers":[72,80,64,76,79],"points_earned":323,"phase":"task","trial_type":"horizons-task","trial_index":38,"time_elapsed":359436,"internal_node_id":"0.0-34.0","task_version":"0.2"},{"response_times":[481.84000002220273,351.9250000244938,719.6850000182167,528.3349999808706,599.7000000206754,864.220000046771,407.94999996433035,463.6449999525212,384.1149999643676,408.26999995624647],"keys_pressed":["rightarrow","rightarrow","leftarrow","leftarrow","leftarrow","leftarrow","leftarrow","leftarrow","leftarrow","leftarrow"],"horizon":10,"forced_choices":["rightarrow","rightarrow","leftarrow","leftarrow"],"right_color":"lightblue","left_color":"orange","left_mu":60,"right_mu":30,"left_numbers":[65,62,67,55,66,56,56,65,65,60],"right_numbers":[21,32,37,31,23,34,23,16,15,33],"points_earned":543,"phase":"task","trial_type":"horizons-task","trial_index":39,"time_elapsed":366148,"internal_node_id":"0.0-35.0","task_version":"0.2"},{"response_times":[529.4799999683164,727.5750000262633,768.3799999649636,647.7650000015274,904.1949999518692,879.7949999570847,463.5399999679066,960.5549999978393,551.7800000379793,591.9799999683164],"keys_pressed":["rightarrow","leftarrow","leftarrow","leftarrow","rightarrow","rightarrow","rightarrow","rightarrow","rightarrow","rightarrow"],"horizon":10,"forced_choices":["rightarrow","leftarrow","leftarrow","leftarrow"],"right_color":"orange","left_color":"lightblue","left_mu":40,"right_mu":48,"left_numbers":[40,43,46,38,42,35,50,35,36,42],"right_numbers":[52,46,50,52,44,50,42,46,48,38],"points_earned":447,"phase":"task","trial_type":"horizons-task","trial_index":40,"time_elapsed":374676,"internal_node_id":"0.0-36.0","task_version":"0.2"},{"response_times":[577.820000005886,384.21499996911734,431.9450000184588,423.80500002764165,520.1850000303239],"keys_pressed":["rightarrow","rightarrow","leftarrow","rightarrow","rightarrow"],"horizon":5,"forced_choices":["rightarrow","rightarrow","leftarrow","rightarrow"],"right_color":"lightblue","left_color":"orange","left_mu":40,"right_mu":44,"left_numbers":[47,31,49,50,50],"right_numbers":[37,48,50,40,48],"points_earned":222,"phase":"task","trial_type":"horizons-task","trial_index":41,"time_elapsed":378516,"internal_node_id":"0.0-37.0","task_version":"0.2"},{"response_times":[1121.4849999523722,591.904999979306,495.9750000271015,400.13000002363697,672.0649999915622],"keys_pressed":["rightarrow","leftarrow","leftarrow","rightarrow","leftarrow"],"horizon":5,"forced_choices":["rightarrow","leftarrow","leftarrow","rightarrow"],"right_color":"orange","left_color":"lightblue","left_mu":40,"right_mu":52,"left_numbers":[40,27,36,44,30],"right_numbers":[59,57,59,62,53],"points_earned":214,"phase":"task","trial_type":"horizons-task","trial_index":42,"time_elapsed":383300,"internal_node_id":"0.0-38.0","task_version":"0.2"},{"response_times":[481.97000002255663,663.509999983944,504.3600000208244,511.8149999761954,920.029999979306],"keys_pressed":["rightarrow","rightarrow","leftarrow","leftarrow","leftarrow"],"horizon":5,"forced_choices":["rightarrow","rightarrow","leftarrow","leftarrow"],"right_color":"lightblue","left_color":"orange","left_mu":60,"right_mu":30,"left_numbers":[71,58,58,66,53],"right_numbers":[44,21,19,29,38],"points_earned":242,"phase":"task","trial_type":"horizons-task","trial_index":43,"time_elapsed":387883,"internal_node_id":"0.0-39.0","task_version":"0.2"},{"response_times":[602.294999989681,472.2100000362843,551.6400000196882,440.0150000001304,592.2499999869615,752.1200000192039,431.87999998917803,295.72499997448176,192.14499997906387,791.4450000389479],"keys_pressed":["leftarrow","leftarrow","leftarrow","rightarrow","rightarrow","leftarrow","leftarrow","leftarrow","leftarrow","leftarrow"],"horizon":10,"forced_choices":["leftarrow","leftarrow","leftarrow","rightarrow"],"right_color":"orange","left_color":"lightblue","left_mu":40,"right_mu":28,"left_numbers":[34,27,41,44,38,49,48,38,41,48],"right_numbers":[28,25,22,37,27,24,38,26,42,17],"points_earned":390,"phase":"task","trial_type":"horizons-task","trial_index":44,"time_elapsed":394508,"internal_node_id":"0.0-40.0","task_version":"0.2"},{"response_times":[465.9000000101514,447.3199999774806,416.44000000087544,479.59000000264496,1192.0700000482611,952.3150000022724,743.6299999826588,503.8250000216067,392.5349999917671,295.71000003488734],"keys_pressed":["leftarrow","rightarrow","rightarrow","leftarrow","leftarrow","rightarrow","leftarrow","leftarrow","leftarrow","leftarrow"],"horizon":10,"forced_choices":["leftarrow","rightarrow","rightarrow","leftarrow"],"right_color":"orange","left_color":"lightblue","left_mu":40,"right_mu":28,"left_numbers":[43,47,34,44,26,44,37,38,35,34],"right_numbers":[31,32,35,26,25,26,28,22,36,28],"points_earned":350,"phase":"task","trial_type":"horizons-task","trial_index":45,"time_elapsed":401900,"internal_node_id":"0.0-41.0","task_version":"0.2"},{"response_times":[553.4800000023097,520.2000000281259,543.6849999823608,904.6950000338256,807.4149999883957],"keys_pressed":["leftarrow","rightarrow","rightarrow","leftarrow","leftarrow"],"horizon":5,"forced_choices":["leftarrow","rightarrow","rightarrow","leftarrow"],"right_color":"orange","left_color":"lightblue","left_mu":40,"right_mu":28,"left_numbers":[43,26,39,41,37],"right_numbers":[23,24,41,32,29],"points_earned":186,"phase":"task","trial_type":"horizons-task","trial_index":46,"time_elapsed":406731,"internal_node_id":"0.0-42.0","task_version":"0.2"},{"response_times":[753.6850000033155,360.3599999914877,415.5900000478141,344.3499999702908,559.7849999903701],"keys_pressed":["leftarrow","rightarrow","leftarrow","rightarrow","leftarrow"],"horizon":5,"forced_choices":["leftarrow","rightarrow","leftarrow","rightarrow"],"right_color":"lightblue","left_color":"orange","left_mu":60,"right_mu":90,"left_numbers":[58,79,51,58,64],"right_numbers":[94,91,96,90,81],"points_earned":354,"phase":"task","trial_type":"horizons-task","trial_index":47,"time_elapsed":410668,"internal_node_id":"0.0-43.0","task_version":"0.2"},{"response_times":[497.41999997058883,360.47000001417473,303.16499999025837,376.34499999694526,1080.260000017006,455.8149999938905,303.4750000224449,248.6100000096485,311.87500001396984,263.8800000422634],"keys_pressed":["leftarrow","rightarrow","leftarrow","rightarrow","rightarrow","rightarrow","rightarrow","rightarrow","rightarrow","rightarrow"],"horizon":10,"forced_choices":["leftarrow","rightarrow","leftarrow","rightarrow"],"right_color":"lightblue","left_color":"orange","left_mu":60,"right_mu":90,"left_numbers":[54,58,66,67,65,70,62,53,66,54],"right_numbers":[82,93,94,89,83,82,93,93,86,100],"points_earned":839,"phase":"task","trial_type":"horizons-task","trial_index":48,"time_elapsed":416372,"internal_node_id":"0.0-44.0","task_version":"0.2"},{"response_times":[609.4299999531358,376.2350000324659,336.0949999769218,695.7950000069104,784.0050000231713],"keys_pressed":["leftarrow","rightarrow","rightarrow","rightarrow","rightarrow"],"horizon":5,"forced_choices":["leftarrow","rightarrow","rightarrow","rightarrow"],"right_color":"orange","left_color":"lightblue","left_mu":40,"right_mu":60,"left_numbers":[36,32,42,45,44],"right_numbers":[68,51,65,56,59],"points_earned":267,"phase":"task","trial_type":"horizons-task","trial_index":49,"time_elapsed":420676,"internal_node_id":"0.0-45.0","task_version":"0.2"},{"response_times":[425.8999999728985,423.9250000100583,791.9550000224262,775.83500003675,791.6849999455735,488.4099999908358,983.9350000256673,463.98000000044703,391.70999999623746,247.90000001667067],"keys_pressed":["rightarrow","leftarrow","rightarrow","leftarrow","leftarrow","leftarrow","leftarrow","leftarrow","leftarrow","leftarrow"],"horizon":10,"forced_choices":["rightarrow","leftarrow","rightarrow","leftarrow"],"right_color":"orange","left_color":"lightblue","left_mu":40,"right_mu":32,"left_numbers":[40,46,46,38,49,39,49,42,35,45],"right_numbers":[30,26,36,27,27,17,26,35,32,25],"points_earned":409,"phase":"task","trial_type":"horizons-task","trial_index":50,"time_elapsed":427963,"internal_node_id":"0.0-46.0","task_version":"0.2"},{"view_history":"[{\"page_index\":0,\"viewing_time\":3123.00999998115},{\"page_index\":1,\"viewing_time\":1142.2250000177883}]","rt":4265.7149999868125,"trial_type":"instructions","trial_index":51,"time_elapsed":432230,"internal_node_id":"0.0-47.0","task_version":"0.2"},{"response_times":[1172.5399999995716,376.300000003539,439.4400000455789,856.4649999607354,471.8500000308268],"keys_pressed":["leftarrow","rightarrow","rightarrow","leftarrow","leftarrow"],"horizon":5,"forced_choices":["leftarrow","rightarrow","rightarrow","leftarrow"],"right_color":"orange","left_color":"lightblue","left_mu":40,"right_mu":10,"left_numbers":[42,40,44,37,23],"right_numbers":[11,3,0,13,2],"points_earned":105,"phase":"task","trial_type":"horizons-task","trial_index":52,"time_elapsed":437051,"internal_node_id":"0.0-48.0","task_version":"0.2"},{"response_times":[458.1800000160001,375.42499997653067,616.1100000026636,679.9250000040047,496.27999996300787],"keys_pressed":["leftarrow","leftarrow","leftarrow","rightarrow","leftarrow"],"horizon":5,"forced_choices":["leftarrow","leftarrow","leftarrow","rightarrow"],"right_color":"lightblue","left_color":"orange","left_mu":60,"right_mu":30,"left_numbers":[58,56,57,65,65],"right_numbers":[27,36,28,24,24],"points_earned":260,"phase":"task","trial_type":"horizons-task","trial_index":53,"time_elapsed":441180,"internal_node_id":"0.0-49.0","task_version":"0.2"},{"response_times":[561.6850000224076,431.8249999778345,479.8649999429472,224.30000000167638,1208.1149999867193,719.9249999830499,480.0249999971129,304.0699999546632,175.80500000622123,359.8700000438839],"keys_pressed":["rightarrow","leftarrow","leftarrow","rightarrow","rightarrow","rightarrow","rightarrow","rightarrow","rightarrow","rightarrow"],"horizon":10,"forced_choices":["rightarrow","leftarrow","leftarrow","rightarrow"],"right_color":"orange","left_color":"lightblue","left_mu":60,"right_mu":68,"left_numbers":[64,63,52,80,45,59,59,68,72,65],"right_numbers":[65,90,67,70,54,69,74,55,76,69],"points_earned":647,"phase":"task","trial_type":"horizons-task","trial_index":54,"time_elapsed":447628,"internal_node_id":"0.0-50.0","task_version":"0.2"},{"response_times":[673.3400000375696,415.97500001080334,512.0899999747053,591.3600000203587,632.2400000062771],"keys_pressed":["leftarrow","rightarrow","rightarrow","rightarrow","leftarrow"],"horizon":5,"forced_choices":["leftarrow","rightarrow","rightarrow","rightarrow"],"right_color":"orange","left_color":"lightblue","left_mu":40,"right_mu":10,"left_numbers":[33,38,48,36,45],"right_numbers":[4,0,17,4,4],"points_earned":99,"phase":"task","trial_type":"horizons-task","trial_index":55,"time_elapsed":451955,"internal_node_id":"0.0-51.0","task_version":"0.2"},{"response_times":[474.66999996686354,423.6699999892153,383.80499999038875,464.2500000190921,383.87000001966953],"keys_pressed":["rightarrow","leftarrow","rightarrow","leftarrow","rightarrow"],"horizon":5,"forced_choices":["rightarrow","leftarrow","rightarrow","leftarrow"],"right_color":"orange","left_color":"lightblue","left_mu":40,"right_mu":32,"left_numbers":[32,44,41,47,48],"right_numbers":[32,21,24,25,30],"points_earned":177,"phase":"task","trial_type":"horizons-task","trial_index":56,"time_elapsed":455587,"internal_node_id":"0.0-52.0","task_version":"0.2"},{"response_times":[482.2050000075251,383.7099999655038,448.1150000356138,272.1400000154972,1567.6349999848753,912.0750000001863,568.0999999749474,391.6999999783002,232.2899999562651,183.96500003291294],"keys_pressed":["rightarrow","rightarrow","leftarrow","rightarrow","leftarrow","rightarrow","rightarrow","rightarrow","rightarrow","rightarrow"],"horizon":10,"forced_choices":["rightarrow","rightarrow","leftarrow","rightarrow"],"right_color":"orange","left_color":"lightblue","left_mu":60,"right_mu":68,"left_numbers":[65,51,68,54,49,61,50,61,63,61],"right_numbers":[62,57,51,61,78,86,66,63,58,85],"points_earned":655,"phase":"task","trial_type":"horizons-task","trial_index":57,"time_elapsed":462532,"internal_node_id":"0.0-53.0","task_version":"0.2"},{"response_times":[601.6999999992549,384.0250000357628,551.6550000174902,528.420000046026,1519.3899999721907],"keys_pressed":["rightarrow","leftarrow","leftarrow","leftarrow","leftarrow"],"horizon":5,"forced_choices":["rightarrow","leftarrow","leftarrow","leftarrow"],"right_color":"lightblue","left_color":"orange","left_mu":60,"right_mu":64,"left_numbers":[43,81,56,55,52],"right_numbers":[48,72,60,54,66],"points_earned":292,"phase":"task","trial_type":"horizons-task","trial_index":58,"time_elapsed":467619,"internal_node_id":"0.0-54.0","task_version":"0.2"},{"response_times":[642.6199999987148,408.0100000137463,535.7499999809079,639.8649999755435,848.2749999966472,359.68999995384365,535.9250000328757,464.15000001434237,479.9600000260398,624.3050000048243],"keys_pressed":["leftarrow","leftarrow","rightarrow","rightarrow","leftarrow","leftarrow","leftarrow","leftarrow","leftarrow","leftarrow"],"horizon":10,"forced_choices":["leftarrow","leftarrow","rightarrow","rightarrow"],"right_color":"lightblue","left_color":"orange","left_mu":40,"right_mu":36,"left_numbers":[40,36,56,37,46,43,41,44,50,26],"right_numbers":[39,29,35,26,30,47,29,35,40,36],"points_earned":387,"phase":"task","trial_type":"horizons-task","trial_index":59,"time_elapsed":474660,"internal_node_id":"0.0-55.0","task_version":"0.2"},{"response_times":[785.9049999970011,376.105000032112,775.6899999803863,520.1850000303239,1583.90500000678,1439.9049999774434,519.9800000409596,1072.1550000016578,687.6850000116974,552.0649999962188],"keys_pressed":["leftarrow","rightarrow","leftarrow","leftarrow","rightarrow","rightarrow","leftarrow","leftarrow","leftarrow","leftarrow"],"horizon":10,"forced_choices":["leftarrow","rightarrow","leftarrow","leftarrow"],"right_color":"lightblue","left_color":"orange","left_mu":40,"right_mu":36,"left_numbers":[19,51,38,52,36,33,34,38,51,29],"right_numbers":[34,38,51,38,44,31,39,37,44,56],"points_earned":374,"phase":"task","trial_type":"horizons-task","trial_index":60,"time_elapsed":484476,"internal_node_id":"0.0-56.0","task_version":"0.2"},{"response_times":[921.619999979157,479.57000002497807,416.2149999756366,487.8749999916181,1615.9899999620393,392.0299999881536,543.6549999867566,184.02500002412125,920.3400000114925,607.9200000385754],"keys_pressed":["rightarrow","leftarrow","leftarrow","rightarrow","leftarrow","leftarrow","leftarrow","leftarrow","rightarrow","leftarrow"],"horizon":10,"forced_choices":["rightarrow","leftarrow","leftarrow","rightarrow"],"right_color":"orange","left_color":"lightblue","left_mu":40,"right_mu":20,"left_numbers":[44,52,44,41,52,47,33,24,35,48],"right_numbers":[19,30,23,32,16,20,28,6,16,17],"points_earned":367,"phase":"task","trial_type":"horizons-task","trial_index":61,"time_elapsed":492548,"internal_node_id":"0.0-57.0","task_version":"0.2"},{"response_times":[593.799999973271,407.72000001743436,736.2399999983609,472.01999998651445,1136.095000023488],"keys_pressed":["rightarrow","leftarrow","rightarrow","leftarrow","rightarrow"],"horizon":5,"forced_choices":["rightarrow","leftarrow","rightarrow","leftarrow"],"right_color":"orange","left_color":"lightblue","left_mu":40,"right_mu":48,"left_numbers":[32,30,41,23,30],"right_numbers":[40,50,49,47,50],"points_earned":192,"phase":"task","trial_type":"horizons-task","trial_index":62,"time_elapsed":497396,"internal_node_id":"0.0-58.0","task_version":"0.2"},{"response_times":[504.10000002011657,415.88500002399087,456.12500002607703,711.9499999680556,1231.6599999903701,536.1599999596365,463.85000000009313,200.2399999764748,367.9600000032224,271.7850000481121],"keys_pressed":["rightarrow","rightarrow","leftarrow","leftarrow","rightarrow","rightarrow","rightarrow","rightarrow","rightarrow","rightarrow"],"horizon":10,"forced_choices":["rightarrow","rightarrow","leftarrow","leftarrow"],"right_color":"lightblue","left_color":"orange","left_mu":60,"right_mu":80,"left_numbers":[44,52,61,62,54,60,74,62,60,59],"right_numbers":[82,64,85,92,90,81,84,80,57,84],"points_earned":745,"phase":"task","trial_type":"horizons-task","trial_index":63,"time_elapsed":504075,"internal_node_id":"0.0-59.0","task_version":"0.2"},{"response_times":[626.410000026226,343.98000000510365,743.6849999940023,872.4449999863282,567.8349999943748],"keys_pressed":["leftarrow","rightarrow","leftarrow","rightarrow","leftarrow"],"horizon":5,"forced_choices":["leftarrow","rightarrow","leftarrow","rightarrow"],"right_color":"lightblue","left_color":"orange","left_mu":60,"right_mu":48,"left_numbers":[75,69,55,56,49],"right_numbers":[62,64,49,53,48],"points_earned":296,"phase":"task","trial_type":"horizons-task","trial_index":64,"time_elapsed":508732,"internal_node_id":"0.0-60.0","task_version":"0.2"},{"response_times":[785.6650000321679,584.1899999650195,520.1100000413135,407.6249999925494,1680.3250000230037,1087.569999974221,728.4250000375323,519.6449999930337,447.905000008177,536.3099999958649],"keys_pressed":["leftarrow","leftarrow","leftarrow","rightarrow","leftarrow","rightarrow","leftarrow","leftarrow","leftarrow","leftarrow"],"horizon":10,"forced_choices":["leftarrow","leftarrow","leftarrow","rightarrow"],"right_color":"lightblue","left_color":"orange","left_mu":60,"right_mu":30,"left_numbers":[61,67,55,65,50,55,51,58,47,63],"right_numbers":[39,37,46,50,40,35,31,37,27,37],"points_earned":537,"phase":"task","trial_type":"horizons-task","trial_index":65,"time_elapsed":517532,"internal_node_id":"0.0-61.0","task_version":"0.2"},{"response_times":[537.9899999825284,368.2550000376068,439.89000003784895,343.78499997546896,1159.8699999740347,480.32500001136214,415.75500002363697,440.2550000231713,287.3850000323728,240.3749999939464],"keys_pressed":["leftarrow","leftarrow","rightarrow","leftarrow","rightarrow","rightarrow","rightarrow","rightarrow","rightarrow","rightarrow"],"horizon":10,"forced_choices":["leftarrow","leftarrow","rightarrow","leftarrow"],"right_color":"lightblue","left_color":"orange","left_mu":60,"right_mu":80,"left_numbers":[52,57,45,53,68,55,70,60,48,74],"right_numbers":[82,64,77,89,88,63,76,75,74,71],"points_earned":686,"phase":"task","trial_type":"horizons-task","trial_index":66,"time_elapsed":523747,"internal_node_id":"0.0-62.0","task_version":"0.2"},{"response_times":[985.8999999705702,543.9449999830686,440.1499999803491,431.53000000165775,272.060000046622],"keys_pressed":["leftarrow","rightarrow","leftarrow","leftarrow","leftarrow"],"horizon":5,"forced_choices":["leftarrow","rightarrow","leftarrow","leftarrow"],"right_color":"lightblue","left_color":"orange","left_mu":40,"right_mu":36,"left_numbers":[44,47,40,22,32],"right_numbers":[49,48,26,34,31],"points_earned":186,"phase":"task","trial_type":"horizons-task","trial_index":67,"time_elapsed":527923,"internal_node_id":"0.0-63.0","task_version":"0.2"},{"response_times":[722.4350000033155,551.6800000332296,480.31000001356006,983.8599999784492,839.9150000186637,1136.0250000143424,503.8100000238046,480.1549999974668,375.9650000138208,247.47000000206754],"keys_pressed":["rightarrow","leftarrow","rightarrow","leftarrow","rightarrow","rightarrow","rightarrow","rightarrow","rightarrow","rightarrow"],"horizon":10,"forced_choices":["rightarrow","leftarrow","rightarrow","leftarrow"],"right_color":"lightblue","left_color":"orange","left_mu":40,"right_mu":44,"left_numbers":[34,29,54,39,53,31,50,48,43,33],"right_numbers":[28,40,50,49,42,45,52,41,48,32],"points_earned":406,"phase":"task","trial_type":"horizons-task","trial_index":68,"time_elapsed":535747,"internal_node_id":"0.0-64.0","task_version":"0.2"},{"response_times":[8707.35500002047,399.3999999947846,471.83999995468184,520.3849999816157,463.45499996095896],"keys_pressed":["rightarrow","rightarrow","leftarrow","leftarrow","rightarrow"],"horizon":5,"forced_choices":["rightarrow","rightarrow","leftarrow","leftarrow"],"right_color":"lightblue","left_color":"orange","left_mu":40,"right_mu":70,"left_numbers":[53,32,39,29,37],"right_numbers":[56,75,73,75,59],"points_earned":258,"phase":"task","trial_type":"horizons-task","trial_index":69,"time_elapsed":547811,"internal_node_id":"0.0-65.0","task_version":"0.2"},{"response_times":[570.1400000252761,360.19000003580004,367.53499996848404,431.9899999536574,311.8350000004284,1032.004999986384,1816.1749999853782,736.3400000031106,743.8700000056997,391.5350000024773],"keys_pressed":["leftarrow","rightarrow","leftarrow","rightarrow","leftarrow","leftarrow","leftarrow","rightarrow","rightarrow","rightarrow"],"horizon":10,"forced_choices":["leftarrow","rightarrow","leftarrow","rightarrow"],"right_color":"lightblue","left_color":"orange","left_mu":60,"right_mu":64,"left_numbers":[57,70,56,72,87,54,52,67,70,63],"right_numbers":[77,45,53,67,61,62,53,65,63,73],"points_earned":619,"phase":"task","trial_type":"horizons-task","trial_index":70,"time_elapsed":556076,"internal_node_id":"0.0-66.0","task_version":"0.2"},{"response_times":[650.1700000371784,455.83500002976507,423.8699999987148,463.8000000268221,2208.3349999738857],"keys_pressed":["rightarrow","leftarrow","rightarrow","rightarrow","rightarrow"],"horizon":5,"forced_choices":["rightarrow","leftarrow","rightarrow","rightarrow"],"right_color":"lightblue","left_color":"orange","left_mu":60,"right_mu":48,"left_numbers":[74,48,64,63,56],"right_numbers":[50,33,39,48,38],"points_earned":223,"phase":"task","trial_type":"horizons-task","trial_index":71,"time_elapsed":561779,"internal_node_id":"0.0-67.0","task_version":"0.2"},{"response_times":[546.3000000454485,392.09500001743436,184.16499998420477,527.9549999977462,1247.4449999863282,672.5650000153109,783.8049999554642,760.1399999693967,1615.87999999756,479.93999999016523],"keys_pressed":["rightarrow","leftarrow","leftarrow","rightarrow","rightarrow","rightarrow","rightarrow","rightarrow","rightarrow","rightarrow"],"horizon":10,"forced_choices":["rightarrow","leftarrow","leftarrow","rightarrow"],"right_color":"lightblue","left_color":"orange","left_mu":60,"right_mu":56,"left_numbers":[46,66,64,57,62,71,68,44,69,57],"right_numbers":[51,65,57,64,63,47,54,53,57,57],"points_earned":576,"phase":"task","trial_type":"horizons-task","trial_index":72,"time_elapsed":570492,"internal_node_id":"0.0-68.0","task_version":"0.2"},{"response_times":[761.5850000292994,504.3199999490753,463.71999999973923,511.7500000051223,1496.320000034757],"keys_pressed":["leftarrow","leftarrow","rightarrow","rightarrow","rightarrow"],"horizon":5,"forced_choices":["leftarrow","leftarrow","rightarrow","rightarrow"],"right_color":"orange","left_color":"lightblue","left_mu":40,"right_mu":60,"left_numbers":[46,46,25,53,46],"right_numbers":[58,71,70,41,54],"points_earned":257,"phase":"task","trial_type":"horizons-task","trial_index":73,"time_elapsed":575732,"internal_node_id":"0.0-69.0","task_version":"0.2"},{"response_times":[602.3050000076182,343.59499998390675,392.0149999903515,512.2800000244752,1023.9749999600463],"keys_pressed":["leftarrow","rightarrow","leftarrow","leftarrow","leftarrow"],"horizon":5,"forced_choices":["leftarrow","rightarrow","leftarrow","leftarrow"],"right_color":"orange","left_color":"lightblue","left_mu":60,"right_mu":52,"left_numbers":[68,69,54,61,51],"right_numbers":[60,45,62,44,47],"points_earned":279,"phase":"task","trial_type":"horizons-task","trial_index":74,"time_elapsed":580108,"internal_node_id":"0.0-70.0","task_version":"0.2"},{"response_times":[513.4850000031292,392.2700000111945,448.21000000229105,231.58000002149493,1104.4199999887496,591.9199999771081,528.0999999959022,687.8900000010617,455.70500002941117,264.13500000489876],"keys_pressed":["rightarrow","rightarrow","leftarrow","rightarrow","rightarrow","rightarrow","rightarrow","rightarrow","rightarrow","rightarrow"],"horizon":10,"forced_choices":["rightarrow","rightarrow","leftarrow","rightarrow"],"right_color":"lightblue","left_color":"orange","left_mu":40,"right_mu":44,"left_numbers":[45,27,34,50,41,36,37,39,41,44],"right_numbers":[44,41,57,40,40,35,47,49,42,42],"points_earned":414,"phase":"task","trial_type":"horizons-task","trial_index":75,"time_elapsed":586828,"internal_node_id":"0.0-71.0","task_version":"0.2"},{"response_times":[690.1049999869429,415.5550000141375,584.0600000228733,455.7899999781512,480.37500004284084,831.6450000274926,408.05999998701736,279.7599999466911,256.1149999964982,344.18000001460314],"keys_pressed":["leftarrow","rightarrow","rightarrow","rightarrow","leftarrow","rightarrow","rightarrow","rightarrow","rightarrow","rightarrow"],"horizon":10,"forced_choices":["leftarrow","rightarrow","rightarrow","rightarrow"],"right_color":"orange","left_color":"lightblue","left_mu":40,"right_mu":60,"left_numbers":[38,38,39,42,47,45,46,39,55,50],"right_numbers":[47,62,56,65,53,60,61,54,53,57],"points_earned":553,"phase":"task","trial_type":"horizons-task","trial_index":76,"time_elapsed":593076,"internal_node_id":"0.0-72.0","task_version":"0.2"},{"response_times":[801.8300000112504,623.7650000257418,480.12999998172745,255.93000004300848,1008.0899999593385,520.0150000164285,511.739999987185,1199.9700000160374,440.0000000023283,271.8750000349246],"keys_pressed":["leftarrow","rightarrow","rightarrow","leftarrow","leftarrow","leftarrow","leftarrow","leftarrow","leftarrow","leftarrow"],"horizon":10,"forced_choices":["leftarrow","rightarrow","rightarrow","leftarrow"],"right_color":"orange","left_color":"lightblue","left_mu":40,"right_mu":10,"left_numbers":[26,49,42,45,45,41,29,40,49,39],"right_numbers":[23,10,23,16,0,0,23,17,6,19],"points_earned":347,"phase":"task","trial_type":"horizons-task","trial_index":77,"time_elapsed":600692,"internal_node_id":"0.0-73.0","task_version":"0.2"},{"response_times":[641.5150000248104,407.7099999994971,599.97999999905,552.045000018552,272.2250000224449],"keys_pressed":["rightarrow","leftarrow","leftarrow","leftarrow","rightarrow"],"horizon":5,"forced_choices":["rightarrow","leftarrow","leftarrow","leftarrow"],"right_color":"orange","left_color":"lightblue","left_mu":40,"right_mu":48,"left_numbers":[42,37,36,37,35],"right_numbers":[37,40,53,32,51],"points_earned":198,"phase":"task","trial_type":"horizons-task","trial_index":78,"time_elapsed":604668,"internal_node_id":"0.0-74.0","task_version":"0.2"},{"response_times":[441.980000003241,463.72499997960404,511.9750000303611,583.9550000382587,1135.9950000187382,495.75000000186265,343.97500002523884,199.7749999864027,184.12499997066334,176.43500003032386],"keys_pressed":["rightarrow","rightarrow","leftarrow","leftarrow","rightarrow","rightarrow","rightarrow","rightarrow","rightarrow","rightarrow"],"horizon":10,"forced_choices":["rightarrow","rightarrow","leftarrow","leftarrow"],"right_color":"lightblue","left_color":"orange","left_mu":40,"right_mu":70,"left_numbers":[18,45,21,36,25,24,47,34,43,59],"right_numbers":[67,66,68,77,73,65,72,86,60,65],"points_earned":611,"phase":"task","trial_type":"horizons-task","trial_index":79,"time_elapsed":610708,"internal_node_id":"0.0-75.0","task_version":"0.2"},{"response_times":[537.2849999694154,328.2599999802187,439.9499999708496,367.99999995855615,959.9099999759346,631.7099999869242,336.19000000180677,199.94999998016283,184.1499999864027,191.86000002082437],"keys_pressed":["leftarrow","rightarrow","leftarrow","rightarrow","rightarrow","leftarrow","leftarrow","leftarrow","leftarrow","leftarrow"],"horizon":10,"forced_choices":["leftarrow","rightarrow","leftarrow","rightarrow"],"right_color":"lightblue","left_color":"orange","left_mu":60,"right_mu":48,"left_numbers":[64,61,59,59,51,55,73,57,57,61],"right_numbers":[59,44,52,57,42,38,51,53,36,40],"points_earned":569,"phase":"task","trial_type":"horizons-task","trial_index":80,"time_elapsed":616388,"internal_node_id":"0.0-76.0","task_version":"0.2"},{"response_times":[1594.020000018645,440.0150000001304,447.87500001257285,487.7250000135973,824.1049999487586,503.7350000347942,439.9499999708496,191.95000000763685,167.7250000066124,320.160000002943],"keys_pressed":["leftarrow","rightarrow","rightarrow","rightarrow","leftarrow","leftarrow","leftarrow","leftarrow","leftarrow","leftarrow"],"horizon":10,"forced_choices":["leftarrow","rightarrow","rightarrow","rightarrow"],"right_color":"lightblue","left_color":"orange","left_mu":60,"right_mu":40,"left_numbers":[71,42,53,66,70,57,60,57,71,60],"right_numbers":[33,42,36,52,50,44,42,34,43,47],"points_earned":576,"phase":"task","trial_type":"horizons-task","trial_index":81,"time_elapsed":623308,"internal_node_id":"0.0-77.0","task_version":"0.2"},{"response_times":[642.3500000382774,311.5749999997206,536.3900000229478,1103.6650000023656,168.23000001022592],"keys_pressed":["leftarrow","rightarrow","rightarrow","leftarrow","rightarrow"],"horizon":5,"forced_choices":["leftarrow","rightarrow","rightarrow","leftarrow"],"right_color":"orange","left_color":"lightblue","left_mu":60,"right_mu":72,"left_numbers":[59,52,62,37,52],"right_numbers":[70,77,70,69,67],"points_earned":310,"phase":"task","trial_type":"horizons-task","trial_index":82,"time_elapsed":627572,"internal_node_id":"0.0-78.0","task_version":"0.2"},{"response_times":[545.3899999847636,695.9299999871291,495.9849999868311,399.6000000042841,224.57500000018626,839.9399999761954,383.5899999830872,640.0400000275113,176.01499997545034,183.8799999677576],"keys_pressed":["leftarrow","leftarrow","rightarrow","leftarrow","rightarrow","leftarrow","leftarrow","leftarrow","leftarrow","leftarrow"],"horizon":10,"forced_choices":["leftarrow","leftarrow","rightarrow","leftarrow"],"right_color":"orange","left_color":"lightblue","left_mu":40,"right_mu":20,"left_numbers":[43,43,41,33,29,42,34,31,40,40],"right_numbers":[6,18,13,27,12,30,14,18,9,5],"points_earned":331,"phase":"task","trial_type":"horizons-task","trial_index":83,"time_elapsed":633660,"internal_node_id":"0.0-79.0","task_version":"0.2"},{"response_times":[593.3450000011362,399.9799999874085,864.3150000134483,559.6749999676831,943.9249999704771,567.8999999654479,344.0349999582395,151.6350000165403,136.10000000335276,136.29500003298745],"keys_pressed":["leftarrow","rightarrow","leftarrow","leftarrow","leftarrow","leftarrow","leftarrow","leftarrow","leftarrow","leftarrow"],"horizon":10,"forced_choices":["leftarrow","rightarrow","leftarrow","leftarrow"],"right_color":"orange","left_color":"lightblue","left_mu":60,"right_mu":52,"left_numbers":[74,45,56,56,63,61,57,64,49,70],"right_numbers":[41,59,51,57,57,51,59,50,62,46],"points_earned":609,"phase":"task","trial_type":"horizons-task","trial_index":84,"time_elapsed":639860,"internal_node_id":"0.0-80.0","task_version":"0.2"},{"response_times":[537.5200000125915,391.8249999987893,431.99000001186505,584.3100000056438,975.960000010673],"keys_pressed":["rightarrow","rightarrow","leftarrow","leftarrow","rightarrow"],"horizon":5,"forced_choices":["rightarrow","rightarrow","leftarrow","leftarrow"],"right_color":"lightblue","left_color":"orange","left_mu":60,"right_mu":80,"left_numbers":[56,62,67,57,63],"right_numbers":[83,68,66,73,74],"points_earned":349,"phase":"task","trial_type":"horizons-task","trial_index":85,"time_elapsed":644284,"internal_node_id":"0.0-81.0","task_version":"0.2"},{"response_times":[497.47999996179715,431.95999995805323,560.0799999665469,463.43000000342727,1879.9250000156462],"keys_pressed":["rightarrow","leftarrow","leftarrow","rightarrow","leftarrow"],"horizon":5,"forced_choices":["rightarrow","leftarrow","leftarrow","rightarrow"],"right_color":"orange","left_color":"lightblue","left_mu":60,"right_mu":68,"left_numbers":[49,59,54,53,70],"right_numbers":[57,68,68,52,82],"points_earned":292,"phase":"task","trial_type":"horizons-task","trial_index":86,"time_elapsed":649619,"internal_node_id":"0.0-82.0","task_version":"0.2"},{"response_times":[590.5999999959022,411.62500000791624,448.1000000378117,464.0800000051968,1359.8800000036135,776.030000008177,448.13500001328066,183.76000004354864,159.66000000480562,176.26999999629334],"keys_pressed":["rightarrow","leftarrow","rightarrow","rightarrow","leftarrow","leftarrow","leftarrow","leftarrow","leftarrow","leftarrow"],"horizon":10,"forced_choices":["rightarrow","leftarrow","rightarrow","rightarrow"],"right_color":"lightblue","left_color":"orange","left_mu":60,"right_mu":48,"left_numbers":[60,74,48,62,67,68,66,64,64,61],"right_numbers":[59,67,52,66,42,54,45,56,44,26],"points_earned":641,"phase":"task","trial_type":"horizons-task","trial_index":87,"time_elapsed":656139,"internal_node_id":"0.0-83.0","task_version":"0.2"},{"response_times":[578.3599999849685,447.69000000087544,431.9050000049174,456.049999978859,2119.9849999975413,696.0550000076182,663.9899999718182,375.8600000292063,623.9449999993667,495.69499999051914],"keys_pressed":["leftarrow","leftarrow","rightarrow","leftarrow","rightarrow","leftarrow","leftarrow","leftarrow","rightarrow","leftarrow"],"horizon":10,"forced_choices":["leftarrow","leftarrow","rightarrow","leftarrow"],"right_color":"orange","left_color":"lightblue","left_mu":40,"right_mu":32,"left_numbers":[54,54,49,31,49,48,33,38,38,37],"right_numbers":[24,36,49,41,39,35,38,19,27,21],"points_earned":410,"phase":"task","trial_type":"horizons-task","trial_index":88,"time_elapsed":664532,"internal_node_id":"0.0-84.0","task_version":"0.2"},{"response_times":[665.7399999676272,327.89000001503155,936.1500000231899,383.75499995891005,1008.2050000200979,463.7349999975413,400.2300000283867,215.42500000214204,168.56499999994412,159.40000000409782],"keys_pressed":["rightarrow","leftarrow","leftarrow","leftarrow","leftarrow","rightarrow","rightarrow","rightarrow","rightarrow","rightarrow"],"horizon":10,"forced_choices":["rightarrow","leftarrow","leftarrow","leftarrow"],"right_color":"lightblue","left_color":"orange","left_mu":60,"right_mu":90,"left_numbers":[68,57,66,48,59,58,53,59,59,53],"right_numbers":[91,79,96,82,92,70,89,86,92,80],"points_earned":738,"phase":"task","trial_type":"horizons-task","trial_index":89,"time_elapsed":670763,"internal_node_id":"0.0-85.0","task_version":"0.2"},{"response_times":[666.3699999917299,359.8500000080094,591.7200000258163,376.0599999804981,1112.0799999916926],"keys_pressed":["leftarrow","rightarrow","rightarrow","rightarrow","leftarrow"],"horizon":5,"forced_choices":["leftarrow","rightarrow","rightarrow","rightarrow"],"right_color":"lightblue","left_color":"orange","left_mu":60,"right_mu":40,"left_numbers":[58,58,57,67,54],"right_numbers":[56,41,31,34,39],"points_earned":218,"phase":"task","trial_type":"horizons-task","trial_index":90,"time_elapsed":675372,"internal_node_id":"0.0-86.0","task_version":"0.2"},{"response_times":[545.3650000272319,423.7750000320375,495.8350000088103,608.1700000213459,1007.7450000098906],"keys_pressed":["rightarrow","leftarrow","leftarrow","rightarrow","leftarrow"],"horizon":5,"forced_choices":["rightarrow","leftarrow","leftarrow","rightarrow"],"right_color":"orange","left_color":"lightblue","left_mu":40,"right_mu":20,"left_numbers":[30,29,36,28,41],"right_numbers":[28,15,15,24,15],"points_earned":158,"phase":"task","trial_type":"horizons-task","trial_index":91,"time_elapsed":679956,"internal_node_id":"0.0-87.0","task_version":"0.2"},{"rt":17427.484999992885,"responses":{"age":"40","gender-categorical":"Male","gender-free-response":"","ethnicity":"Not Hispanic or Latino","race":["Asian"],"language":"Yes","fluency":"Very well"},"survey":"demographics","trial_type":"survey-demo","trial_index":92,"time_elapsed":697386,"internal_node_id":"0.0-88.0","task_version":"0.2"},{"rt":22717.390000005253,"responses":{"difficulty":"4","fun":"5","clarity":"5","strategy":"if the trend is higher, pick the side that is higher previous number","feedback":""},"survey":"debrief","trial_type":"survey-debrief","trial_index":93,"time_elapsed":720109,"internal_node_id":"0.0-89.0","task_version":"0.2","interactions":"[]"}]