[{"view_history":"[{\"page_index\":0,\"viewing_time\":13053.99999999645}]","rt":13060.299999997369,"trial_type":"instructions","trial_index":0,"time_elapsed":13082,"internal_node_id":"0.0-0.0","task_version":"0.2"},{"item_order":[9,5,1,8,6,3,10,7,0,2,4,11,12],"responses":{"Q10":"2","Q06":"3","Q02":"1","Q09":"2","Q07":"3","Q04":"2","Q11":"3","Q08":"3","Q01":"3","Q03":"3","Q05":"2","Q12":"3","Q13":"4"},"radio_events":[13883.300000001327,35124.10000000091,41170.899999997346,45437.2000000003,55115.399999995134,65386.399999995774,71440.19999999728,141288.30000000016,147264.40000000002,170304.79999999807,173202.8999999966,176732.59999999573,184416.49999999936],"key_events":[],"mouse_events":[0.6999999968684278,13883.300000001327,35124.10000000091,41170.899999997346,45437.2000000003,53103.89999999461,54094.79999999894,55115.399999995134,65386.399999995774,68030.6999999957,70330.60000000114,71440.19999999728,141288.30000000016,146150.09999999893,147264.40000000002,170304.79999999807,173202.8999999966,176732.59999999573,184416.49999999936,185893.799999998],"rt":185914.0999999945,"survey":"ius12","trial_type":"survey-template","trial_index":1,"time_elapsed":199080,"internal_node_id":"0.0-1.0","task_version":"0.2"},{"item_order":[1,7,14,3,12,4,6,13,5,15,16,0,10,9,2,8,11],"responses":{"Q02":"3","Q08":"1","Q15":"1","Q04":"1","Q13":"1","Q05":"1","Q07":"1","Q14":"1","Q06":"1","Q16":"1","Q17":"1","Q01":"2","Q11":"2","Q10":"3","Q03":"2","Q09":"1","Q12":"0"},"radio_events":[5756.000000001222,7279.300000001967,10224.900000001071,13101.900000001478,22356.400000004214,23282.599999998638,27163.399999997637,30062.200000000303,36246.40000000363,40227.899999998044,55178.40000000433,55860.00000000058,59716.69999999722,66942.90000000183,70973.89999999723,91701.50000000285,96144.00000000023,107675.19999999786,123410.79999999783,130640.80000000104],"key_events":[],"mouse_events":[5756.000000001222,7279.300000001967,10224.900000001071,13101.900000001478,17961.40000000014,22356.400000004214,23282.599999998638,27163.399999997637,30062.200000000303,36246.40000000363,39434.99999999767,40227.899999998044,46635.00000000204,47775.69999999832,48710.50000000105,49611.49999999907,50424.80000000069,51442.60000000213,54120.19999999757,55178.40000000433,55860.00000000058,59716.69999999722,66942.90000000183,70973.89999999723,91701.50000000285,96144.00000000023,97681.79999999847,102878.30000000395,106901.79999999964,107675.19999999786,108629.8999999999,113898.80000000267,118110.09999999806,123410.79999999783,130640.80000000104,132119.10000000353],"rt":132135.0999999995,"survey":"pswq","trial_type":"survey-template","trial_index":2,"time_elapsed":331278,"internal_node_id":"0.0-2.0","task_version":"0.2"},{"item_order":[10,14,2,1,15,5,3,12,13,8,7,9,6,4,0,11],"responses":{"Q11":"3","Q15":"3","Q03":"3","Q02":"1","Q16":"1","Q06":"1","Q04":"2","Q13":"4","Q14":"3","Q09":"3","Q08":"3","Q10":"3","Q07":"3","Q05":"3","Q01":"3","Q12":"3"},"radio_events":[13567.699999999604,22053.500000001804,24134.600000004866,30838.800000004994,37402.399999999034,42468.60000000015,48326.80000000255,53588.40000000055,69034.80000000127,74293.60000000452,81977.20000000118,85367.79999999999,86281.30000000237,87212.10000000428,88049.50000000099,88961.10000000044],"key_events":[],"mouse_events":[9544.300000001385,13567.699999999604,21146.700000004785,22053.500000001804,24134.600000004866,30838.800000004994,35646.80000000226,36567.20000000496,37402.399999999034,42468.60000000015,48326.80000000255,52708.20000000094,53588.40000000055,69034.80000000127,74293.60000000452,81977.20000000118,85367.79999999999,86281.30000000237,87212.10000000428,88049.50000000099,88961.10000000044,90636.50000000052],"rt":90654.09999999974,"survey":"nfc","trial_type":"survey-template","trial_index":3,"time_elapsed":422039,"internal_node_id":"0.0-3.0","task_version":"0.2"},{"view_history":"[{\"page_index\":0,\"viewing_time\":19878.40000000142},{\"page_index\":1,\"viewing_time\":16931.299999996554},{\"page_index\":2,\"viewing_time\":27654.300000001967},{\"page_index\":3,\"viewing_time\":14716.899999999441},{\"page_index\":4,\"viewing_time\":12687.200000000303},{\"page_index\":5,\"viewing_time\":10341.500000002328},{\"page_index\":6,\"viewing_time\":18680.399999997346},{\"page_index\":7,\"viewing_time\":21172.599999998114},{\"page_index\":8,\"viewing_time\":14944.70000000007},{\"page_index\":9,\"viewing_time\":9484.000000003958}]","rt":166493.69999999908,"trial_type":"instructions","trial_index":4,"time_elapsed":588537,"internal_node_id":"0.0-4.0-0.0","task_version":"0.2"},{"response_times":[37283.60000000254,3501.9000000029337,1347.1999999965774,1583.8000000002794,1667.0999999986961],"keys_pressed":["rightarrow","leftarrow","rightarrow","rightarrow","rightarrow"],"horizon":5,"forced_choices":["rightarrow","leftarrow","rightarrow","rightarrow"],"right_color":"lightblue","left_color":"orange","left_mu":40,"right_mu":20,"left_numbers":[33,42,41,48,36],"right_numbers":[22,16,30,26,17],"points_earned":137,"phase":"practice","trial_type":"horizons-task","trial_index":5,"time_elapsed":635469,"internal_node_id":"0.0-4.0-1.0","task_version":"0.2"},{"response_times":[2468.1999999957625,1397.300000004121,1183.7000000013504,1033.8000000047032,1749.9000000025844,1233.599999999511,1130.4999999993015,572,536.1000000047497,426.39999999664724],"keys_pressed":["leftarrow","leftarrow","rightarrow","rightarrow","rightarrow","rightarrow","rightarrow","rightarrow","rightarrow","rightarrow"],"horizon":10,"forced_choices":["leftarrow","leftarrow","rightarrow","rightarrow"],"right_color":"orange","left_color":"lightblue","left_mu":60,"right_mu":70,"left_numbers":[63,63,47,55,63,71,63,65,58,62],"right_numbers":[60,66,67,71,71,68,63,72,58,75],"points_earned":671,"phase":"practice","trial_type":"horizons-task","trial_index":6,"time_elapsed":648719,"internal_node_id":"0.0-4.0-2.0","task_version":"0.2"},{"view_history":"[{\"page_index\":0,\"viewing_time\":4245.599999994738},{\"page_index\":1,\"viewing_time\":7380.700000001583},{\"page_index\":2,\"viewing_time\":3602.7000000030966},{\"page_index\":3,\"viewing_time\":2099.000000001979}]","rt":17329.5999999973,"trial_type":"instructions","trial_index":7,"time_elapsed":666053,"internal_node_id":"0.0-4.0-3.0","task_version":"0.2"},{"responses":["true","true","true"],"num_errors":1,"rt":48057.200000002864,"trial_type":"horizons-comprehension","trial_index":8,"time_elapsed":714144,"internal_node_id":"0.0-4.0-4.0","task_version":"0.2"},{"view_history":"[{\"page_index\":0,\"viewing_time\":13505.29999999702},{\"page_index\":1,\"viewing_time\":6930.500000002212},{\"page_index\":2,\"viewing_time\":7099.999999998487},{\"page_index\":1,\"viewing_time\":11379.499999995576},{\"page_index\":2,\"viewing_time\":4407.500000001164},{\"page_index\":3,\"viewing_time\":19300.900000002002},{\"page_index\":4,\"viewing_time\":5550.000000002794},{\"page_index\":5,\"viewing_time\":4671.89999999397},{\"page_index\":6,\"viewing_time\":5263.600000005681},{\"page_index\":7,\"viewing_time\":1801.3999999966472},{\"page_index\":8,\"viewing_time\":3292.600000000675},{\"page_index\":9,\"viewing_time\":3489.39999999851}]","rt":86693.5999999987,"trial_type":"instructions","trial_index":9,"time_elapsed":800853,"internal_node_id":"0.0-4.1-0.1","task_version":"0.2"},{"response_times":[1329.2999999977183,5965.7999999980675,2668.4000000023516,1015.8000000010943,931.000000004191],"keys_pressed":["rightarrow","leftarrow","rightarrow","rightarrow","rightarrow"],"horizon":5,"forced_choices":["rightarrow","leftarrow","rightarrow","rightarrow"],"right_color":"lightblue","left_color":"orange","left_mu":40,"right_mu":20,"left_numbers":[46,34,51,53,26],"right_numbers":[24,16,21,5,23],"points_earned":107,"phase":"practice","trial_type":"horizons-task","trial_index":10,"time_elapsed":814272,"internal_node_id":"0.0-4.1-1.1","task_version":"0.2"},{"response_times":[3041.199999999604,1230.6000000025379,1043.4000000023516,1021.8999999997905,919.0000000016298,650.099999998929,433.4000000017695,366.1999999968102,302.6000000027707,530.8000000005122],"keys_pressed":["leftarrow","leftarrow","rightarrow","rightarrow","rightarrow","rightarrow","rightarrow","rightarrow","rightarrow","rightarrow"],"horizon":10,"forced_choices":["leftarrow","leftarrow","rightarrow","rightarrow"],"right_color":"orange","left_color":"lightblue","left_mu":60,"right_mu":70,"left_numbers":[68,50,61,58,57,46,63,73,54,51],"right_numbers":[54,58,88,61,72,59,76,73,59,63],"points_earned":669,"phase":"practice","trial_type":"horizons-task","trial_index":11,"time_elapsed":825328,"internal_node_id":"0.0-4.1-2.1","task_version":"0.2"},{"view_history":"[{\"page_index\":0,\"viewing_time\":3893.5999999956694},{\"page_index\":1,\"viewing_time\":1868.2000000044936},{\"page_index\":2,\"viewing_time\":980.7999999976018},{\"page_index\":3,\"viewing_time\":2351.600000001723}]","rt":9098.799999999697,"trial_type":"instructions","trial_index":12,"time_elapsed":834432,"internal_node_id":"0.0-4.1-3.1","task_version":"0.2"},{"responses":["true","false","true"],"num_errors":0,"rt":18597.999999998137,"trial_type":"horizons-comprehension","trial_index":13,"time_elapsed":853045,"internal_node_id":"0.0-4.1-4.1","task_version":"0.2"},{"trial_type":"call-function","trial_index":14,"time_elapsed":853059,"internal_node_id":"0.0-5.0","task_version":"0.2"},{"view_history":"[{\"page_index\":0,\"viewing_time\":4322.399999997229},{\"page_index\":1,\"viewing_time\":15097.800000003306}]","rt":19421.299999994575,"trial_type":"instructions","trial_index":15,"time_elapsed":872483,"internal_node_id":"0.0-6.0","task_version":"0.2"},{"response_times":[4692.499999997322,1132.4999999996508,1483.2999999998137,1200.1000000018394,868.0999999997439],"keys_pressed":["rightarrow","rightarrow","leftarrow","rightarrow","rightarrow"],"horizon":5,"forced_choices":["rightarrow","rightarrow","leftarrow","rightarrow"],"right_color":"lightblue","left_color":"orange","left_mu":40,"right_mu":20,"left_numbers":[45,33,48,50,41],"right_numbers":[4,23,17,24,24],"points_earned":123,"phase":"task","trial_type":"horizons-task","trial_index":16,"time_elapsed":883384,"internal_node_id":"0.0-7.0","task_version":"0.2"},{"response_times":[1285.299999995972,1316.8999999980442,1228.8999999945518,1237.1999999959953,1149.9000000039814,1100.5000000004657,1915.6999999977415,1714.499999994645,1184.9000000001397,1136.6000000052154],"keys_pressed":["leftarrow","rightarrow","leftarrow","rightarrow","rightarrow","rightarrow","leftarrow","leftarrow","leftarrow","leftarrow"],"horizon":10,"forced_choices":["leftarrow","rightarrow","leftarrow","rightarrow"],"right_color":"orange","left_color":"lightblue","left_mu":40,"right_mu":32,"left_numbers":[41,36,19,38,47,30,46,49,29,42],"right_numbers":[32,33,34,36,19,29,28,21,19,26],"points_earned":343,"phase":"task","trial_type":"horizons-task","trial_index":17,"time_elapsed":898171,"internal_node_id":"0.0-8.0","task_version":"0.2"},{"response_times":[2733.699999997043,1174.2000000013504,1625.5000000018626,1265.8999999985099,834.0999999999767],"keys_pressed":["leftarrow","rightarrow","leftarrow","leftarrow","leftarrow"],"horizon":5,"forced_choices":["leftarrow","rightarrow","leftarrow","leftarrow"],"right_color":"lightblue","left_color":"orange","left_mu":40,"right_mu":10,"left_numbers":[39,54,36,33,36],"right_numbers":[16,1,13,6,12],"points_earned":145,"phase":"task","trial_type":"horizons-task","trial_index":18,"time_elapsed":907323,"internal_node_id":"0.0-9.0","task_version":"0.2"},{"response_times":[1192.6999999996042,1285.7999999977183,1015.1000000041677,1351.0000000023283,883.0000000016298,1717.4999999988358,695.8999999988591,519.7000000043772,618.1999999971595,650.099999998929],"keys_pressed":["leftarrow","rightarrow","rightarrow","leftarrow","leftarrow","leftarrow","leftarrow","leftarrow","leftarrow","leftarrow"],"horizon":10,"forced_choices":["leftarrow","rightarrow","rightarrow","leftarrow"],"right_color":"orange","left_color":"lightblue","left_mu":60,"right_mu":68,"left_numbers":[55,62,61,70,52,56,56,65,57,66],"right_numbers":[65,67,64,64,83,65,68,69,74,70],"points_earned":608,"phase":"task","trial_type":"horizons-task","trial_index":19,"time_elapsed":918773,"internal_node_id":"0.0-10.0","task_version":"0.2"},{"response_times":[1461.9000000021188,1128.3000000040047,1239.6000000007916,1080.4999999965075,571.19999999844],"keys_pressed":["rightarrow","leftarrow","rightarrow","leftarrow","leftarrow"],"horizon":5,"forced_choices":["rightarrow","leftarrow","rightarrow","leftarrow"],"right_color":"orange","left_color":"lightblue","left_mu":60,"right_mu":48,"left_numbers":[64,52,59,60,49],"right_numbers":[42,45,52,52,40],"points_earned":255,"phase":"task","trial_type":"horizons-task","trial_index":20,"time_elapsed":925774,"internal_node_id":"0.0-11.0","task_version":"0.2"},{"response_times":[1160.600000002887,1378.199999999255,1118.3000000019092,1257.7000000019325,1362.699999997858],"keys_pressed":["leftarrow","leftarrow","rightarrow","rightarrow","leftarrow"],"horizon":5,"forced_choices":["leftarrow","leftarrow","rightarrow","rightarrow"],"right_color":"orange","left_color":"lightblue","left_mu":40,"right_mu":28,"left_numbers":[48,56,37,40,34],"right_numbers":[32,23,24,13,32],"points_earned":175,"phase":"task","trial_type":"horizons-task","trial_index":21,"time_elapsed":933571,"internal_node_id":"0.0-12.0","task_version":"0.2"},{"response_times":[1298.3000000022585,1299.8999999981606,1149.7999999992317,1665.500000002794,1250.5000000018626,952.3000000044703,1983.2999999999302,1362.3000000006286,887.4999999970896,1148.3999999981606],"keys_pressed":["leftarrow","rightarrow","leftarrow","rightarrow","rightarrow","rightarrow","leftarrow","rightarrow","rightarrow","rightarrow"],"horizon":10,"forced_choices":["leftarrow","rightarrow","leftarrow","rightarrow"],"right_color":"orange","left_color":"lightblue","left_mu":40,"right_mu":48,"left_numbers":[52,32,30,42,44,44,42,35,45,43],"right_numbers":[51,49,44,61,50,43,63,60,57,44],"points_earned":488,"phase":"task","trial_type":"horizons-task","trial_index":22,"time_elapsed":948090,"internal_node_id":"0.0-13.0","task_version":"0.2"},{"response_times":[1592.4999999988358,2793.6999999945983,2102.4000000033993,836.600000002305,500.20000000228174],"keys_pressed":["rightarrow","leftarrow","rightarrow","rightarrow","rightarrow"],"horizon":5,"forced_choices":["rightarrow","leftarrow","rightarrow","rightarrow"],"right_color":"lightblue","left_color":"orange","left_mu":40,"right_mu":60,"left_numbers":[42,56,37,39,39],"right_numbers":[71,68,53,50,52],"points_earned":282,"phase":"task","trial_type":"horizons-task","trial_index":23,"time_elapsed":957440,"internal_node_id":"0.0-14.0","task_version":"0.2"},{"response_times":[2300.4000000001397,1236.0999999945052,1830.6000000011409,751.0000000039581,666.6000000041677,600.5000000004657,482.19999999855645,432.50000000256114,400.70000000554137,585.1000000039348],"keys_pressed":["rightarrow","leftarrow","rightarrow","rightarrow","rightarrow","rightarrow","rightarrow","rightarrow","rightarrow","rightarrow"],"horizon":10,"forced_choices":["rightarrow","leftarrow","rightarrow","rightarrow"],"right_color":"lightblue","left_color":"orange","left_mu":40,"right_mu":60,"left_numbers":[33,42,39,37,39,40,27,42,39,35],"right_numbers":[54,54,58,65,57,66,64,57,59,56],"points_earned":578,"phase":"task","trial_type":"horizons-task","trial_index":24,"time_elapsed":968242,"internal_node_id":"0.0-15.0","task_version":"0.2"},{"response_times":[1913.4999999951106,1546.999999998603,1169.2000000039116,1201.6999999977415,1499.9000000025844,432.0000000006985,451.0000000009313,583.199999993667,616.0000000017462,597.9000000006054],"keys_pressed":["leftarrow","leftarrow","rightarrow","rightarrow","leftarrow","leftarrow","leftarrow","leftarrow","leftarrow","leftarrow"],"horizon":10,"forced_choices":["leftarrow","leftarrow","rightarrow","rightarrow"],"right_color":"orange","left_color":"lightblue","left_mu":40,"right_mu":28,"left_numbers":[26,38,40,45,47,43,46,41,40,39],"right_numbers":[29,26,17,22,33,28,35,26,40,36],"points_earned":359,"phase":"task","trial_type":"horizons-task","trial_index":25,"time_elapsed":979774,"internal_node_id":"0.0-16.0","task_version":"0.2"},{"response_times":[1416.2999999970198,762.6999999992549,2401.5999999974156,1379.3000000005122,830.2000000039116,506.9000000002561,415.8000000026077,400.60000000090804,365.7000000021653,415.9000000000233],"keys_pressed":["rightarrow","rightarrow","leftarrow","leftarrow","leftarrow","leftarrow","leftarrow","leftarrow","leftarrow","leftarrow"],"horizon":10,"forced_choices":["rightarrow","rightarrow","leftarrow","leftarrow"],"right_color":"lightblue","left_color":"orange","left_mu":60,"right_mu":52,"left_numbers":[67,65,75,53,57,63,56,71,51,52],"right_numbers":[54,59,71,40,40,40,55,60,48,49],"points_earned":591,"phase":"task","trial_type":"horizons-task","trial_index":26,"time_elapsed":990190,"internal_node_id":"0.0-17.0","task_version":"0.2"},{"response_times":[1368.0000000020955,1234.9000000031665,1608.40000000468,1307.2000000028638,1170.1000000030035,619.3000000057509,578.7000000055414,617.7000000025146,583.3999999959487,516.400000000489],"keys_pressed":["rightarrow","leftarrow","leftarrow","rightarrow","leftarrow","leftarrow","leftarrow","leftarrow","leftarrow","leftarrow"],"horizon":10,"forced_choices":["rightarrow","leftarrow","leftarrow","rightarrow"],"right_color":"orange","left_color":"lightblue","left_mu":60,"right_mu":56,"left_numbers":[62,59,61,54,45,49,54,58,67,50],"right_numbers":[49,64,51,54,65,56,57,54,60,56],"points_earned":546,"phase":"task","trial_type":"horizons-task","trial_index":27,"time_elapsed":1001309,"internal_node_id":"0.0-18.0","task_version":"0.2"},{"response_times":[2044.5000000037253,1262.9000000015367,1302.400000000489,1485.3000000002794,1768.4000000008382],"keys_pressed":["rightarrow","rightarrow","leftarrow","rightarrow","rightarrow"],"horizon":5,"forced_choices":["rightarrow","rightarrow","leftarrow","rightarrow"],"right_color":"lightblue","left_color":"orange","left_mu":40,"right_mu":52,"left_numbers":[47,50,36,46,42],"right_numbers":[59,68,48,51,48],"points_earned":262,"phase":"task","trial_type":"horizons-task","trial_index":28,"time_elapsed":1010694,"internal_node_id":"0.0-19.0","task_version":"0.2"},{"response_times":[1561.69999999844,1665.7999999952735,1535.299999995972,633.0999999990454,1833.2999999984168,1701.0999999984633,633.6000000010245,465.400000001071,399.70000000169966,534.1000000042841],"keys_pressed":["leftarrow","rightarrow","leftarrow","leftarrow","rightarrow","leftarrow","leftarrow","leftarrow","leftarrow","leftarrow"],"horizon":10,"forced_choices":["leftarrow","rightarrow","leftarrow","leftarrow"],"right_color":"lightblue","left_color":"orange","left_mu":40,"right_mu":10,"left_numbers":[33,45,36,51,33,45,30,42,47,46],"right_numbers":[19,15,0,0,0,27,4,0,16,20],"points_earned":345,"phase":"task","trial_type":"horizons-task","trial_index":29,"time_elapsed":1023180,"internal_node_id":"0.0-20.0","task_version":"0.2"},{"response_times":[1243.8000000038883,1200.5999999964843,2016.1999999982072,1279.4000000067754,5205.099999999162],"keys_pressed":["rightarrow","leftarrow","leftarrow","rightarrow","rightarrow"],"horizon":5,"forced_choices":["rightarrow","leftarrow","leftarrow","rightarrow"],"right_color":"lightblue","left_color":"orange","left_mu":60,"right_mu":64,"left_numbers":[67,67,48,64,50],"right_numbers":[64,68,70,60,58],"points_earned":297,"phase":"task","trial_type":"horizons-task","trial_index":30,"time_elapsed":1035647,"internal_node_id":"0.0-21.0","task_version":"0.2"},{"response_times":[1326.300000000745,1762.699999999255,1168.8000000067987,568.7000000034459,3315.699999999255,903.2999999981839,599.0999999996275,332.3999999994412,300.19999999785796,217.40000000130385],"keys_pressed":["rightarrow","leftarrow","leftarrow","leftarrow","rightarrow","rightarrow","rightarrow","rightarrow","rightarrow","rightarrow"],"horizon":10,"forced_choices":["rightarrow","leftarrow","leftarrow","leftarrow"],"right_color":"lightblue","left_color":"orange","left_mu":60,"right_mu":64,"left_numbers":[57,46,66,68,71,54,61,71,55,64],"right_numbers":[75,76,59,67,51,62,74,56,61,71],"points_earned":630,"phase":"task","trial_type":"horizons-task","trial_index":31,"time_elapsed":1047669,"internal_node_id":"0.0-22.0","task_version":"0.2"},{"response_times":[1155.0999999963678,1222.9999999981374,1232.1000000010245,1433.1999999994878,917.6999999980908,366.6999999987893,199.50000000256114,200.20000000670552,163.09999999799766,569.3000000028405],"keys_pressed":["rightarrow","leftarrow","rightarrow","leftarrow","leftarrow","leftarrow","leftarrow","leftarrow","leftarrow","leftarrow"],"horizon":10,"forced_choices":["rightarrow","leftarrow","rightarrow","leftarrow"],"right_color":"orange","left_color":"lightblue","left_mu":60,"right_mu":48,"left_numbers":[54,66,41,72,56,61,61,55,54,64],"right_numbers":[57,51,37,47,48,31,47,39,40,53],"points_earned":583,"phase":"task","trial_type":"horizons-task","trial_index":32,"time_elapsed":1056644,"internal_node_id":"0.0-23.0","task_version":"0.2"},{"response_times":[1941.9999999953434,897.1000000019558,784.2999999993481,2416.2999999972526,3733.9999999967404,732.8999999954831,267.69999999692664,198.79999999818392,316.6999999957625,235.5000000023283],"keys_pressed":["rightarrow","rightarrow","rightarrow","leftarrow","rightarrow","rightarrow","rightarrow","rightarrow","rightarrow","rightarrow"],"horizon":10,"forced_choices":["rightarrow","rightarrow","rightarrow","leftarrow"],"right_color":"orange","left_color":"lightblue","left_mu":60,"right_mu":68,"left_numbers":[69,54,55,58,61,60,60,66,61,48],"right_numbers":[77,66,71,53,71,75,48,72,74,54],"points_earned":666,"phase":"task","trial_type":"horizons-task","trial_index":33,"time_elapsed":1069684,"internal_node_id":"0.0-24.0","task_version":"0.2"},{"response_times":[1657.1000000040513,1495.6000000021886,1457.2000000043772,1035.1999999985565,745.5000000044238,602.3999999961816,417.70000000554137,169.80000000307336,161.10000000474975,168.00000000512227],"keys_pressed":["leftarrow","rightarrow","leftarrow","rightarrow","rightarrow","rightarrow","rightarrow","rightarrow","rightarrow","rightarrow"],"horizon":10,"forced_choices":["leftarrow","rightarrow","leftarrow","rightarrow"],"right_color":"lightblue","left_color":"orange","left_mu":60,"right_mu":72,"left_numbers":[61,65,39,61,60,65,53,47,60,59],"right_numbers":[82,75,76,75,70,59,66,68,76,82],"points_earned":671,"phase":"task","trial_type":"horizons-task","trial_index":34,"time_elapsed":1079114,"internal_node_id":"0.0-25.0","task_version":"0.2"},{"response_times":[1180.7999999946915,1115.100000002887,1235.3999999975786,2376.300000003539,1753.9000000033993],"keys_pressed":["rightarrow","rightarrow","leftarrow","leftarrow","leftarrow"],"horizon":5,"forced_choices":["rightarrow","rightarrow","leftarrow","leftarrow"],"right_color":"lightblue","left_color":"orange","left_mu":60,"right_mu":52,"left_numbers":[68,63,55,59,47],"right_numbers":[53,43,57,56,55],"points_earned":257,"phase":"task","trial_type":"horizons-task","trial_index":35,"time_elapsed":1088296,"internal_node_id":"0.0-26.0","task_version":"0.2"},{"response_times":[1386.1000000033528,1261.299999998184,622.9999999997672,1268.0999999938067,1123.8999999985099,2119.5999999982305,503.49999999883585,282.99999999580905,201.39999999827705,157.3999999964144],"keys_pressed":["leftarrow","leftarrow","leftarrow","rightarrow","rightarrow","leftarrow","leftarrow","leftarrow","leftarrow","leftarrow"],"horizon":10,"forced_choices":["leftarrow","leftarrow","leftarrow","rightarrow"],"right_color":"lightblue","left_color":"orange","left_mu":60,"right_mu":40,"left_numbers":[50,53,55,60,71,65,53,64,69,52],"right_numbers":[34,47,51,32,50,51,53,40,58,42],"points_earned":543,"phase":"task","trial_type":"horizons-task","trial_index":36,"time_elapsed":1098739,"internal_node_id":"0.0-27.0","task_version":"0.2"},{"response_times":[1578.100000005914,1083.8000000002794,1236.5999999966007,1198.0999999942724,2320.39999999688],"keys_pressed":["leftarrow","rightarrow","leftarrow","rightarrow","rightarrow"],"horizon":5,"forced_choices":["leftarrow","rightarrow","leftarrow","rightarrow"],"right_color":"lightblue","left_color":"orange","left_mu":60,"right_mu":72,"left_numbers":[58,68,67,55,61],"right_numbers":[84,75,70,72,71],"points_earned":343,"phase":"task","trial_type":"horizons-task","trial_index":37,"time_elapsed":1107671,"internal_node_id":"0.0-28.0","task_version":"0.2"},{"response_times":[3114.9000000006054,1177.1999999980908,588.6000000028871,1217.7999999986496,2383.4000000059605,732.1999999985565,234.1999999990221,565.4999999969732,616.0000000018626,136.7000000027474],"keys_pressed":["leftarrow","rightarrow","rightarrow","leftarrow","rightarrow","rightarrow","rightarrow","rightarrow","rightarrow","rightarrow"],"horizon":10,"forced_choices":["leftarrow","rightarrow","rightarrow","leftarrow"],"right_color":"lightblue","left_color":"orange","left_mu":40,"right_mu":60,"left_numbers":[44,50,47,54,28,36,46,43,52,46],"right_numbers":[58,65,65,47,59,61,62,49,50,51],"points_earned":560,"phase":"task","trial_type":"horizons-task","trial_index":38,"time_elapsed":1119952,"internal_node_id":"0.0-29.0","task_version":"0.2"},{"response_times":[1929.4999999983702,1432.4000000050291,784.2000000018161,1284.299999999348,681.9999999934807,748.7000000039116,206.99999999487773,278.50000000023283,332.6999999990221,612.9000000001397],"keys_pressed":["leftarrow","leftarrow","rightarrow","leftarrow","rightarrow","rightarrow","rightarrow","rightarrow","rightarrow","rightarrow"],"horizon":10,"forced_choices":["leftarrow","leftarrow","rightarrow","leftarrow"],"right_color":"orange","left_color":"lightblue","left_mu":40,"right_mu":44,"left_numbers":[40,34,40,32,30,31,31,36,23,39],"right_numbers":[42,37,50,52,51,56,39,48,38,47],"points_earned":435,"phase":"task","trial_type":"horizons-task","trial_index":39,"time_elapsed":1129764,"internal_node_id":"0.0-30.0","task_version":"0.2"},{"response_times":[1481.100000004517,1036.5999999996275,1513.6999999959953,1133.6999999985565,2201.899999999907],"keys_pressed":["leftarrow","rightarrow","leftarrow","rightarrow","leftarrow"],"horizon":5,"forced_choices":["leftarrow","rightarrow","leftarrow","rightarrow"],"right_color":"orange","left_color":"lightblue","left_mu":40,"right_mu":32,"left_numbers":[42,34,42,46,42],"right_numbers":[21,27,32,30,41],"points_earned":183,"phase":"task","trial_type":"horizons-task","trial_index":40,"time_elapsed":1138653,"internal_node_id":"0.0-31.0","task_version":"0.2"},{"response_times":[2329.2000000001863,864.3000000009779,1068.5999999986961,2178.4000000045635,2270.300000003772],"keys_pressed":["leftarrow","rightarrow","rightarrow","leftarrow","rightarrow"],"horizon":5,"forced_choices":["leftarrow","rightarrow","rightarrow","leftarrow"],"right_color":"orange","left_color":"lightblue","left_mu":60,"right_mu":68,"left_numbers":[61,57,57,56,57],"right_numbers":[78,67,58,54,52],"points_earned":294,"phase":"task","trial_type":"horizons-task","trial_index":41,"time_elapsed":1148889,"internal_node_id":"0.0-32.0","task_version":"0.2"},{"response_times":[2131.200000003446,717.5000000062864,615.2000000001863,599.3000000016764,3718.3999999978114],"keys_pressed":["leftarrow","rightarrow","rightarrow","rightarrow","leftarrow"],"horizon":5,"forced_choices":["leftarrow","rightarrow","rightarrow","rightarrow"],"right_color":"orange","left_color":"lightblue","left_mu":40,"right_mu":28,"left_numbers":[32,41,34,37,56],"right_numbers":[15,24,42,21,31],"points_earned":175,"phase":"task","trial_type":"horizons-task","trial_index":42,"time_elapsed":1158190,"internal_node_id":"0.0-33.0","task_version":"0.2"},{"response_times":[1191.5000000006985,1268.1999999985565,582.3999999994412,895.3000000037719,1202.3999999947846],"keys_pressed":["leftarrow","leftarrow","leftarrow","rightarrow","leftarrow"],"horizon":5,"forced_choices":["leftarrow","leftarrow","leftarrow","rightarrow"],"right_color":"lightblue","left_color":"orange","left_mu":60,"right_mu":40,"left_numbers":[55,59,53,60,71],"right_numbers":[50,26,35,52,44],"points_earned":290,"phase":"task","trial_type":"horizons-task","trial_index":43,"time_elapsed":1164849,"internal_node_id":"0.0-34.0","task_version":"0.2"},{"response_times":[3082.0999999996275,865.400000002468,1102.5000000009313,1462.400000003865,883.0999999991618],"keys_pressed":["leftarrow","rightarrow","rightarrow","leftarrow","rightarrow"],"horizon":5,"forced_choices":["leftarrow","rightarrow","rightarrow","leftarrow"],"right_color":"lightblue","left_color":"orange","left_mu":40,"right_mu":52,"left_numbers":[45,31,26,30,39],"right_numbers":[49,49,56,41,52],"points_earned":232,"phase":"task","trial_type":"horizons-task","trial_index":44,"time_elapsed":1173765,"internal_node_id":"0.0-35.0","task_version":"0.2"},{"response_times":[1269.0000000002328,2662.8000000056345,1283.4000000003725,651.7000000020489,2836.4000000001397],"keys_pressed":["rightarrow","leftarrow","leftarrow","leftarrow","leftarrow"],"horizon":5,"forced_choices":["rightarrow","leftarrow","leftarrow","leftarrow"],"right_color":"lightblue","left_color":"orange","left_mu":60,"right_mu":64,"left_numbers":[62,58,66,67,66],"right_numbers":[59,70,60,60,62],"points_earned":316,"phase":"task","trial_type":"horizons-task","trial_index":45,"time_elapsed":1183989,"internal_node_id":"0.0-36.0","task_version":"0.2"},{"response_times":[1186.3000000012107,2387.500000004424,584.6000000019558,1012.0000000023283,1120.9000000017695,314.50000000046566,201.8000000026077,147.09999999473803,183.70000000135042,134.2000000004191],"keys_pressed":["rightarrow","leftarrow","leftarrow","rightarrow","leftarrow","leftarrow","leftarrow","leftarrow","leftarrow","leftarrow"],"horizon":10,"forced_choices":["rightarrow","leftarrow","leftarrow","rightarrow"],"right_color":"orange","left_color":"lightblue","left_mu":60,"right_mu":30,"left_numbers":[56,60,65,71,56,70,59,51,46,57],"right_numbers":[38,30,37,40,33,34,38,33,34,28],"points_earned":542,"phase":"task","trial_type":"horizons-task","trial_index":46,"time_elapsed":1192783,"internal_node_id":"0.0-37.0","task_version":"0.2"},{"response_times":[1651.2000000001863,982.6999999932013,1600.8999999975786,950.7000000013504,2159.0999999970663],"keys_pressed":["leftarrow","rightarrow","leftarrow","rightarrow","leftarrow"],"horizon":5,"forced_choices":["leftarrow","rightarrow","leftarrow","rightarrow"],"right_color":"lightblue","left_color":"orange","left_mu":60,"right_mu":40,"left_numbers":[68,57,59,52,61],"right_numbers":[48,41,32,46,33],"points_earned":275,"phase":"task","trial_type":"horizons-task","trial_index":47,"time_elapsed":1201645,"internal_node_id":"0.0-38.0","task_version":"0.2"},{"response_times":[2499.5999999956694,1186.7999999960884,736.7000000011176,899.7000000015832,3455.7999999960884,1493.699999999022,1216.3000000000466,1834.399999999674,1832.1999999969266,650.6999999983236],"keys_pressed":["leftarrow","leftarrow","leftarrow","rightarrow","leftarrow","rightarrow","rightarrow","leftarrow","leftarrow","leftarrow"],"horizon":10,"forced_choices":["leftarrow","leftarrow","leftarrow","rightarrow"],"right_color":"lightblue","left_color":"orange","left_mu":60,"right_mu":52,"left_numbers":[67,56,62,71,49,58,40,58,58,46],"right_numbers":[55,50,55,58,44,62,44,35,48,47],"points_earned":560,"phase":"task","trial_type":"horizons-task","trial_index":48,"time_elapsed":1218971,"internal_node_id":"0.0-39.0","task_version":"0.2"},{"response_times":[1406.7999999970198,2621.6999999959953,883.6000000010245,948.8999999957159,1731.39999999688],"keys_pressed":["rightarrow","leftarrow","leftarrow","rightarrow","leftarrow"],"horizon":5,"forced_choices":["rightarrow","leftarrow","leftarrow","rightarrow"],"right_color":"lightblue","left_color":"orange","left_mu":40,"right_mu":10,"left_numbers":[40,40,28,41,28],"right_numbers":[29,10,11,9,0],"points_earned":134,"phase":"task","trial_type":"horizons-task","trial_index":49,"time_elapsed":1228086,"internal_node_id":"0.0-40.0","task_version":"0.2"},{"response_times":[1185.4999999995343,1091.70000000461,820.1000000042841,635.1999999971595,983.0999999977648,8084.599999994505,247.79999999748543,204.89999999688007,177.00000000325963,168.10000000265427],"keys_pressed":["rightarrow","leftarrow","leftarrow","rightarrow","leftarrow","leftarrow","leftarrow","leftarrow","leftarrow","leftarrow"],"horizon":10,"forced_choices":["rightarrow","leftarrow","leftarrow","rightarrow"],"right_color":"lightblue","left_color":"orange","left_mu":40,"right_mu":10,"left_numbers":[32,41,46,47,32,45,26,51,20,34],"right_numbers":[5,12,18,9,21,5,13,10,3,0],"points_earned":309,"phase":"task","trial_type":"horizons-task","trial_index":50,"time_elapsed":1243205,"internal_node_id":"0.0-41.0","task_version":"0.2"},{"response_times":[1821.4999999981374,1000.8999999992084,596.8999999968801,633.4999999962747,2550.7999999972526],"keys_pressed":["rightarrow","leftarrow","leftarrow","leftarrow","rightarrow"],"horizon":5,"forced_choices":["rightarrow","leftarrow","leftarrow","leftarrow"],"right_color":"orange","left_color":"lightblue","left_mu":40,"right_mu":48,"left_numbers":[26,32,40,41,24],"right_numbers":[50,40,46,59,61],"points_earned":224,"phase":"task","trial_type":"horizons-task","trial_index":51,"time_elapsed":1251325,"internal_node_id":"0.0-42.0","task_version":"0.2"},{"response_times":[1244.099999996135,1085.899999998277,811.9999999979045,924.3000000061002,1447.3999999973457],"keys_pressed":["rightarrow","leftarrow","leftarrow","rightarrow","rightarrow"],"horizon":5,"forced_choices":["rightarrow","leftarrow","leftarrow","rightarrow"],"right_color":"orange","left_color":"lightblue","left_mu":60,"right_mu":56,"left_numbers":[68,51,59,67,69],"right_numbers":[46,46,52,64,51],"points_earned":271,"phase":"task","trial_type":"horizons-task","trial_index":52,"time_elapsed":1258358,"internal_node_id":"0.0-43.0","task_version":"0.2"},{"response_times":[1397.0999999945052,666.6999999943655,1130.1999999994878,836.9000000020023,1484.199999999022],"keys_pressed":["rightarrow","rightarrow","leftarrow","leftarrow","leftarrow"],"horizon":5,"forced_choices":["rightarrow","rightarrow","leftarrow","leftarrow"],"right_color":"orange","left_color":"lightblue","left_mu":40,"right_mu":36,"left_numbers":[23,47,38,40,50],"right_numbers":[38,34,25,29,30],"points_earned":200,"phase":"task","trial_type":"horizons-task","trial_index":53,"time_elapsed":1265393,"internal_node_id":"0.0-44.0","task_version":"0.2"},{"response_times":[1158.8999999950174,1133.9000000008382,1168.300000004936,1019.2000000022817,2743.999999998836],"keys_pressed":["rightarrow","leftarrow","leftarrow","leftarrow","leftarrow"],"horizon":5,"forced_choices":["rightarrow","leftarrow","leftarrow","leftarrow"],"right_color":"orange","left_color":"lightblue","left_mu":60,"right_mu":48,"left_numbers":[72,75,54,66,68],"right_numbers":[47,58,65,47,53],"points_earned":310,"phase":"task","trial_type":"horizons-task","trial_index":54,"time_elapsed":1274136,"internal_node_id":"0.0-45.0","task_version":"0.2"},{"response_times":[2495.9000000017695,1188.5999999940395,765.3999999966472,1148.4000000054948,919.3999999987427,365.8999999971129,288.89999999967404,246.2999999988824,182.0999999982305,165.69999999762513],"keys_pressed":["rightarrow","leftarrow","rightarrow","leftarrow","rightarrow","rightarrow","rightarrow","rightarrow","rightarrow","rightarrow"],"horizon":10,"forced_choices":["rightarrow","leftarrow","rightarrow","leftarrow"],"right_color":"orange","left_color":"lightblue","left_mu":40,"right_mu":44,"left_numbers":[33,37,36,38,41,43,54,53,29,43],"right_numbers":[43,40,49,32,44,44,46,44,43,53],"points_earned":441,"phase":"task","trial_type":"horizons-task","trial_index":55,"time_elapsed":1283426,"internal_node_id":"0.0-46.0","task_version":"0.2"},{"view_history":"[{\"page_index\":0,\"viewing_time\":3843.3000000005122},{\"page_index\":1,\"viewing_time\":5098.400000002468}]","rt":8942.699999999488,"trial_type":"instructions","trial_index":56,"time_elapsed":1292375,"internal_node_id":"0.0-47.0","task_version":"0.2"},{"response_times":[1415.8999999999069,1050.4999999974389,12588.700000000186,1134.0999999956694,1532.5999999986961],"keys_pressed":["leftarrow","rightarrow","rightarrow","leftarrow","rightarrow"],"horizon":5,"forced_choices":["leftarrow","rightarrow","rightarrow","leftarrow"],"right_color":"lightblue","left_color":"orange","left_mu":40,"right_mu":60,"left_numbers":[30,44,48,48,53],"right_numbers":[62,53,74,64,45],"points_earned":250,"phase":"task","trial_type":"horizons-task","trial_index":57,"time_elapsed":1311612,"internal_node_id":"0.0-48.0","task_version":"0.2"},{"response_times":[1141.7000000001863,1031.3000000023749,1315.3999999994412,1049.5999999984633,880.4000000017695],"keys_pressed":["rightarrow","rightarrow","leftarrow","rightarrow","rightarrow"],"horizon":5,"forced_choices":["rightarrow","rightarrow","leftarrow","rightarrow"],"right_color":"orange","left_color":"lightblue","left_mu":40,"right_mu":70,"left_numbers":[35,42,41,26,41],"right_numbers":[80,75,64,79,73],"points_earned":348,"phase":"task","trial_type":"horizons-task","trial_index":58,"time_elapsed":1318543,"internal_node_id":"0.0-49.0","task_version":"0.2"},{"response_times":[1368.6000000014901,634.3000000051688,2067.299999995157,902.7999999960884,2845.499999995809,599.800000003539,433.1999999997206,301.29999999911524,197.199999995064,99.49999999674037],"keys_pressed":["leftarrow","rightarrow","leftarrow","leftarrow","rightarrow","rightarrow","rightarrow","rightarrow","rightarrow","rightarrow"],"horizon":10,"forced_choices":["leftarrow","rightarrow","leftarrow","leftarrow"],"right_color":"lightblue","left_color":"orange","left_mu":60,"right_mu":72,"left_numbers":[52,51,71,57,68,58,60,63,49,60],"right_numbers":[67,80,62,81,67,76,71,68,65,62],"points_earned":669,"phase":"task","trial_type":"horizons-task","trial_index":59,"time_elapsed":1329513,"internal_node_id":"0.0-50.0","task_version":"0.2"},{"response_times":[1367.200000000652,1197.8999999992084,684.699999997858,1225.9999999951106,4638.500000000931],"keys_pressed":["leftarrow","leftarrow","rightarrow","leftarrow","leftarrow"],"horizon":5,"forced_choices":["leftarrow","leftarrow","rightarrow","leftarrow"],"right_color":"orange","left_color":"lightblue","left_mu":40,"right_mu":44,"left_numbers":[33,42,33,41,37],"right_numbers":[30,63,40,40,48],"points_earned":193,"phase":"task","trial_type":"horizons-task","trial_index":60,"time_elapsed":1340148,"internal_node_id":"0.0-51.0","task_version":"0.2"},{"response_times":[1334.2999999949243,734.8999999959487,1499.2000000055414,1361.4000000015367,2287.700000000652],"keys_pressed":["leftarrow","rightarrow","leftarrow","rightarrow","leftarrow"],"horizon":5,"forced_choices":["leftarrow","rightarrow","leftarrow","rightarrow"],"right_color":"orange","left_color":"lightblue","left_mu":40,"right_mu":48,"left_numbers":[42,21,44,43,27],"right_numbers":[54,42,40,42,46],"points_earned":197,"phase":"task","trial_type":"horizons-task","trial_index":61,"time_elapsed":1348883,"internal_node_id":"0.0-52.0","task_version":"0.2"},{"response_times":[1580.6000000010245,549.7000000032131,1214.399999997113,835.899999998277,2147.000000004424,268.4000000008382,164.19999999925494,219.7999999988824,96.09999999520369,205.2999999942258],"keys_pressed":["rightarrow","rightarrow","leftarrow","rightarrow","leftarrow","leftarrow","leftarrow","leftarrow","leftarrow","leftarrow"],"horizon":10,"forced_choices":["rightarrow","rightarrow","leftarrow","rightarrow"],"right_color":"lightblue","left_color":"orange","left_mu":40,"right_mu":20,"left_numbers":[45,43,45,43,48,51,48,27,36,56],"right_numbers":[10,23,21,27,8,19,28,18,19,34],"points_earned":371,"phase":"task","trial_type":"horizons-task","trial_index":62,"time_elapsed":1357686,"internal_node_id":"0.0-53.0","task_version":"0.2"},{"response_times":[2776.5,1116.900000001071,1117.5000000002328,1083.6999999955297,2050.9999999995343,331.6999999952968,166.69999999413267,499.89999999525025,299.89999999827705,316.8000000005122],"keys_pressed":["rightarrow","rightarrow","leftarrow","leftarrow","rightarrow","rightarrow","rightarrow","rightarrow","rightarrow","rightarrow"],"horizon":10,"forced_choices":["rightarrow","rightarrow","leftarrow","leftarrow"],"right_color":"orange","left_color":"lightblue","left_mu":40,"right_mu":70,"left_numbers":[47,47,34,38,48,51,36,42,38,39],"right_numbers":[74,64,76,71,56,61,71,65,57,64],"points_earned":584,"phase":"task","trial_type":"horizons-task","trial_index":63,"time_elapsed":1368967,"internal_node_id":"0.0-54.0","task_version":"0.2"},{"response_times":[1244.5000000006985,1287.499999998603,733.8999999994412,1181.199999999022,1271.70000000461],"keys_pressed":["rightarrow","rightarrow","rightarrow","leftarrow","rightarrow"],"horizon":5,"forced_choices":["rightarrow","rightarrow","rightarrow","leftarrow"],"right_color":"lightblue","left_color":"orange","left_mu":60,"right_mu":90,"left_numbers":[51,61,53,54,51],"right_numbers":[92,91,93,98,86],"points_earned":416,"phase":"task","trial_type":"horizons-task","trial_index":64,"time_elapsed":1376206,"internal_node_id":"0.0-55.0","task_version":"0.2"},{"response_times":[1166.1999999997206,833.6999999955297,977.7000000032131,856.6000000066124,1194.1999999983236,1189.7000000027474,531.9999999993015,181.3000000040047,183.1999999997206,167.00000000116415],"keys_pressed":["leftarrow","rightarrow","rightarrow","rightarrow","rightarrow","leftarrow","leftarrow","leftarrow","leftarrow","leftarrow"],"horizon":10,"forced_choices":["leftarrow","rightarrow","rightarrow","rightarrow"],"right_color":"orange","left_color":"lightblue","left_mu":40,"right_mu":32,"left_numbers":[42,27,41,53,45,48,46,45,29,24],"right_numbers":[27,33,33,20,37,44,36,39,32,44],"points_earned":357,"phase":"task","trial_type":"horizons-task","trial_index":65,"time_elapsed":1385003,"internal_node_id":"0.0-56.0","task_version":"0.2"},{"response_times":[1214,1500.6999999966938,2217.6000000035856,1066.8999999980442,530.199999993667],"keys_pressed":["leftarrow","leftarrow","leftarrow","rightarrow","rightarrow"],"horizon":5,"forced_choices":["leftarrow","leftarrow","leftarrow","rightarrow"],"right_color":"lightblue","left_color":"orange","left_mu":60,"right_mu":52,"left_numbers":[67,72,50,68,63],"right_numbers":[45,37,42,45,59],"points_earned":293,"phase":"task","trial_type":"horizons-task","trial_index":66,"time_elapsed":1393053,"internal_node_id":"0.0-57.0","task_version":"0.2"},{"response_times":[1061.3999999987427,1434.0999999984633,1317.1999999976251,2014.4999999974389,2084.9999999990687],"keys_pressed":["rightarrow","leftarrow","leftarrow","rightarrow","leftarrow"],"horizon":5,"forced_choices":["rightarrow","leftarrow","leftarrow","rightarrow"],"right_color":"orange","left_color":"lightblue","left_mu":60,"right_mu":30,"left_numbers":[58,64,49,63,67],"right_numbers":[48,33,24,41,32],"points_earned":269,"phase":"task","trial_type":"horizons-task","trial_index":67,"time_elapsed":1402486,"internal_node_id":"0.0-58.0","task_version":"0.2"},{"response_times":[1162.300000003539,1201.600000000326,714.5000000018626,914.100000001723,2502.7999999949243,334.9000000017695,196.4000000008382,168.49999999976717,165.20000000321306,171.6999999990221],"keys_pressed":["rightarrow","leftarrow","rightarrow","rightarrow","leftarrow","leftarrow","leftarrow","leftarrow","leftarrow","leftarrow"],"horizon":10,"forced_choices":["rightarrow","leftarrow","rightarrow","rightarrow"],"right_color":"orange","left_color":"lightblue","left_mu":60,"right_mu":30,"left_numbers":[47,61,67,65,68,66,43,54,61,42],"right_numbers":[31,30,28,34,30,39,40,32,35,34],"points_earned":488,"phase":"task","trial_type":"horizons-task","trial_index":68,"time_elapsed":1411540,"internal_node_id":"0.0-59.0","task_version":"0.2"},{"response_times":[1097.6000000010245,736.1999999992549,979.1999999943655,1269.3999999973457,947.8999999989755,601.5000000044238,446.79999999771826,204.7999999995809,161.50000000186265,186.39999999874271],"keys_pressed":["leftarrow","leftarrow","rightarrow","leftarrow","leftarrow","leftarrow","leftarrow","leftarrow","leftarrow","leftarrow"],"horizon":10,"forced_choices":["leftarrow","leftarrow","rightarrow","leftarrow"],"right_color":"orange","left_color":"lightblue","left_mu":60,"right_mu":56,"left_numbers":[59,59,58,51,56,49,60,61,66,54],"right_numbers":[62,50,56,44,58,65,61,53,52,52],"points_earned":571,"phase":"task","trial_type":"horizons-task","trial_index":69,"time_elapsed":1419687,"internal_node_id":"0.0-60.0","task_version":"0.2"},{"response_times":[3466.0999999979977,1229.8999999985099,920.2000000004191,799.5999999984633,1212.2000000015832],"keys_pressed":["leftarrow","leftarrow","rightarrow","rightarrow","rightarrow"],"horizon":5,"forced_choices":["leftarrow","leftarrow","rightarrow","rightarrow"],"right_color":"lightblue","left_color":"orange","left_mu":60,"right_mu":80,"left_numbers":[64,53,63,64,62],"right_numbers":[70,78,65,90,97],"points_earned":369,"phase":"task","trial_type":"horizons-task","trial_index":70,"time_elapsed":1428833,"internal_node_id":"0.0-61.0","task_version":"0.2"},{"response_times":[1682.0999999982305,1134.8999999973457,800.6999999999534,732.6000000028871,1211.9999999995343,471.89999999664724,180.20000000251457,234.49999999883585,130.79999999911524,217.599999996135],"keys_pressed":["leftarrow","leftarrow","rightarrow","rightarrow","leftarrow","leftarrow","leftarrow","leftarrow","leftarrow","leftarrow"],"horizon":10,"forced_choices":["leftarrow","leftarrow","rightarrow","rightarrow"],"right_color":"lightblue","left_color":"orange","left_mu":40,"right_mu":20,"left_numbers":[31,30,36,38,28,36,31,39,39,38],"right_numbers":[13,29,16,14,18,24,22,34,10,26],"points_earned":302,"phase":"task","trial_type":"horizons-task","trial_index":71,"time_elapsed":1437152,"internal_node_id":"0.0-62.0","task_version":"0.2"},{"response_times":[2465.400000001071,2216.800000002142,1365.599999997532,1801.1000000040513,2068.2999999988824,5496.399999996414,499.49999999813735,183.4999999993015,202.79999999911524,145.9000000031665],"keys_pressed":["rightarrow","leftarrow","leftarrow","rightarrow","leftarrow","leftarrow","leftarrow","leftarrow","leftarrow","leftarrow"],"horizon":10,"forced_choices":["rightarrow","leftarrow","leftarrow","rightarrow"],"right_color":"lightblue","left_color":"orange","left_mu":60,"right_mu":64,"left_numbers":[51,76,69,52,44,69,67,58,50,57],"right_numbers":[53,58,57,68,57,75,66,62,67,73],"points_earned":611,"phase":"task","trial_type":"horizons-task","trial_index":72,"time_elapsed":1455136,"internal_node_id":"0.0-63.0","task_version":"0.2"},{"response_times":[2392.7000000039116,1670.4000000027008,848.5,1834.1000000000931,601.6999999992549,182.30000000051223,283.3000000026077,199.7999999949243,148.8000000026077,182.89999999990687],"keys_pressed":["leftarrow","leftarrow","rightarrow","leftarrow","rightarrow","rightarrow","rightarrow","rightarrow","rightarrow","rightarrow"],"horizon":10,"forced_choices":["leftarrow","leftarrow","rightarrow","leftarrow"],"right_color":"lightblue","left_color":"orange","left_mu":60,"right_mu":80,"left_numbers":[41,64,63,68,46,58,59,64,61,57],"right_numbers":[79,75,85,85,68,87,78,84,92,85],"points_earned":752,"phase":"task","trial_type":"horizons-task","trial_index":73,"time_elapsed":1465005,"internal_node_id":"0.0-64.0","task_version":"0.2"},{"response_times":[1146.4000000050291,884.2000000006519,1104.5999999986961,1196.6999999932013,1484.499999998603,607.7999999979511,889.6000000021886,649.9000000040978,116.09999999939464,199.5999999998603],"keys_pressed":["rightarrow","rightarrow","leftarrow","leftarrow","rightarrow","rightarrow","rightarrow","rightarrow","rightarrow","rightarrow"],"horizon":10,"forced_choices":["rightarrow","rightarrow","leftarrow","leftarrow"],"right_color":"orange","left_color":"lightblue","left_mu":40,"right_mu":36,"left_numbers":[29,46,32,36,43,40,29,38,48,36],"right_numbers":[33,38,44,41,33,33,37,39,30,27],"points_earned":338,"phase":"task","trial_type":"horizons-task","trial_index":74,"time_elapsed":1474806,"internal_node_id":"0.0-65.0","task_version":"0.2"},{"response_times":[3100.2999999984168,879.8000000026077,2001.899999995716,1315.2999999946915,752.0999999979977],"keys_pressed":["leftarrow","rightarrow","leftarrow","leftarrow","rightarrow"],"horizon":5,"forced_choices":["leftarrow","rightarrow","leftarrow","leftarrow"],"right_color":"lightblue","left_color":"orange","left_mu":60,"right_mu":72,"left_numbers":[60,44,66,65,58],"right_numbers":[70,88,66,67,70],"points_earned":349,"phase":"task","trial_type":"horizons-task","trial_index":75,"time_elapsed":1484375,"internal_node_id":"0.0-66.0","task_version":"0.2"},{"response_times":[1088.1000000007916,1070.200000002049,569.5000000051223,483.99999999674037,685.5999999970663,2600.2000000008848,199.70000000484288,162.70000000088476,185.60000000428408,163.09999999799766],"keys_pressed":["rightarrow","leftarrow","leftarrow","leftarrow","leftarrow","leftarrow","leftarrow","leftarrow","leftarrow","leftarrow"],"horizon":10,"forced_choices":["rightarrow","leftarrow","leftarrow","leftarrow"],"right_color":"orange","left_color":"lightblue","left_mu":40,"right_mu":48,"left_numbers":[42,40,41,45,43,42,40,35,45,40],"right_numbers":[37,40,62,50,53,45,45,50,44,40],"points_earned":408,"phase":"task","trial_type":"horizons-task","trial_index":76,"time_elapsed":1493104,"internal_node_id":"0.0-67.0","task_version":"0.2"},{"response_times":[1231.39999999688,1552.1999999983236,912.499999998603,1151.2999999977183,649.7999999993481],"keys_pressed":["rightarrow","leftarrow","rightarrow","leftarrow","rightarrow"],"horizon":5,"forced_choices":["rightarrow","leftarrow","rightarrow","leftarrow"],"right_color":"lightblue","left_color":"orange","left_mu":60,"right_mu":90,"left_numbers":[52,61,67,54,41],"right_numbers":[101,91,73,87,88],"points_earned":377,"phase":"task","trial_type":"horizons-task","trial_index":77,"time_elapsed":1500125,"internal_node_id":"0.0-68.0","task_version":"0.2"},{"response_times":[1364.3999999985099,852.5000000009313,831.2000000004191,646.4999999953434,1932.5000000025611],"keys_pressed":["leftarrow","rightarrow","rightarrow","rightarrow","leftarrow"],"horizon":5,"forced_choices":["leftarrow","rightarrow","rightarrow","rightarrow"],"right_color":"orange","left_color":"lightblue","left_mu":40,"right_mu":32,"left_numbers":[46,44,28,37,38],"right_numbers":[33,20,33,32,37],"points_earned":169,"phase":"task","trial_type":"horizons-task","trial_index":78,"time_elapsed":1507272,"internal_node_id":"0.0-69.0","task_version":"0.2"},{"response_times":[1282.2000000015832,1248.7000000036787,981.799999993993,1406.3999999999069,331.6999999952968],"keys_pressed":["leftarrow","leftarrow","rightarrow","leftarrow","leftarrow"],"horizon":5,"forced_choices":["leftarrow","leftarrow","rightarrow","leftarrow"],"right_color":"orange","left_color":"lightblue","left_mu":60,"right_mu":56,"left_numbers":[67,60,63,46,56],"right_numbers":[53,57,61,56,40],"points_earned":290,"phase":"task","trial_type":"horizons-task","trial_index":79,"time_elapsed":1514045,"internal_node_id":"0.0-70.0","task_version":"0.2"},{"response_times":[1164.7000000011176,999.7999999979511,1183.9000000036322,1746.9000000054948,1524.4000000020023],"keys_pressed":["rightarrow","leftarrow","rightarrow","rightarrow","leftarrow"],"horizon":5,"forced_choices":["rightarrow","leftarrow","rightarrow","rightarrow"],"right_color":"orange","left_color":"lightblue","left_mu":60,"right_mu":30,"left_numbers":[64,41,68,61,69],"right_numbers":[37,25,28,30,32],"points_earned":205,"phase":"task","trial_type":"horizons-task","trial_index":80,"time_elapsed":1522183,"internal_node_id":"0.0-71.0","task_version":"0.2"},{"response_times":[1228.7999999972526,853.3000000026077,1082.7999999963213,846.5999999970663,881.2000000034459,220.49999999580905,264.2000000050757,184.90000000037253,182.90000000712462,347.3999999987427],"keys_pressed":["rightarrow","rightarrow","leftarrow","rightarrow","rightarrow","rightarrow","rightarrow","rightarrow","rightarrow","rightarrow"],"horizon":10,"forced_choices":["rightarrow","rightarrow","leftarrow","rightarrow"],"right_color":"orange","left_color":"lightblue","left_mu":40,"right_mu":70,"left_numbers":[37,26,44,50,48,52,36,43,39,31],"right_numbers":[70,71,67,73,69,59,76,66,75,61],"points_earned":664,"phase":"task","trial_type":"horizons-task","trial_index":81,"time_elapsed":1529798,"internal_node_id":"0.0-72.0","task_version":"0.2"},{"response_times":[1157.3999999961816,1101.600000001723,9202.30000000447,1629.3999999980442,2272.5999999968335],"keys_pressed":["rightarrow","leftarrow","rightarrow","leftarrow","leftarrow"],"horizon":5,"forced_choices":["rightarrow","leftarrow","rightarrow","leftarrow"],"right_color":"orange","left_color":"lightblue","left_mu":40,"right_mu":44,"left_numbers":[41,40,43,26,44],"right_numbers":[32,31,38,44,34],"points_earned":180,"phase":"task","trial_type":"horizons-task","trial_index":82,"time_elapsed":1546681,"internal_node_id":"0.0-73.0","task_version":"0.2"},{"response_times":[2529.100000007078,1400.6999999983236,1431.100000001723,883.2000000039116,2518.0000000037253],"keys_pressed":["leftarrow","leftarrow","rightarrow","rightarrow","leftarrow"],"horizon":5,"forced_choices":["leftarrow","leftarrow","rightarrow","rightarrow"],"right_color":"lightblue","left_color":"orange","left_mu":40,"right_mu":20,"left_numbers":[49,34,48,32,51],"right_numbers":[11,17,18,13,10],"points_earned":165,"phase":"task","trial_type":"horizons-task","trial_index":83,"time_elapsed":1556962,"internal_node_id":"0.0-74.0","task_version":"0.2"},{"response_times":[1571.3999999933876,603.1999999976251,911,653.3999999957159,2018.4000000008382,247.10000000032596,190.60000000172295,260.6000000014901,180.19999999529682,177.09999999357387],"keys_pressed":["leftarrow","rightarrow","rightarrow","rightarrow","leftarrow","leftarrow","leftarrow","leftarrow","leftarrow","leftarrow"],"horizon":10,"forced_choices":["leftarrow","rightarrow","rightarrow","rightarrow"],"right_color":"orange","left_color":"lightblue","left_mu":40,"right_mu":28,"left_numbers":[48,36,38,40,35,48,33,30,35,39],"right_numbers":[33,12,20,32,39,26,31,24,22,25],"points_earned":332,"phase":"task","trial_type":"horizons-task","trial_index":84,"time_elapsed":1565290,"internal_node_id":"0.0-75.0","task_version":"0.2"},{"response_times":[1103.000000002794,1451.8000000026077,734.7999999984168,514.5000000048894,996.3999999964144,205.9000000008382,180.49999999511056,165.99999999743886,182.0999999982305,2019.7999999944586],"keys_pressed":["rightarrow","leftarrow","leftarrow","leftarrow","leftarrow","leftarrow","leftarrow","leftarrow","leftarrow","leftarrow"],"horizon":10,"forced_choices":["rightarrow","leftarrow","leftarrow","leftarrow"],"right_color":"orange","left_color":"lightblue","left_mu":60,"right_mu":48,"left_numbers":[56,56,68,52,61,73,58,50,56,63],"right_numbers":[49,44,54,51,53,64,52,47,49,53],"points_earned":586,"phase":"task","trial_type":"horizons-task","trial_index":85,"time_elapsed":1574367,"internal_node_id":"0.0-76.0","task_version":"0.2"},{"response_times":[1402.2999999942258,2011.8999999975786,765.500000001397,1215.3999999936204,918.5999999972992],"keys_pressed":["leftarrow","leftarrow","rightarrow","leftarrow","rightarrow"],"horizon":5,"forced_choices":["leftarrow","leftarrow","rightarrow","leftarrow"],"right_color":"lightblue","left_color":"orange","left_mu":60,"right_mu":80,"left_numbers":[59,57,65,64,57],"right_numbers":[59,89,80,66,76],"points_earned":336,"phase":"task","trial_type":"horizons-task","trial_index":86,"time_elapsed":1582201,"internal_node_id":"0.0-77.0","task_version":"0.2"},{"response_times":[1250.0999999972992,646.5000000025611,1079.5999999972992,538.0999999979977,566.5000000009313,1082.6000000014901,2418.300000004936,214.10000000451691,189.09999999590218,165.99999999743886],"keys_pressed":["leftarrow","rightarrow","rightarrow","rightarrow","rightarrow","leftarrow","leftarrow","leftarrow","leftarrow","leftarrow"],"horizon":10,"forced_choices":["leftarrow","rightarrow","rightarrow","rightarrow"],"right_color":"orange","left_color":"lightblue","left_mu":40,"right_mu":36,"left_numbers":[51,40,49,28,42,58,38,36,39,29],"right_numbers":[28,45,44,36,45,23,41,35,26,52],"points_earned":421,"phase":"task","trial_type":"horizons-task","trial_index":87,"time_elapsed":1591872,"internal_node_id":"0.0-78.0","task_version":"0.2"},{"response_times":[1131.3999999985099,829.2999999974854,619.5000000006985,3165.0000000009313,1067.7999999970198,182.3999999978114,348.79999999981374,135.69999999878928,130.1000000021886,184.09999999869615],"keys_pressed":["leftarrow","rightarrow","rightarrow","leftarrow","rightarrow","rightarrow","rightarrow","rightarrow","rightarrow","rightarrow"],"horizon":10,"forced_choices":["leftarrow","rightarrow","rightarrow","leftarrow"],"right_color":"lightblue","left_color":"orange","left_mu":40,"right_mu":52,"left_numbers":[35,30,35,37,31,44,28,33,45,36],"right_numbers":[54,43,50,60,42,36,53,53,41,43],"points_earned":433,"phase":"task","trial_type":"horizons-task","trial_index":88,"time_elapsed":1601186,"internal_node_id":"0.0-79.0","task_version":"0.2"},{"response_times":[3713.099999993574,1396.0999999982305,671.3000000019092,1243.0999999996275,606.3999999968801,1031.7999999970198,668.2999999974854,549.899999998277,213.29999999585561,301.8000000009779],"keys_pressed":["rightarrow","rightarrow","rightarrow","leftarrow","leftarrow","rightarrow","rightarrow","rightarrow","rightarrow","rightarrow"],"horizon":10,"forced_choices":["rightarrow","rightarrow","rightarrow","leftarrow"],"right_color":"lightblue","left_color":"orange","left_mu":60,"right_mu":90,"left_numbers":[73,49,56,52,54,63,63,47,50,56],"right_numbers":[96,93,95,101,85,95,88,79,86,84],"points_earned":822,"phase":"task","trial_type":"horizons-task","trial_index":89,"time_elapsed":1613105,"internal_node_id":"0.0-80.0","task_version":"0.2"},{"response_times":[1063.0999999993946,1197.8000000016764,1169.0000000016298,1133.8000000033062,1832.0000000020955,301.599999998929,682.6999999976251,449.0999999982305,336.79999999748543,247.1000000005588],"keys_pressed":["rightarrow","leftarrow","rightarrow","leftarrow","rightarrow","rightarrow","rightarrow","rightarrow","rightarrow","rightarrow"],"horizon":10,"forced_choices":["rightarrow","leftarrow","rightarrow","leftarrow"],"right_color":"lightblue","left_color":"orange","left_mu":60,"right_mu":90,"left_numbers":[57,59,54,44,74,63,58,47,64,60],"right_numbers":[91,102,92,100,89,87,90,83,95,83],"points_earned":813,"phase":"task","trial_type":"horizons-task","trial_index":90,"time_elapsed":1623036,"internal_node_id":"0.0-81.0","task_version":"0.2"},{"response_times":[1463.4999999979045,785.7000000004191,1384.5000000002328,599.1999999969266,1112.9999999976717,252.5000000023283,132.89999999664724,215.59999999590218,166.6999999943655,668.1000000026543],"keys_pressed":["leftarrow","rightarrow","leftarrow","rightarrow","leftarrow","leftarrow","leftarrow","leftarrow","leftarrow","leftarrow"],"horizon":10,"forced_choices":["leftarrow","rightarrow","leftarrow","rightarrow"],"right_color":"lightblue","left_color":"orange","left_mu":60,"right_mu":40,"left_numbers":[63,47,54,62,65,62,50,66,63,48],"right_numbers":[36,43,37,31,46,42,54,42,39,48],"points_earned":545,"phase":"task","trial_type":"horizons-task","trial_index":91,"time_elapsed":1631336,"internal_node_id":"0.0-82.0","task_version":"0.2"},{"response_times":[1286.2000000022817,635.999999998603,1513.5000000009313,355.1999999983236,198.599999996135],"keys_pressed":["leftarrow","rightarrow","rightarrow","rightarrow","rightarrow"],"horizon":5,"forced_choices":["leftarrow","rightarrow","rightarrow","rightarrow"],"right_color":"orange","left_color":"lightblue","left_mu":40,"right_mu":36,"left_numbers":[32,44,55,33,47],"right_numbers":[38,34,40,43,42],"points_earned":191,"phase":"task","trial_type":"horizons-task","trial_index":92,"time_elapsed":1636841,"internal_node_id":"0.0-83.0","task_version":"0.2"},{"response_times":[1116.4000000061933,1185.5999999970663,580.2000000041444,1151.2000000001863,1478.4000000001397],"keys_pressed":["rightarrow","rightarrow","rightarrow","leftarrow","leftarrow"],"horizon":5,"forced_choices":["rightarrow","rightarrow","rightarrow","leftarrow"],"right_color":"orange","left_color":"lightblue","left_mu":60,"right_mu":68,"left_numbers":[53,53,67,69,65],"right_numbers":[49,63,66,76,52],"points_earned":312,"phase":"task","trial_type":"horizons-task","trial_index":93,"time_elapsed":1643866,"internal_node_id":"0.0-84.0","task_version":"0.2"},{"response_times":[1200.0000000044238,583.9000000050291,1181.4999999988358,1049.8999999980442,2250.2999999998137,350.0999999959022,66.29999999864958,300.19999999785796,183.4999999993015,200.10000000172295],"keys_pressed":["rightarrow","rightarrow","leftarrow","rightarrow","rightarrow","rightarrow","rightarrow","rightarrow","rightarrow","rightarrow"],"horizon":10,"forced_choices":["rightarrow","rightarrow","leftarrow","rightarrow"],"right_color":"lightblue","left_color":"orange","left_mu":40,"right_mu":52,"left_numbers":[34,54,44,36,40,51,44,55,44,43],"right_numbers":[50,49,54,52,53,54,56,49,49,40],"points_earned":496,"phase":"task","trial_type":"horizons-task","trial_index":94,"time_elapsed":1652755,"internal_node_id":"0.0-85.0","task_version":"0.2"},{"response_times":[1514.8000000044703,801.3999999966472,630.1000000021886,1355.8000000047032,1110.70000000461,249.00000000349246,184.00000000116415,150.70000000554137,186.60000000102445,160.29999999585561],"keys_pressed":["leftarrow","leftarrow","rightarrow","rightarrow","rightarrow","rightarrow","rightarrow","rightarrow","rightarrow","rightarrow"],"horizon":10,"forced_choices":["leftarrow","leftarrow","rightarrow","rightarrow"],"right_color":"lightblue","left_color":"orange","left_mu":60,"right_mu":80,"left_numbers":[60,69,47,64,62,53,59,62,52,79],"right_numbers":[67,65,71,75,86,77,86,78,81,73],"points_earned":756,"phase":"task","trial_type":"horizons-task","trial_index":95,"time_elapsed":1660619,"internal_node_id":"0.0-86.0","task_version":"0.2"},{"response_times":[2403.200000000652,916.4999999993015,1199.3000000002794,932.800000002142,850.5999999979977],"keys_pressed":["rightarrow","rightarrow","leftarrow","leftarrow","rightarrow"],"horizon":5,"forced_choices":["rightarrow","rightarrow","leftarrow","leftarrow"],"right_color":"orange","left_color":"lightblue","left_mu":40,"right_mu":70,"left_numbers":[33,31,48,37,37],"right_numbers":[81,79,63,61,80],"points_earned":325,"phase":"task","trial_type":"horizons-task","trial_index":96,"time_elapsed":1668437,"internal_node_id":"0.0-87.0","task_version":"0.2"},{"rt":48690.699999999255,"responses":{"age":"32","gender-categorical":"Female","gender-free-response":"","ethnicity":"Not Hispanic or Latino","race":["Black or African American"],"language":"Yes","fluency":"Very well"},"survey":"demographics","trial_type":"survey-demo","trial_index":97,"time_elapsed":1717174,"internal_node_id":"0.0-88.0","task_version":"0.2"},{"rt":36562.20000000042,"responses":{"difficulty":"5","fun":"5","clarity":"5","strategy":"Yes","feedback":"No"},"survey":"debrief","trial_type":"survey-debrief","trial_index":98,"time_elapsed":1753774,"internal_node_id":"0.0-89.0","task_version":"0.2","interactions":"[{\"event\":\"focus\",\"trial\":0,\"time\":12843},{\"event\":\"blur\",\"trial\":1,\"time\":13450},{\"event\":\"focus\",\"trial\":1,\"time\":25556},{\"event\":\"blur\",\"trial\":1,\"time\":25659},{\"event\":\"focus\",\"trial\":1,\"time\":26750},{\"event\":\"blur\",\"trial\":1,\"time\":27674},{\"event\":\"focus\",\"trial\":1,\"time\":48063},{\"event\":\"blur\",\"trial\":1,\"time\":48543},{\"event\":\"focus\",\"trial\":1,\"time\":54042},{\"event\":\"blur\",\"trial\":1,\"time\":54650},{\"event\":\"focus\",\"trial\":1,\"time\":58320},{\"event\":\"blur\",\"trial\":1,\"time\":58724},{\"event\":\"focus\",\"trial\":1,\"time\":59124},{\"event\":\"blur\",\"trial\":1,\"time\":59726},{\"event\":\"focus\",\"trial\":1,\"time\":64800},{\"event\":\"blur\",\"trial\":1,\"time\":65836},{\"event\":\"focus\",\"trial\":1,\"time\":66050},{\"event\":\"blur\",\"trial\":1,\"time\":66854},{\"event\":\"focus\",\"trial\":1,\"time\":67014},{\"event\":\"blur\",\"trial\":1,\"time\":67876},{\"event\":\"focus\",\"trial\":1,\"time\":68005},{\"event\":\"blur\",\"trial\":1,\"time\":68889},{\"event\":\"focus\",\"trial\":1,\"time\":76885},{\"event\":\"blur\",\"trial\":1,\"time\":77032},{\"event\":\"focus\",\"trial\":1,\"time\":78253},{\"event\":\"blur\",\"trial\":1,\"time\":79066},{\"event\":\"focus\",\"trial\":1,\"time\":80842},{\"event\":\"blur\",\"trial\":1,\"time\":81102},{\"event\":\"focus\",\"trial\":1,\"time\":81953},{\"event\":\"blur\",\"trial\":1,\"time\":82126},{\"event\":\"focus\",\"trial\":1,\"time\":83198},{\"event\":\"blur\",\"trial\":1,\"time\":84153},{\"event\":\"focus\",\"trial\":1,\"time\":84319},{\"event\":\"blur\",\"trial\":1,\"time\":85161},{\"event\":\"focus\",\"trial\":1,\"time\":85690},{\"event\":\"blur\",\"trial\":1,\"time\":86186},{\"event\":\"focus\",\"trial\":1,\"time\":151344},{\"event\":\"blur\",\"trial\":1,\"time\":151474},{\"event\":\"focus\",\"trial\":1,\"time\":152241},{\"event\":\"blur\",\"trial\":1,\"time\":152394},{\"event\":\"focus\",\"trial\":1,\"time\":153217},{\"event\":\"blur\",\"trial\":1,\"time\":153418},{\"event\":\"focus\",\"trial\":1,\"time\":154144},{\"event\":\"blur\",\"trial\":1,\"time\":154437},{\"event\":\"focus\",\"trial\":1,\"time\":159151},{\"event\":\"blur\",\"trial\":1,\"time\":159529},{\"event\":\"focus\",\"trial\":1,\"time\":160131},{\"event\":\"blur\",\"trial\":1,\"time\":160546},{\"event\":\"focus\",\"trial\":1,\"time\":162277},{\"event\":\"blur\",\"trial\":1,\"time\":162377},{\"event\":\"focus\",\"trial\":1,\"time\":176767},{\"event\":\"blur\",\"trial\":1,\"time\":176830},{\"event\":\"focus\",\"trial\":1,\"time\":183193},{\"event\":\"blur\",\"trial\":1,\"time\":183957},{\"event\":\"focus\",\"trial\":1,\"time\":186078},{\"event\":\"blur\",\"trial\":1,\"time\":187019},{\"event\":\"focus\",\"trial\":1,\"time\":189621},{\"event\":\"blur\",\"trial\":1,\"time\":190062},{\"event\":\"focus\",\"trial\":1,\"time\":197346},{\"event\":\"blur\",\"trial\":1,\"time\":198199},{\"event\":\"focus\",\"trial\":1,\"time\":198747},{\"event\":\"blur\",\"trial\":2,\"time\":199249},{\"event\":\"focus\",\"trial\":2,\"time\":200791},{\"event\":\"blur\",\"trial\":2,\"time\":201249},{\"event\":\"focus\",\"trial\":2,\"time\":204692},{\"event\":\"blur\",\"trial\":2,\"time\":205316},{\"event\":\"focus\",\"trial\":2,\"time\":206065},{\"event\":\"blur\",\"trial\":2,\"time\":206333},{\"event\":\"focus\",\"trial\":2,\"time\":209114},{\"event\":\"blur\",\"trial\":2,\"time\":209405},{\"event\":\"focus\",\"trial\":2,\"time\":211964},{\"event\":\"blur\",\"trial\":2,\"time\":212453},{\"event\":\"focus\",\"trial\":2,\"time\":215538},{\"event\":\"blur\",\"trial\":2,\"time\":216529},{\"event\":\"focus\",\"trial\":2,\"time\":216800},{\"event\":\"blur\",\"trial\":2,\"time\":217559},{\"event\":\"focus\",\"trial\":2,\"time\":221234},{\"event\":\"blur\",\"trial\":2,\"time\":221620},{\"event\":\"focus\",\"trial\":2,\"time\":222148},{\"event\":\"blur\",\"trial\":2,\"time\":222644},{\"event\":\"focus\",\"trial\":2,\"time\":222965},{\"event\":\"blur\",\"trial\":2,\"time\":223658},{\"event\":\"focus\",\"trial\":2,\"time\":226042},{\"event\":\"blur\",\"trial\":2,\"time\":226713},{\"event\":\"focus\",\"trial\":2,\"time\":228929},{\"event\":\"blur\",\"trial\":2,\"time\":229779},{\"event\":\"focus\",\"trial\":2,\"time\":230931},{\"event\":\"blur\",\"trial\":2,\"time\":231804},{\"event\":\"focus\",\"trial\":2,\"time\":235086},{\"event\":\"blur\",\"trial\":2,\"time\":235875},{\"event\":\"focus\",\"trial\":2,\"time\":238294},{\"event\":\"blur\",\"trial\":2,\"time\":238941},{\"event\":\"focus\",\"trial\":2,\"time\":239102},{\"event\":\"blur\",\"trial\":2,\"time\":239948},{\"event\":\"focus\",\"trial\":2,\"time\":245540},{\"event\":\"blur\",\"trial\":2,\"time\":246077},{\"event\":\"focus\",\"trial\":2,\"time\":246661},{\"event\":\"blur\",\"trial\":2,\"time\":247097},{\"event\":\"focus\",\"trial\":2,\"time\":247573},{\"event\":\"blur\",\"trial\":2,\"time\":248123},{\"event\":\"focus\",\"trial\":2,\"time\":248481},{\"event\":\"blur\",\"trial\":2,\"time\":249135},{\"event\":\"focus\",\"trial\":2,\"time\":249329},{\"event\":\"blur\",\"trial\":2,\"time\":250139},{\"event\":\"focus\",\"trial\":2,\"time\":250334},{\"event\":\"blur\",\"trial\":2,\"time\":251160},{\"event\":\"focus\",\"trial\":2,\"time\":252153},{\"event\":\"blur\",\"trial\":2,\"time\":252246},{\"event\":\"focus\",\"trial\":2,\"time\":252927},{\"event\":\"blur\",\"trial\":2,\"time\":253188},{\"event\":\"focus\",\"trial\":2,\"time\":253956},{\"event\":\"blur\",\"trial\":2,\"time\":254243},{\"event\":\"focus\",\"trial\":2,\"time\":254714},{\"event\":\"blur\",\"trial\":2,\"time\":255223},{\"event\":\"focus\",\"trial\":2,\"time\":258662},{\"event\":\"blur\",\"trial\":2,\"time\":259317},{\"event\":\"focus\",\"trial\":2,\"time\":265799},{\"event\":\"blur\",\"trial\":2,\"time\":266425},{\"event\":\"focus\",\"trial\":2,\"time\":269846},{\"event\":\"blur\",\"trial\":2,\"time\":270493},{\"event\":\"focus\",\"trial\":2,\"time\":271433},{\"event\":\"blur\",\"trial\":2,\"time\":271583},{\"event\":\"focus\",\"trial\":2,\"time\":290578},{\"event\":\"blur\",\"trial\":2,\"time\":290850},{\"event\":\"focus\",\"trial\":2,\"time\":293798},{\"event\":\"blur\",\"trial\":2,\"time\":293933},{\"event\":\"focus\",\"trial\":2,\"time\":295027},{\"event\":\"blur\",\"trial\":2,\"time\":295953},{\"event\":\"focus\",\"trial\":2,\"time\":296528},{\"event\":\"blur\",\"trial\":2,\"time\":297033},{\"event\":\"focus\",\"trial\":2,\"time\":298985},{\"event\":\"blur\",\"trial\":2,\"time\":299060},{\"event\":\"focus\",\"trial\":2,\"time\":300023},{\"event\":\"blur\",\"trial\":2,\"time\":301028},{\"event\":\"focus\",\"trial\":2,\"time\":301720},{\"event\":\"blur\",\"trial\":2,\"time\":302078},{\"event\":\"focus\",\"trial\":2,\"time\":304090},{\"event\":\"blur\",\"trial\":2,\"time\":304181},{\"event\":\"focus\",\"trial\":2,\"time\":304333},{\"event\":\"blur\",\"trial\":2,\"time\":305102},{\"event\":\"focus\",\"trial\":2,\"time\":305746},{\"event\":\"blur\",\"trial\":2,\"time\":306143},{\"event\":\"focus\",\"trial\":2,\"time\":306538},{\"event\":\"blur\",\"trial\":2,\"time\":307129},{\"event\":\"focus\",\"trial\":2,\"time\":307489},{\"event\":\"blur\",\"trial\":2,\"time\":308178},{\"event\":\"focus\",\"trial\":2,\"time\":310064},{\"event\":\"blur\",\"trial\":2,\"time\":310191},{\"event\":\"focus\",\"trial\":2,\"time\":311015},{\"event\":\"blur\",\"trial\":2,\"time\":311201},{\"event\":\"focus\",\"trial\":2,\"time\":312025},{\"event\":\"blur\",\"trial\":2,\"time\":312219},{\"event\":\"focus\",\"trial\":2,\"time\":312781},{\"event\":\"blur\",\"trial\":2,\"time\":313270},{\"event\":\"focus\",\"trial\":2,\"time\":316198},{\"event\":\"blur\",\"trial\":2,\"time\":316320},{\"event\":\"focus\",\"trial\":2,\"time\":316973},{\"event\":\"blur\",\"trial\":2,\"time\":317307},{\"event\":\"focus\",\"trial\":2,\"time\":322282},{\"event\":\"blur\",\"trial\":3,\"time\":333335},{\"event\":\"focus\",\"trial\":3,\"time\":340591},{\"event\":\"blur\",\"trial\":3,\"time\":341456},{\"event\":\"focus\",\"trial\":3,\"time\":341603},{\"event\":\"blur\",\"trial\":3,\"time\":342465},{\"event\":\"focus\",\"trial\":3,\"time\":343467},{\"event\":\"blur\",\"trial\":3,\"time\":343559},{\"event\":\"focus\",\"trial\":3,\"time\":344594},{\"event\":\"blur\",\"trial\":3,\"time\":345515},{\"event\":\"focus\",\"trial\":3,\"time\":345669},{\"event\":\"blur\",\"trial\":3,\"time\":346527},{\"event\":\"focus\",\"trial\":3,\"time\":350634},{\"event\":\"blur\",\"trial\":3,\"time\":350666},{\"event\":\"focus\",\"trial\":3,\"time\":351424},{\"event\":\"blur\",\"trial\":3,\"time\":351617},{\"event\":\"focus\",\"trial\":3,\"time\":352175},{\"event\":\"blur\",\"trial\":3,\"time\":352775},{\"event\":\"focus\",\"trial\":3,\"time\":353078},{\"event\":\"blur\",\"trial\":3,\"time\":353652},{\"event\":\"focus\",\"trial\":3,\"time\":355210},{\"event\":\"blur\",\"trial\":3,\"time\":355688},{\"event\":\"focus\",\"trial\":3,\"time\":361878},{\"event\":\"blur\",\"trial\":3,\"time\":362811},{\"event\":\"focus\",\"trial\":3,\"time\":365736},{\"event\":\"blur\",\"trial\":3,\"time\":365887},{\"event\":\"focus\",\"trial\":3,\"time\":366656},{\"event\":\"blur\",\"trial\":3,\"time\":366890},{\"event\":\"focus\",\"trial\":3,\"time\":367603},{\"event\":\"blur\",\"trial\":3,\"time\":367922},{\"event\":\"focus\",\"trial\":3,\"time\":368442},{\"event\":\"blur\",\"trial\":3,\"time\":368924},{\"event\":\"focus\",\"trial\":3,\"time\":373496},{\"event\":\"blur\",\"trial\":3,\"time\":374025},{\"event\":\"focus\",\"trial\":3,\"time\":374590},{\"event\":\"blur\",\"trial\":3,\"time\":375047},{\"event\":\"focus\",\"trial\":3,\"time\":379398},{\"event\":\"blur\",\"trial\":3,\"time\":380121},{\"event\":\"focus\",\"trial\":3,\"time\":383765},{\"event\":\"blur\",\"trial\":3,\"time\":384225},{\"event\":\"focus\",\"trial\":3,\"time\":384620},{\"event\":\"blur\",\"trial\":3,\"time\":385219},{\"event\":\"focus\",\"trial\":3,\"time\":392348},{\"event\":\"blur\",\"trial\":3,\"time\":392523},{\"event\":\"focus\",\"trial\":3,\"time\":393838},{\"event\":\"blur\",\"trial\":3,\"time\":394399},{\"event\":\"focus\",\"trial\":3,\"time\":400115},{\"event\":\"blur\",\"trial\":3,\"time\":400509},{\"event\":\"focus\",\"trial\":3,\"time\":404413},{\"event\":\"blur\",\"trial\":3,\"time\":404589},{\"event\":\"focus\",\"trial\":3,\"time\":405308},{\"event\":\"blur\",\"trial\":3,\"time\":405599},{\"event\":\"focus\",\"trial\":3,\"time\":413009},{\"event\":\"blur\",\"trial\":3,\"time\":413742},{\"event\":\"focus\",\"trial\":3,\"time\":416453},{\"event\":\"blur\",\"trial\":3,\"time\":416787},{\"event\":\"focus\",\"trial\":3,\"time\":417323},{\"event\":\"blur\",\"trial\":3,\"time\":417805},{\"event\":\"focus\",\"trial\":3,\"time\":418255},{\"event\":\"blur\",\"trial\":3,\"time\":418826},{\"event\":\"focus\",\"trial\":3,\"time\":419086},{\"event\":\"blur\",\"trial\":3,\"time\":419848},{\"event\":\"focus\",\"trial\":3,\"time\":420018},{\"event\":\"blur\",\"trial\":3,\"time\":420852},{\"event\":\"focus\",\"trial\":3,\"time\":421616},{\"event\":\"blur\",\"trial\":3,\"time\":421875},{\"event\":\"focus\",\"trial\":4,\"time\":433166},{\"event\":\"blur\",\"trial\":4,\"time\":434083},{\"event\":\"focus\",\"trial\":4,\"time\":441686},{\"event\":\"blur\",\"trial\":4,\"time\":442242},{\"event\":\"focus\",\"trial\":4,\"time\":444951},{\"event\":\"blur\",\"trial\":4,\"time\":445303},{\"event\":\"focus\",\"trial\":4,\"time\":458631},{\"event\":\"blur\",\"trial\":4,\"time\":459552},{\"event\":\"focus\",\"trial\":4,\"time\":486266},{\"event\":\"blur\",\"trial\":4,\"time\":487065},{\"event\":\"focus\",\"trial\":4,\"time\":499369},{\"event\":\"blur\",\"trial\":4,\"time\":500322},{\"event\":\"focus\",\"trial\":4,\"time\":500953},{\"event\":\"blur\",\"trial\":4,\"time\":501334},{\"event\":\"focus\",\"trial\":4,\"time\":512542},{\"event\":\"blur\",\"trial\":4,\"time\":512629},{\"event\":\"focus\",\"trial\":4,\"time\":513648},{\"event\":\"blur\",\"trial\":4,\"time\":514574},{\"event\":\"focus\",\"trial\":4,\"time\":524035},{\"event\":\"blur\",\"trial\":4,\"time\":524760},{\"event\":\"focus\",\"trial\":4,\"time\":539030},{\"event\":\"blur\",\"trial\":4,\"time\":539113},{\"event\":\"focus\",\"trial\":4,\"time\":540018},{\"event\":\"blur\",\"trial\":4,\"time\":540093},{\"event\":\"focus\",\"trial\":4,\"time\":542693},{\"event\":\"blur\",\"trial\":4,\"time\":543121},{\"event\":\"focus\",\"trial\":4,\"time\":563887},{\"event\":\"blur\",\"trial\":4,\"time\":564503},{\"event\":\"focus\",\"trial\":4,\"time\":577724},{\"event\":\"blur\",\"trial\":4,\"time\":577793},{\"event\":\"focus\",\"trial\":4,\"time\":578800},{\"event\":\"blur\",\"trial\":4,\"time\":579755},{\"event\":\"focus\",\"trial\":4,\"time\":588343},{\"event\":\"blur\",\"trial\":5,\"time\":588915},{\"event\":\"focus\",\"trial\":5,\"time\":591509},{\"event\":\"blur\",\"trial\":5,\"time\":591985},{\"event\":\"focus\",\"trial\":5,\"time\":596511},{\"event\":\"blur\",\"trial\":5,\"time\":597070},{\"event\":\"focus\",\"trial\":5,\"time\":604649},{\"event\":\"blur\",\"trial\":5,\"time\":607424},{\"event\":\"focus\",\"trial\":5,\"time\":619172},{\"event\":\"blur\",\"trial\":97,\"time\":1674539},{\"event\":\"focus\",\"trial\":97,\"time\":1679141}]"}]