[{"view_history":"[{\"page_index\":0,\"viewing_time\":2310.3250000276603}]","rt":2310.6550000375137,"trial_type":"instructions","trial_index":0,"time_elapsed":2322,"internal_node_id":"0.0-0.0","task_version":"0.2"},{"item_order":[5,12,9,7,6,3,0,2,10,1,4,8,11],"responses":{"Q06":"4","Q13":"4","Q10":"4","Q08":"4","Q07":"4","Q04":"3","Q01":"4","Q03":"3","Q11":"4","Q02":"4","Q05":"4","Q09":"1","Q12":"4"},"radio_events":[12453.324999951292,16008.619999978691,22286.62999998778,25980.76999996556,31195.539999986067,43651.41999995103,54293.889999971725,60388.45499994932,67638.58999998774,71595.66499997163,74374.43499994697,82950.70999994641,90871.78999994649,95007.8199999989],"key_events":[],"mouse_events":[0.43999997433274984,12453.324999951292,16008.619999978691,22286.62999998778,25980.76999996556,31195.539999986067,43651.41999995103,53264.054999977816,54293.889999971725,60388.45499994932,67638.58999998774,71105.38500000257,71595.66499997163,74374.43499994697,82950.70999994641,90871.78999994649,95007.8199999989,95555.29499996919],"rt":95557.08499997854,"survey":"ius12","trial_type":"survey-template","trial_index":1,"time_elapsed":97893,"internal_node_id":"0.0-1.0","task_version":"0.2"},{"item_order":[8,13,12,2,9,5,3,15,0,1,6,14,10,7,16,11,4],"responses":{"Q09":"4","Q14":"4","Q13":"2","Q03":"4","Q10":"4","Q06":"4","Q04":"1","Q16":"1","Q01":"4","Q02":"4","Q07":"1","Q15":"1","Q11":"4","Q08":"4","Q17":"0","Q12":"0","Q05":"4"},"radio_events":[5528.660000010859,8070.219999994151,15143.76499998616,21061.77500000922,22639.555000001565,25647.3550000228,30363.690000027418,36265.669999993406,38595.29000002658,46769.444999983534,50815.55499997921,54665.73499998776,56267.920000012964,60166.87999997521,66436.17499998072,73220.64499999397,76612.62500000885,81566.64500001352,85988.24500001501],"key_events":[],"mouse_events":[5528.660000010859,8070.219999994151,15143.76499998616,21061.77500000922,22639.555000001565,25647.3550000228,30363.690000027418,36265.669999993406,38195.1049999916,38595.29000002658,46769.444999983534,50815.55499997921,54665.73499998776,56267.920000012964,60166.87999997521,66436.17499998072,72435.76999998186,73220.64499999397,76612.62500000885,81566.64500001352,85988.24500001501,86699.65999998385],"rt":86701.83999999426,"survey":"pswq","trial_type":"survey-template","trial_index":2,"time_elapsed":184607,"internal_node_id":"0.0-2.0","task_version":"0.2"},{"item_order":[7,14,5,9,11,10,12,3,4,2,13,8,0,15,1,6],"responses":{"Q08":"5","Q15":"5","Q06":"5","Q10":"4","Q12":"4","Q11":"5","Q13":"5","Q04":"5","Q05":"0","Q03":"3","Q14":"5","Q09":"4","Q01":"5","Q16":"5","Q02":"0","Q07":"5"},"radio_events":[7726.560000039171,10097.004999988712,15347.145000007004,24970.185000041965,38631.79499999387,47511.02500001434,50258.38000001386,61160.60500004096,68094.79000000283,75208.22999998927,89021.01500000572,113634.99500002945,117702.90000003297,122010.37999999244,131450.5000000354,138717.85000001546],"key_events":[],"mouse_events":[7726.560000039171,9623.155000037514,10097.004999988712,15347.145000007004,24970.185000041965,38631.79499999387,47511.02500001434,50258.38000001386,61160.60500004096,68094.79000000283,75208.22999998927,88293.57999999775,89021.01500000572,113634.99500002945,117702.90000003297,122010.37999999244,131450.5000000354,138717.85000001546,139502.5950000272],"rt":139505.17000001855,"survey":"nfc","trial_type":"survey-template","trial_index":3,"time_elapsed":324129,"internal_node_id":"0.0-3.0","task_version":"0.2"},{"view_history":"[{\"page_index\":0,\"viewing_time\":4564.364999998361},{\"page_index\":1,\"viewing_time\":11452.52500002971},{\"page_index\":2,\"viewing_time\":16068.414999986999},{\"page_index\":3,\"viewing_time\":14864.179999975022},{\"page_index\":4,\"viewing_time\":19703.680000035092},{\"page_index\":5,\"viewing_time\":8083.26499996474},{\"page_index\":6,\"viewing_time\":14307.670000009239},{\"page_index\":7,\"viewing_time\":14180.675000010524},{\"page_index\":8,\"viewing_time\":10204.729999997653},{\"page_index\":9,\"viewing_time\":17712.19500002917}]","rt":131141.99500001268,"trial_type":"instructions","trial_index":4,"time_elapsed":455285,"internal_node_id":"0.0-4.0-0.0","task_version":"0.2"},{"response_times":[1068.8950000330806,978.5900000133552,504.19499998679385,646.984999999404,697.5400000228547],"keys_pressed":["rightarrow","leftarrow","rightarrow","rightarrow","rightarrow"],"horizon":5,"forced_choices":["rightarrow","leftarrow","rightarrow","rightarrow"],"right_color":"lightblue","left_color":"orange","left_mu":40,"right_mu":20,"left_numbers":[42,52,58,40,37],"right_numbers":[4,28,7,20,4],"points_earned":87,"phase":"practice","trial_type":"horizons-task","trial_index":5,"time_elapsed":460693,"internal_node_id":"0.0-4.0-1.0","task_version":"0.2"},{"response_times":[1024.135000014212,1065.7450000289828,712.134999979753,987.9949999740347,928.684999991674,15.874999982770532,2530.9099999722093,1076.9899999722838,1348.9149999804795,511.800000036601],"keys_pressed":["leftarrow","leftarrow","rightarrow","rightarrow","rightarrow","leftarrow","leftarrow","rightarrow","leftarrow","rightarrow"],"horizon":10,"forced_choices":["leftarrow","leftarrow","rightarrow","rightarrow"],"right_color":"orange","left_color":"lightblue","left_mu":60,"right_mu":70,"left_numbers":[68,52,62,66,43,61,50,56,64,44],"right_numbers":[66,89,59,65,63,74,71,77,72,75],"points_earned":634,"phase":"practice","trial_type":"horizons-task","trial_index":6,"time_elapsed":472403,"internal_node_id":"0.0-4.0-2.0","task_version":"0.2"},{"view_history":"[{\"page_index\":0,\"viewing_time\":1765.5849999864586},{\"page_index\":1,\"viewing_time\":7862.645000044722},{\"page_index\":2,\"viewing_time\":8504.459999967366},{\"page_index\":3,\"viewing_time\":4926.495000021532}]","rt":23059.345000016037,"trial_type":"instructions","trial_index":7,"time_elapsed":495466,"internal_node_id":"0.0-4.0-3.0","task_version":"0.2"},{"responses":["true","false","true"],"num_errors":0,"rt":13906.385000038426,"trial_type":"horizons-comprehension","trial_index":8,"time_elapsed":509375,"internal_node_id":"0.0-4.0-4.0","task_version":"0.2"},{"trial_type":"call-function","trial_index":9,"time_elapsed":509377,"internal_node_id":"0.0-5.0","task_version":"0.2"},{"view_history":"[{\"page_index\":0,\"viewing_time\":1441.484999959357},{\"page_index\":1,\"viewing_time\":6735.150000022259}]","rt":8176.83999997098,"trial_type":"instructions","trial_index":10,"time_elapsed":517556,"internal_node_id":"0.0-6.0","task_version":"0.2"},{"response_times":[1113.16499998793,930.7250000420026,797.9400000185706,629.1849999688566,7846.324999991339],"keys_pressed":["rightarrow","rightarrow","rightarrow","leftarrow","leftarrow"],"horizon":5,"forced_choices":["rightarrow","rightarrow","rightarrow","leftarrow"],"right_color":"orange","left_color":"lightblue","left_mu":60,"right_mu":40,"left_numbers":[72,70,65,62,50],"right_numbers":[46,29,51,37,44],"points_earned":238,"phase":"task","trial_type":"horizons-task","trial_index":11,"time_elapsed":530383,"internal_node_id":"0.0-7.0","task_version":"0.2"},{"response_times":[1440.6050000106916,545.1149999862537,550.1599999843165,483.6500000092201,3713.0299999844283,1944.6699999971315,1017.4299999489449,742.2450000303797,558.6800000164658,459.15000000968575],"keys_pressed":["leftarrow","rightarrow","leftarrow","rightarrow","rightarrow","leftarrow","rightarrow","rightarrow","rightarrow","rightarrow"],"horizon":10,"forced_choices":["leftarrow","rightarrow","leftarrow","rightarrow"],"right_color":"lightblue","left_color":"orange","left_mu":40,"right_mu":60,"left_numbers":[29,38,35,35,34,35,50,28,58,37],"right_numbers":[52,54,60,58,49,43,62,57,63,61],"points_earned":503,"phase":"task","trial_type":"horizons-task","trial_index":12,"time_elapsed":543344,"internal_node_id":"0.0-8.0","task_version":"0.2"},{"response_times":[1032.0300000021234,631.6600000136532,1206.220000050962,553.8149999920279,1369.8600000352599],"keys_pressed":["rightarrow","leftarrow","leftarrow","rightarrow","rightarrow"],"horizon":5,"forced_choices":["rightarrow","leftarrow","leftarrow","rightarrow"],"right_color":"orange","left_color":"lightblue","left_mu":60,"right_mu":90,"left_numbers":[70,50,57,69,64],"right_numbers":[84,89,85,97,98],"points_earned":386,"phase":"task","trial_type":"horizons-task","trial_index":13,"time_elapsed":549643,"internal_node_id":"0.0-9.0","task_version":"0.2"},{"response_times":[760.1799999829382,951.1449999990873,709.7799999755807,894.8600000003353,1954.825000022538],"keys_pressed":["leftarrow","rightarrow","leftarrow","rightarrow","rightarrow"],"horizon":5,"forced_choices":["leftarrow","rightarrow","leftarrow","rightarrow"],"right_color":"lightblue","left_color":"orange","left_mu":40,"right_mu":60,"left_numbers":[44,56,51,40,32],"right_numbers":[59,68,50,50,77],"points_earned":290,"phase":"task","trial_type":"horizons-task","trial_index":14,"time_elapsed":556418,"internal_node_id":"0.0-10.0","task_version":"0.2"},{"response_times":[966.3450000225566,987.9000000073574,1065.889999968931,1006.22999999905,3957.764999999199,592.5700000370853,643.9300000201911,1365.4499999829568,582.2499999776483,566.1250000121072],"keys_pressed":["rightarrow","rightarrow","leftarrow","leftarrow","leftarrow","rightarrow","rightarrow","leftarrow","rightarrow","rightarrow"],"horizon":10,"forced_choices":["rightarrow","rightarrow","leftarrow","leftarrow"],"right_color":"lightblue","left_color":"orange","left_mu":40,"right_mu":48,"left_numbers":[37,23,36,52,30,32,48,30,38,35],"right_numbers":[39,41,32,38,44,62,49,36,62,38],"points_earned":439,"phase":"task","trial_type":"horizons-task","trial_index":15,"time_elapsed":569671,"internal_node_id":"0.0-11.0","task_version":"0.2"},{"response_times":[915.9750000108033,892.8149999701418,1512.1100000105798,1199.9599999981,1498.0450000148267,762.5049999915063,568.0449999636039,740.8399999840185,426.0350000113249,461.1700000241399],"keys_pressed":["rightarrow","leftarrow","leftarrow","leftarrow","rightarrow","leftarrow","leftarrow","leftarrow","rightarrow","leftarrow"],"horizon":10,"forced_choices":["rightarrow","leftarrow","leftarrow","leftarrow"],"right_color":"lightblue","left_color":"orange","left_mu":60,"right_mu":52,"left_numbers":[52,51,52,70,64,61,61,62,65,66],"right_numbers":[46,52,65,58,45,47,48,56,49,44],"points_earned":563,"phase":"task","trial_type":"horizons-task","trial_index":16,"time_elapsed":580155,"internal_node_id":"0.0-12.0","task_version":"0.2"},{"response_times":[897.3600000026636,479.749999998603,1471.9950000289828,792.055000027176,993.6050000251271,1021.2149999570101,835.2000000304542,758.5299999918789,746.164999960456,712.7399999881163],"keys_pressed":["leftarrow","rightarrow","leftarrow","rightarrow","rightarrow","rightarrow","rightarrow","rightarrow","rightarrow","rightarrow"],"horizon":10,"forced_choices":["leftarrow","rightarrow","leftarrow","rightarrow"],"right_color":"lightblue","left_color":"orange","left_mu":60,"right_mu":80,"left_numbers":[74,65,63,61,54,44,68,61,51,59],"right_numbers":[93,80,93,85,72,90,69,85,67,65],"points_earned":750,"phase":"task","trial_type":"horizons-task","trial_index":17,"time_elapsed":590369,"internal_node_id":"0.0-13.0","task_version":"0.2"},{"response_times":[719.3550000083633,513.959999952931,515.9500000299886,1254.6000000438653,1685.2949999738485,859.7650000010617,420.95500003779307,588.9450000249781,501.1149999918416,644.0099999890663],"keys_pressed":["rightarrow","leftarrow","rightarrow","rightarrow","leftarrow","rightarrow","leftarrow","leftarrow","leftarrow","leftarrow"],"horizon":10,"forced_choices":["rightarrow","leftarrow","rightarrow","rightarrow"],"right_color":"orange","left_color":"lightblue","left_mu":40,"right_mu":20,"left_numbers":[28,37,44,24,33,45,38,32,41,34],"right_numbers":[33,16,16,23,23,11,21,21,12,19],"points_earned":298,"phase":"task","trial_type":"horizons-task","trial_index":18,"time_elapsed":599580,"internal_node_id":"0.0-14.0","task_version":"0.2"},{"response_times":[990.5400000279769,985.8399999793619,774.9949999852106,745.6900000106543,788.3850000216626],"keys_pressed":["leftarrow","leftarrow","rightarrow","rightarrow","leftarrow"],"horizon":5,"forced_choices":["leftarrow","leftarrow","rightarrow","rightarrow"],"right_color":"orange","left_color":"lightblue","left_mu":60,"right_mu":48,"left_numbers":[53,74,56,65,61],"right_numbers":[33,49,52,49,59],"points_earned":289,"phase":"task","trial_type":"horizons-task","trial_index":19,"time_elapsed":605371,"internal_node_id":"0.0-15.0","task_version":"0.2"},{"response_times":[809.5300000277348,400.0550000346266,528.9450000273064,461.86999999918044,3214.33500002604,1352.8449999867007,1257.480000029318,364.02500001713634,654.1300000390038,1428.6800000118092],"keys_pressed":["leftarrow","rightarrow","rightarrow","leftarrow","rightarrow","rightarrow","rightarrow","leftarrow","rightarrow","leftarrow"],"horizon":10,"forced_choices":["leftarrow","rightarrow","rightarrow","leftarrow"],"right_color":"lightblue","left_color":"orange","left_mu":60,"right_mu":64,"left_numbers":[52,65,62,64,62,48,63,60,70,45],"right_numbers":[66,59,68,60,64,69,61,61,51,56],"points_earned":593,"phase":"task","trial_type":"horizons-task","trial_index":20,"time_elapsed":617347,"internal_node_id":"0.0-16.0","task_version":"0.2"},{"response_times":[1936.5349999861792,1122.8550000232644,1000.0149999978021,866.8199999956414,1074.910000024829],"keys_pressed":["rightarrow","rightarrow","leftarrow","leftarrow","leftarrow"],"horizon":5,"forced_choices":["rightarrow","rightarrow","leftarrow","leftarrow"],"right_color":"orange","left_color":"lightblue","left_mu":40,"right_mu":20,"left_numbers":[48,57,46,35,38],"right_numbers":[0,25,39,21,19],"points_earned":144,"phase":"task","trial_type":"horizons-task","trial_index":21,"time_elapsed":624854,"internal_node_id":"0.0-17.0","task_version":"0.2"},{"response_times":[838.8549999799579,888.0800000042655,563.6499999673106,654.5850000111386,4828.900000022259],"keys_pressed":["leftarrow","leftarrow","rightarrow","rightarrow","rightarrow"],"horizon":5,"forced_choices":["leftarrow","leftarrow","rightarrow","rightarrow"],"right_color":"lightblue","left_color":"orange","left_mu":40,"right_mu":32,"left_numbers":[31,31,32,39,25],"right_numbers":[32,15,35,28,21],"points_earned":146,"phase":"task","trial_type":"horizons-task","trial_index":22,"time_elapsed":634133,"internal_node_id":"0.0-18.0","task_version":"0.2"},{"response_times":[1203.3500000252388,666.0900000133552,640.8649999648333,715.8049999852665,2507.859999954235,804.2000000132248,744.0549999591894,699.6849999995902,603.3450000104494,863.3149999659508],"keys_pressed":["rightarrow","rightarrow","leftarrow","rightarrow","rightarrow","rightarrow","rightarrow","rightarrow","rightarrow","rightarrow"],"horizon":10,"forced_choices":["rightarrow","rightarrow","leftarrow","rightarrow"],"right_color":"lightblue","left_color":"orange","left_mu":40,"right_mu":60,"left_numbers":[37,36,41,37,44,23,28,32,44,36],"right_numbers":[47,59,62,43,51,56,59,52,73,64],"points_earned":545,"phase":"task","trial_type":"horizons-task","trial_index":23,"time_elapsed":645086,"internal_node_id":"0.0-19.0","task_version":"0.2"},{"response_times":[922.1749999560416,1062.2350000194274,950.0300000072457,771.5600000228733,5362.374999967869],"keys_pressed":["leftarrow","rightarrow","leftarrow","rightarrow","rightarrow"],"horizon":5,"forced_choices":["leftarrow","rightarrow","leftarrow","rightarrow"],"right_color":"orange","left_color":"lightblue","left_mu":40,"right_mu":52,"left_numbers":[33,33,46,37,43],"right_numbers":[54,54,49,43,57],"points_earned":233,"phase":"task","trial_type":"horizons-task","trial_index":24,"time_elapsed":655662,"internal_node_id":"0.0-20.0","task_version":"0.2"},{"response_times":[1722.0150000066496,633.8450000039302,879.7550000017509,770.2900000149384,7875.110000022687,721.2700000382029,504.735000024084,1056.250000023283,396.86999999685213,512.5650000409223],"keys_pressed":["leftarrow","rightarrow","leftarrow","leftarrow","leftarrow","leftarrow","leftarrow","rightarrow","leftarrow","leftarrow"],"horizon":10,"forced_choices":["leftarrow","rightarrow","leftarrow","leftarrow"],"right_color":"orange","left_color":"lightblue","left_mu":60,"right_mu":48,"left_numbers":[43,66,57,40,77,59,43,56,51,64],"right_numbers":[43,52,49,52,40,58,39,49,43,35],"points_earned":535,"phase":"task","trial_type":"horizons-task","trial_index":25,"time_elapsed":672242,"internal_node_id":"0.0-21.0","task_version":"0.2"},{"response_times":[957.7449999633245,821.8399999896064,855.9300000197254,591.3750000181608,4378.555000002962,286.6449999855831,211.86999999918044,176.2950000120327,181.8650000495836,161.8400000152178],"keys_pressed":["rightarrow","leftarrow","rightarrow","leftarrow","leftarrow","leftarrow","leftarrow","leftarrow","leftarrow","leftarrow"],"horizon":10,"forced_choices":["rightarrow","leftarrow","rightarrow","leftarrow"],"right_color":"lightblue","left_color":"orange","left_mu":40,"right_mu":10,"left_numbers":[31,49,39,37,47,51,31,27,21,33],"right_numbers":[25,5,8,2,18,11,3,9,7,5],"points_earned":329,"phase":"task","trial_type":"horizons-task","trial_index":26,"time_elapsed":682373,"internal_node_id":"0.0-22.0","task_version":"0.2"},{"response_times":[762.0199999655597,743.7149999896064,730.9050000039861,661.1650000559166,3771.9400000059977,693.9249999704771,341.7399999452755,477.08500002045184,478.07499999180436,280.08500003488734],"keys_pressed":["rightarrow","leftarrow","leftarrow","rightarrow","leftarrow","rightarrow","leftarrow","rightarrow","rightarrow","rightarrow"],"horizon":10,"forced_choices":["rightarrow","leftarrow","leftarrow","rightarrow"],"right_color":"lightblue","left_color":"orange","left_mu":60,"right_mu":72,"left_numbers":[54,53,63,50,56,64,66,59,73,60],"right_numbers":[54,67,74,57,80,73,67,60,75,73],"points_earned":630,"phase":"task","trial_type":"horizons-task","trial_index":27,"time_elapsed":692819,"internal_node_id":"0.0-23.0","task_version":"0.2"},{"response_times":[922.2450000233948,846.8449999927543,689.8000000510365,694.0000000176951,1105.8500000508502],"keys_pressed":["leftarrow","leftarrow","leftarrow","rightarrow","leftarrow"],"horizon":5,"forced_choices":["leftarrow","leftarrow","leftarrow","rightarrow"],"right_color":"lightblue","left_color":"orange","left_mu":40,"right_mu":10,"left_numbers":[35,35,50,48,51],"right_numbers":[13,1,8,0,5],"points_earned":171,"phase":"task","trial_type":"horizons-task","trial_index":28,"time_elapsed":698584,"internal_node_id":"0.0-24.0","task_version":"0.2"},{"response_times":[815.4449999565259,1005.6250000488944,867.0250000432134,903.0050000292249,1033.5250000352971,358.56999998213723,295.9649999975227,360.7799999881536,218.66000001318753,721.2350000045262],"keys_pressed":["leftarrow","leftarrow","leftarrow","rightarrow","leftarrow","leftarrow","leftarrow","rightarrow","leftarrow","leftarrow"],"horizon":10,"forced_choices":["leftarrow","leftarrow","leftarrow","rightarrow"],"right_color":"lightblue","left_color":"orange","left_mu":40,"right_mu":10,"left_numbers":[50,46,47,51,36,44,42,36,56,36],"right_numbers":[1,5,3,4,10,17,11,26,4,0],"points_earned":387,"phase":"task","trial_type":"horizons-task","trial_index":29,"time_elapsed":706668,"internal_node_id":"0.0-25.0","task_version":"0.2"},{"response_times":[666.1949999979697,773.250000027474,1076.9050000235438,902.9199999640696,858.9299999875948,662.5399999902584,919.4049999932759,1025.8799999719486,380.70500001776963,408.034999971278],"keys_pressed":["leftarrow","rightarrow","leftarrow","rightarrow","rightarrow","rightarrow","rightarrow","rightarrow","rightarrow","rightarrow"],"horizon":10,"forced_choices":["leftarrow","rightarrow","leftarrow","rightarrow"],"right_color":"orange","left_color":"lightblue","left_mu":40,"right_mu":52,"left_numbers":[40,29,26,48,42,36,45,48,51,43],"right_numbers":[39,57,43,68,59,53,57,53,51,45],"points_earned":509,"phase":"task","trial_type":"horizons-task","trial_index":30,"time_elapsed":715850,"internal_node_id":"0.0-26.0","task_version":"0.2"},{"response_times":[664.6350000519305,824.7800000244752,842.2000000136904,681.5800000331365,2923.1000000145286],"keys_pressed":["leftarrow","leftarrow","leftarrow","rightarrow","leftarrow"],"horizon":5,"forced_choices":["leftarrow","leftarrow","leftarrow","rightarrow"],"right_color":"orange","left_color":"lightblue","left_mu":60,"right_mu":56,"left_numbers":[56,57,53,53,68],"right_numbers":[49,62,57,53,60],"points_earned":287,"phase":"task","trial_type":"horizons-task","trial_index":31,"time_elapsed":723289,"internal_node_id":"0.0-27.0","task_version":"0.2"},{"response_times":[1228.0399999581277,553.7200000253506,613.8349999673665,720.7150000031106,1330.149999994319,909.9650000571273,379.9499999731779,568.985000019893,370.41000003227964,746.320000034757],"keys_pressed":["leftarrow","rightarrow","rightarrow","rightarrow","leftarrow","rightarrow","leftarrow","rightarrow","leftarrow","rightarrow"],"horizon":10,"forced_choices":["leftarrow","rightarrow","rightarrow","rightarrow"],"right_color":"lightblue","left_color":"orange","left_mu":60,"right_mu":68,"left_numbers":[71,52,63,61,55,61,56,71,67,57],"right_numbers":[61,66,67,65,54,55,72,59,73,49],"points_earned":610,"phase":"task","trial_type":"horizons-task","trial_index":32,"time_elapsed":732215,"internal_node_id":"0.0-28.0","task_version":"0.2"},{"response_times":[1061.989999958314,617.969999962952,457.8699999838136,437.7450000029057,2901.499999978114,1380.3149999585003,932.3000000440516,673.9850000012666,824.6250000083819,406.34000004502013],"keys_pressed":["rightarrow","leftarrow","rightarrow","leftarrow","leftarrow","leftarrow","rightarrow","rightarrow","leftarrow","leftarrow"],"horizon":10,"forced_choices":["rightarrow","leftarrow","rightarrow","leftarrow"],"right_color":"orange","left_color":"lightblue","left_mu":40,"right_mu":28,"left_numbers":[40,44,41,48,36,25,44,25,28,48],"right_numbers":[39,22,31,25,30,12,36,12,29,32],"points_earned":347,"phase":"task","trial_type":"horizons-task","trial_index":33,"time_elapsed":743415,"internal_node_id":"0.0-29.0","task_version":"0.2"},{"response_times":[1366.7350000469014,736.0249999910593,503.4800000139512,837.0150000555441,2814.9750000447966],"keys_pressed":["rightarrow","leftarrow","rightarrow","rightarrow","leftarrow"],"horizon":5,"forced_choices":["rightarrow","leftarrow","rightarrow","rightarrow"],"right_color":"orange","left_color":"lightblue","left_mu":40,"right_mu":20,"left_numbers":[40,37,51,38,50],"right_numbers":[18,17,2,22,9],"points_earned":129,"phase":"task","trial_type":"horizons-task","trial_index":34,"time_elapsed":751180,"internal_node_id":"0.0-30.0","task_version":"0.2"},{"response_times":[623.7650000257418,455.32500004628673,604.8099999898113,690.0899999891408,1554.9400000018068,479.6949999872595,377.07000004593283,573.9450000110082,389.1149999690242,674.5499999960884],"keys_pressed":["leftarrow","rightarrow","rightarrow","rightarrow","leftarrow","leftarrow","leftarrow","rightarrow","leftarrow","leftarrow"],"horizon":10,"forced_choices":["leftarrow","rightarrow","rightarrow","rightarrow"],"right_color":"orange","left_color":"lightblue","left_mu":40,"right_mu":28,"left_numbers":[46,37,35,66,46,20,44,37,35,35],"right_numbers":[27,17,18,24,31,22,23,23,18,29],"points_earned":308,"phase":"task","trial_type":"horizons-task","trial_index":35,"time_elapsed":759110,"internal_node_id":"0.0-31.0","task_version":"0.2"},{"response_times":[577.4150000070222,444.0150000154972,762.9799999995157,570.9900000365451,2253.870000015013],"keys_pressed":["leftarrow","rightarrow","leftarrow","rightarrow","leftarrow"],"horizon":5,"forced_choices":["leftarrow","rightarrow","leftarrow","rightarrow"],"right_color":"lightblue","left_color":"orange","left_mu":60,"right_mu":52,"left_numbers":[62,79,58,57,60],"right_numbers":[54,61,44,58,30],"points_earned":299,"phase":"task","trial_type":"horizons-task","trial_index":36,"time_elapsed":765224,"internal_node_id":"0.0-32.0","task_version":"0.2"},{"response_times":[659.9050000077114,477.27500001201406,675.9199999505654,594.6150000090711,2051.9750000094064,681.8749999511056,750.960000033956,424.07499998807907,367.76500003179535,335.18500003265217],"keys_pressed":["leftarrow","rightarrow","rightarrow","leftarrow","leftarrow","rightarrow","rightarrow","leftarrow","leftarrow","leftarrow"],"horizon":10,"forced_choices":["leftarrow","rightarrow","rightarrow","leftarrow"],"right_color":"orange","left_color":"lightblue","left_mu":40,"right_mu":36,"left_numbers":[49,44,38,44,29,54,47,41,36,32],"right_numbers":[28,30,41,31,49,24,37,33,28,32],"points_earned":363,"phase":"task","trial_type":"horizons-task","trial_index":37,"time_elapsed":773750,"internal_node_id":"0.0-33.0","task_version":"0.2"},{"response_times":[673.3450000174344,437.19999998575076,616.5700000128709,910.9900000039488,2573.3799999579787],"keys_pressed":["rightarrow","leftarrow","leftarrow","leftarrow","leftarrow"],"horizon":5,"forced_choices":["rightarrow","leftarrow","leftarrow","leftarrow"],"right_color":"lightblue","left_color":"orange","left_mu":60,"right_mu":52,"left_numbers":[63,65,51,54,55],"right_numbers":[54,60,50,44,56],"points_earned":279,"phase":"task","trial_type":"horizons-task","trial_index":38,"time_elapsed":780466,"internal_node_id":"0.0-34.0","task_version":"0.2"},{"response_times":[1543.0499999783933,459.0450000250712,495.9099999978207,1106.2599999713711,978.6849999800324,514.6449999883771,567.9900000104681,553.1150000169873,514.580000017304,486.51499999687076],"keys_pressed":["leftarrow","rightarrow","rightarrow","rightarrow","rightarrow","rightarrow","rightarrow","rightarrow","rightarrow","rightarrow"],"horizon":10,"forced_choices":["leftarrow","rightarrow","rightarrow","rightarrow"],"right_color":"orange","left_color":"lightblue","left_mu":40,"right_mu":70,"left_numbers":[45,46,45,38,40,42,35,38,29,32],"right_numbers":[66,72,70,68,78,79,67,70,73,61],"points_earned":683,"phase":"task","trial_type":"horizons-task","trial_index":39,"time_elapsed":789193,"internal_node_id":"0.0-35.0","task_version":"0.2"},{"response_times":[819.565000012517,388.9750000089407,447.56999996025115,575.2300000167452,2876.4050000463612],"keys_pressed":["leftarrow","rightarrow","leftarrow","leftarrow","leftarrow"],"horizon":5,"forced_choices":["leftarrow","rightarrow","leftarrow","leftarrow"],"right_color":"lightblue","left_color":"orange","left_mu":60,"right_mu":72,"left_numbers":[55,67,91,62,58],"right_numbers":[71,64,82,81,71],"points_earned":330,"phase":"task","trial_type":"horizons-task","trial_index":40,"time_elapsed":795807,"internal_node_id":"0.0-36.0","task_version":"0.2"},{"response_times":[869.524999987334,477.2749999538064,506.9849999854341,569.9599999934435,1915.5350000364706,552.9499999829568,570.319999998901,316.7200000025332,287.1199999935925,391.8699999921955],"keys_pressed":["leftarrow","leftarrow","rightarrow","rightarrow","leftarrow","leftarrow","leftarrow","rightarrow","leftarrow","leftarrow"],"horizon":10,"forced_choices":["leftarrow","leftarrow","rightarrow","rightarrow"],"right_color":"orange","left_color":"lightblue","left_mu":60,"right_mu":40,"left_numbers":[58,75,62,57,59,66,64,63,66,61],"right_numbers":[53,39,41,37,36,37,48,37,47,40],"points_earned":564,"phase":"task","trial_type":"horizons-task","trial_index":41,"time_elapsed":803769,"internal_node_id":"0.0-37.0","task_version":"0.2"},{"response_times":[648.7800000468269,337.85000001080334,487.0999999693595,486.2899999716319,6116.794999979902,607.8700000070967,1330.9950000257231,402.0449999952689,574.7549999505281,406.105000001844],"keys_pressed":["rightarrow","leftarrow","leftarrow","leftarrow","leftarrow","leftarrow","rightarrow","leftarrow","leftarrow","leftarrow"],"horizon":10,"forced_choices":["rightarrow","leftarrow","leftarrow","leftarrow"],"right_color":"orange","left_color":"lightblue","left_mu":40,"right_mu":36,"left_numbers":[49,50,24,29,51,23,54,26,32,32],"right_numbers":[37,37,44,33,48,17,42,34,33,29],"points_earned":346,"phase":"task","trial_type":"horizons-task","trial_index":42,"time_elapsed":816675,"internal_node_id":"0.0-38.0","task_version":"0.2"},{"response_times":[834.1849999851547,632.0050000213087,743.2400000398047,675.1200000289828,6271.635000011884,378.1050000106916,409.8249999806285,376.0699999984354,320.8299999823794,459.57999996608123],"keys_pressed":["rightarrow","leftarrow","rightarrow","leftarrow","leftarrow","leftarrow","leftarrow","leftarrow","leftarrow","leftarrow"],"horizon":10,"forced_choices":["rightarrow","leftarrow","rightarrow","leftarrow"],"right_color":"lightblue","left_color":"orange","left_mu":40,"right_mu":44,"left_numbers":[23,58,49,44,42,43,40,29,36,37],"right_numbers":[38,38,52,33,37,32,28,45,50,41],"points_earned":419,"phase":"task","trial_type":"horizons-task","trial_index":43,"time_elapsed":829282,"internal_node_id":"0.0-39.0","task_version":"0.2"},{"response_times":[752.3849999997765,393.7750000040978,615.9150000312366,1055.2800000295974,2045.7750000059605],"keys_pressed":["rightarrow","leftarrow","leftarrow","leftarrow","rightarrow"],"horizon":5,"forced_choices":["rightarrow","leftarrow","leftarrow","leftarrow"],"right_color":"lightblue","left_color":"orange","left_mu":60,"right_mu":80,"left_numbers":[44,63,71,66,64],"right_numbers":[73,80,74,87,80],"points_earned":353,"phase":"task","trial_type":"horizons-task","trial_index":44,"time_elapsed":835651,"internal_node_id":"0.0-40.0","task_version":"0.2"},{"response_times":[780.0399999832734,575.7899999734946,527.9049999662675,480.0099999993108,1800.0199999660254],"keys_pressed":["rightarrow","rightarrow","leftarrow","leftarrow","rightarrow"],"horizon":5,"forced_choices":["rightarrow","rightarrow","leftarrow","leftarrow"],"right_color":"lightblue","left_color":"orange","left_mu":40,"right_mu":48,"left_numbers":[36,37,37,51,28],"right_numbers":[49,49,39,62,70],"points_earned":256,"phase":"task","trial_type":"horizons-task","trial_index":45,"time_elapsed":841320,"internal_node_id":"0.0-41.0","task_version":"0.2"},{"response_times":[817.090000025928,522.960000031162,415.9400000353344,448.9199999952689,2157.6849999837577,516.059999994468,522.1550000132993,494.8300000396557,910.6400000164285,513.3099999511614],"keys_pressed":["leftarrow","rightarrow","leftarrow","rightarrow","rightarrow","rightarrow","rightarrow","rightarrow","rightarrow","rightarrow"],"horizon":10,"forced_choices":["leftarrow","rightarrow","leftarrow","rightarrow"],"right_color":"lightblue","left_color":"orange","left_mu":60,"right_mu":52,"left_numbers":[55,57,55,48,65,62,73,62,57,53],"right_numbers":[34,46,41,62,54,53,51,49,48,60],"points_earned":533,"phase":"task","trial_type":"horizons-task","trial_index":46,"time_elapsed":850146,"internal_node_id":"0.0-42.0","task_version":"0.2"},{"response_times":[895.8149999962188,601.9400000222959,888.9349999953993,637.4749999959022,1931.4000000013039,1010.0500000407919,428.30999998841435,259.39500000094995,575.5299999727868,258.1200000131503],"keys_pressed":["rightarrow","rightarrow","rightarrow","leftarrow","rightarrow","leftarrow","leftarrow","rightarrow","rightarrow","rightarrow"],"horizon":10,"forced_choices":["rightarrow","rightarrow","rightarrow","leftarrow"],"right_color":"lightblue","left_color":"orange","left_mu":40,"right_mu":32,"left_numbers":[37,34,36,31,36,33,42,46,40,46],"right_numbers":[37,34,38,32,31,33,32,44,41,37],"points_earned":368,"phase":"task","trial_type":"horizons-task","trial_index":47,"time_elapsed":859140,"internal_node_id":"0.0-43.0","task_version":"0.2"},{"response_times":[1028.6850000265986,532.0649999775924,508.99000000208616,490.8250000444241,1146.874999976717,498.8299999968149,512.4550000182353,973.6849999753758,652.7899999637157,350.37000000011176],"keys_pressed":["rightarrow","rightarrow","leftarrow","rightarrow","rightarrow","rightarrow","rightarrow","rightarrow","rightarrow","rightarrow"],"horizon":10,"forced_choices":["rightarrow","rightarrow","leftarrow","rightarrow"],"right_color":"orange","left_color":"lightblue","left_mu":60,"right_mu":90,"left_numbers":[72,44,59,57,61,58,64,66,63,55],"right_numbers":[82,86,90,83,100,89,86,89,86,89],"points_earned":849,"phase":"task","trial_type":"horizons-task","trial_index":48,"time_elapsed":867341,"internal_node_id":"0.0-44.0","task_version":"0.2"},{"response_times":[795.0750000309199,466.2450000178069,668.6200000112876,452.1050000330433,1494.9200000264682],"keys_pressed":["rightarrow","rightarrow","leftarrow","leftarrow","leftarrow"],"horizon":5,"forced_choices":["rightarrow","rightarrow","leftarrow","leftarrow"],"right_color":"orange","left_color":"lightblue","left_mu":60,"right_mu":30,"left_numbers":[45,71,71,52,40],"right_numbers":[27,32,38,34,14],"points_earned":222,"phase":"task","trial_type":"horizons-task","trial_index":49,"time_elapsed":872723,"internal_node_id":"0.0-45.0","task_version":"0.2"},{"response_times":[740.7599999569356,719.2750000394881,426.8150000134483,501.8850000342354,1955.9250000165775],"keys_pressed":["rightarrow","rightarrow","leftarrow","rightarrow","rightarrow"],"horizon":5,"forced_choices":["rightarrow","rightarrow","leftarrow","rightarrow"],"right_color":"lightblue","left_color":"orange","left_mu":40,"right_mu":60,"left_numbers":[54,34,49,56,54],"right_numbers":[58,72,52,49,49],"points_earned":277,"phase":"task","trial_type":"horizons-task","trial_index":50,"time_elapsed":878573,"internal_node_id":"0.0-46.0","task_version":"0.2"},{"view_history":"[{\"page_index\":0,\"viewing_time\":4050.730000017211},{\"page_index\":1,\"viewing_time\":2585.2949999971315}]","rt":6636.355000024196,"trial_type":"instructions","trial_index":51,"time_elapsed":885211,"internal_node_id":"0.0-47.0","task_version":"0.2"},{"response_times":[1171.8549999641255,1301.8600000068545,457.0899999816902,503.8300000014715,2091.0750000039116,686.0949999536388,777.7699999860488,576.900000043679,491.88499996671453,432.06500000087544],"keys_pressed":["rightarrow","rightarrow","leftarrow","rightarrow","rightarrow","rightarrow","leftarrow","leftarrow","leftarrow","leftarrow"],"horizon":10,"forced_choices":["rightarrow","rightarrow","leftarrow","rightarrow"],"right_color":"lightblue","left_color":"orange","left_mu":40,"right_mu":44,"left_numbers":[50,41,42,39,47,46,40,51,45,29],"right_numbers":[34,51,48,43,43,24,39,51,42,60],"points_earned":402,"phase":"task","trial_type":"horizons-task","trial_index":52,"time_elapsed":895211,"internal_node_id":"0.0-48.0","task_version":"0.2"},{"response_times":[1352.5249999947846,636.1000000033528,715.2850000420585,432.78500001179054,659.7099999780767,419.33000000426546,380.70500001776963,376.5650000423193,358.3000000216998,330.0900000031106],"keys_pressed":["rightarrow","rightarrow","rightarrow","leftarrow","leftarrow","leftarrow","leftarrow","leftarrow","leftarrow","leftarrow"],"horizon":10,"forced_choices":["rightarrow","rightarrow","rightarrow","leftarrow"],"right_color":"orange","left_color":"lightblue","left_mu":60,"right_mu":40,"left_numbers":[53,60,67,50,60,48,55,40,58,74],"right_numbers":[51,49,22,52,35,31,47,38,43,36],"points_earned":507,"phase":"task","trial_type":"horizons-task","trial_index":53,"time_elapsed":902375,"internal_node_id":"0.0-49.0","task_version":"0.2"},{"response_times":[578.0099999974482,561.1349999671802,492.79999994905666,479.20999996131286,799.6150000253692],"keys_pressed":["rightarrow","rightarrow","leftarrow","rightarrow","rightarrow"],"horizon":5,"forced_choices":["rightarrow","rightarrow","leftarrow","rightarrow"],"right_color":"orange","left_color":"lightblue","left_mu":60,"right_mu":90,"left_numbers":[51,81,64,61,55],"right_numbers":[85,88,85,100,90],"points_earned":427,"phase":"task","trial_type":"horizons-task","trial_index":54,"time_elapsed":906792,"internal_node_id":"0.0-50.0","task_version":"0.2"},{"response_times":[823.3499999623746,468.8099999912083,470.8049999899231,522.0249999547377,2332.959999970626,441.0500000230968,902.8450000332668,484.9600000306964,483.8400000007823,399.01500003179535],"keys_pressed":["rightarrow","rightarrow","leftarrow","leftarrow","leftarrow","leftarrow","leftarrow","leftarrow","leftarrow","leftarrow"],"horizon":10,"forced_choices":["rightarrow","rightarrow","leftarrow","leftarrow"],"right_color":"orange","left_color":"lightblue","left_mu":40,"right_mu":20,"left_numbers":[35,37,40,52,43,30,50,32,34,50],"right_numbers":[31,27,25,25,15,6,18,10,12,25],"points_earned":389,"phase":"task","trial_type":"horizons-task","trial_index":55,"time_elapsed":915637,"internal_node_id":"0.0-51.0","task_version":"0.2"},{"response_times":[972.7449999772944,356.0949999955483,632.7049999963492,711.9799999636598,1256.0199999716133],"keys_pressed":["leftarrow","rightarrow","rightarrow","rightarrow","leftarrow"],"horizon":5,"forced_choices":["leftarrow","rightarrow","rightarrow","rightarrow"],"right_color":"orange","left_color":"lightblue","left_mu":40,"right_mu":28,"left_numbers":[41,38,35,39,40],"right_numbers":[26,26,10,31,37],"points_earned":148,"phase":"task","trial_type":"horizons-task","trial_index":56,"time_elapsed":921071,"internal_node_id":"0.0-52.0","task_version":"0.2"},{"response_times":[823.4649999649264,472.7849999908358,517.61500001885,511.50000002235174,1765.8799999626353],"keys_pressed":["rightarrow","leftarrow","leftarrow","rightarrow","leftarrow"],"horizon":5,"forced_choices":["rightarrow","leftarrow","leftarrow","rightarrow"],"right_color":"orange","left_color":"lightblue","left_mu":60,"right_mu":56,"left_numbers":[62,76,51,71,63],"right_numbers":[63,50,57,52,59],"points_earned":305,"phase":"task","trial_type":"horizons-task","trial_index":57,"time_elapsed":926668,"internal_node_id":"0.0-53.0","task_version":"0.2"},{"response_times":[693.3199999621138,371.67500000214204,356.195000000298,800.069999997504,2130.6149999727495,625.1199999824166,380.7200000155717,417.15500003192574,380.04999997792765,369.89999999059364],"keys_pressed":["leftarrow","rightarrow","leftarrow","leftarrow","rightarrow","rightarrow","rightarrow","rightarrow","rightarrow","rightarrow"],"horizon":10,"forced_choices":["leftarrow","rightarrow","leftarrow","leftarrow"],"right_color":"lightblue","left_color":"orange","left_mu":60,"right_mu":72,"left_numbers":[45,64,58,70,60,54,48,44,62,62],"right_numbers":[78,74,76,59,61,76,64,64,71,69],"points_earned":652,"phase":"task","trial_type":"horizons-task","trial_index":58,"time_elapsed":934699,"internal_node_id":"0.0-54.0","task_version":"0.2"},{"response_times":[1424.6600000187755,432.7099999645725,386.09000004362315,458.8799999910407,1505.9950000140816,531.0000000172295,480.71999999228865,399.2649999563582,326.98499999241903,361.6250000195578],"keys_pressed":["rightarrow","leftarrow","rightarrow","rightarrow","rightarrow","rightarrow","rightarrow","rightarrow","rightarrow","rightarrow"],"horizon":10,"forced_choices":["rightarrow","leftarrow","rightarrow","rightarrow"],"right_color":"lightblue","left_color":"orange","left_mu":60,"right_mu":64,"left_numbers":[66,62,52,55,51,67,60,52,54,51],"right_numbers":[73,58,69,50,69,64,67,67,63,56],"points_earned":640,"phase":"task","trial_type":"horizons-task","trial_index":59,"time_elapsed":942514,"internal_node_id":"0.0-55.0","task_version":"0.2"},{"response_times":[643.3449999894947,510.9950000187382,467.1049999888055,452.35500001581386,1225.1950000063516,430.21500000031665,453.87000002665445,335.8800000278279,350.95500003080815,308.69000003440306],"keys_pressed":["leftarrow","leftarrow","leftarrow","rightarrow","leftarrow","leftarrow","leftarrow","leftarrow","leftarrow","leftarrow"],"horizon":10,"forced_choices":["leftarrow","leftarrow","leftarrow","rightarrow"],"right_color":"orange","left_color":"lightblue","left_mu":60,"right_mu":56,"left_numbers":[50,52,76,69,47,57,65,52,57,66],"right_numbers":[41,61,65,53,77,48,58,63,54,45],"points_earned":575,"phase":"task","trial_type":"horizons-task","trial_index":60,"time_elapsed":949199,"internal_node_id":"0.0-56.0","task_version":"0.2"},{"response_times":[657.6300000306219,316.7099999845959,341.9649999705143,352.965000027325,2080.855000007432],"keys_pressed":["leftarrow","rightarrow","leftarrow","rightarrow","rightarrow"],"horizon":5,"forced_choices":["leftarrow","rightarrow","leftarrow","rightarrow"],"right_color":"lightblue","left_color":"orange","left_mu":60,"right_mu":80,"left_numbers":[71,41,67,58,57],"right_numbers":[76,89,83,79,87],"points_earned":393,"phase":"task","trial_type":"horizons-task","trial_index":61,"time_elapsed":954455,"internal_node_id":"0.0-57.0","task_version":"0.2"},{"response_times":[568.9899999997579,321.76500000059605,522.9399999952875,501.48999999510124,2611.6799999726936],"keys_pressed":["leftarrow","rightarrow","rightarrow","leftarrow","leftarrow"],"horizon":5,"forced_choices":["leftarrow","rightarrow","rightarrow","leftarrow"],"right_color":"lightblue","left_color":"orange","left_mu":60,"right_mu":64,"left_numbers":[52,59,46,62,60],"right_numbers":[64,54,72,77,62],"points_earned":300,"phase":"task","trial_type":"horizons-task","trial_index":62,"time_elapsed":960500,"internal_node_id":"0.0-58.0","task_version":"0.2"},{"response_times":[537.1050000539981,368.0049999966286,415.83000001264736,1068.1500000064261,1759.6100000082515],"keys_pressed":["leftarrow","rightarrow","rightarrow","rightarrow","rightarrow"],"horizon":5,"forced_choices":["leftarrow","rightarrow","rightarrow","rightarrow"],"right_color":"lightblue","left_color":"orange","left_mu":60,"right_mu":68,"left_numbers":[51,55,63,57,67],"right_numbers":[71,64,57,70,68],"points_earned":310,"phase":"task","trial_type":"horizons-task","trial_index":63,"time_elapsed":966154,"internal_node_id":"0.0-59.0","task_version":"0.2"},{"response_times":[679.2800000403076,297.25499998312443,479.3049999861978,834.3950000125915,1471.9150000019],"keys_pressed":["rightarrow","leftarrow","leftarrow","leftarrow","leftarrow"],"horizon":5,"forced_choices":["rightarrow","leftarrow","leftarrow","leftarrow"],"right_color":"orange","left_color":"lightblue","left_mu":40,"right_mu":36,"left_numbers":[39,46,37,51,39],"right_numbers":[43,30,37,44,46],"points_earned":216,"phase":"task","trial_type":"horizons-task","trial_index":64,"time_elapsed":971423,"internal_node_id":"0.0-60.0","task_version":"0.2"},{"response_times":[644.8749999981374,544.1749999881722,451.78499998291954,503.12000000849366,3213.560000003781,475.55500001180917,593.5100000351667,512.1250000083819,447.7199999964796,316.8650000006892],"keys_pressed":["leftarrow","leftarrow","rightarrow","rightarrow","leftarrow","leftarrow","leftarrow","leftarrow","leftarrow","leftarrow"],"horizon":10,"forced_choices":["leftarrow","leftarrow","rightarrow","rightarrow"],"right_color":"lightblue","left_color":"orange","left_mu":40,"right_mu":32,"left_numbers":[37,38,33,34,39,44,45,42,44,35],"right_numbers":[32,14,33,19,38,30,45,37,37,33],"points_earned":376,"phase":"task","trial_type":"horizons-task","trial_index":65,"time_elapsed":980629,"internal_node_id":"0.0-61.0","task_version":"0.2"},{"response_times":[797.3950000014156,682.7600000542589,430.9249999932945,1082.1449999930337,823.0299999704584,398.7150000175461,394.7899999911897,411.3350000116043,436.4800000330433,376.95499998517334],"keys_pressed":["rightarrow","rightarrow","leftarrow","leftarrow","leftarrow","leftarrow","leftarrow","leftarrow","leftarrow","leftarrow"],"horizon":10,"forced_choices":["rightarrow","rightarrow","leftarrow","leftarrow"],"right_color":"orange","left_color":"lightblue","left_mu":60,"right_mu":30,"left_numbers":[70,42,68,58,65,54,67,66,54,64],"right_numbers":[29,35,19,29,25,37,18,12,17,27],"points_earned":560,"phase":"task","trial_type":"horizons-task","trial_index":66,"time_elapsed":987968,"internal_node_id":"0.0-62.0","task_version":"0.2"},{"response_times":[762.3500000336207,424.09999994561076,523.8300000200979,426.7450000043027,1989.1749999951571],"keys_pressed":["leftarrow","leftarrow","rightarrow","leftarrow","rightarrow"],"horizon":5,"forced_choices":["leftarrow","leftarrow","rightarrow","leftarrow"],"right_color":"orange","left_color":"lightblue","left_mu":40,"right_mu":52,"left_numbers":[42,40,38,35,34],"right_numbers":[61,56,54,39,61],"points_earned":232,"phase":"task","trial_type":"horizons-task","trial_index":67,"time_elapsed":993600,"internal_node_id":"0.0-63.0","task_version":"0.2"},{"response_times":[528.1499999691732,469.92499998304993,496.1699999985285,539.8799999966286,940.1949999737553],"keys_pressed":["leftarrow","rightarrow","rightarrow","rightarrow","rightarrow"],"horizon":5,"forced_choices":["leftarrow","rightarrow","rightarrow","rightarrow"],"right_color":"orange","left_color":"lightblue","left_mu":40,"right_mu":70,"left_numbers":[40,44,54,38,27],"right_numbers":[70,54,71,70,69],"points_earned":304,"phase":"task","trial_type":"horizons-task","trial_index":68,"time_elapsed":998080,"internal_node_id":"0.0-64.0","task_version":"0.2"},{"response_times":[630.4349999991246,467.9599999799393,424.88499998580664,472.890000033658,1070.9299999871291,308.37500002235174,379.65499999700114,318.0100000463426,351.95999999996275,4238.450000004377],"keys_pressed":["leftarrow","leftarrow","rightarrow","rightarrow","leftarrow","leftarrow","leftarrow","leftarrow","leftarrow","leftarrow"],"horizon":10,"forced_choices":["leftarrow","leftarrow","rightarrow","rightarrow"],"right_color":"orange","left_color":"lightblue","left_mu":60,"right_mu":48,"left_numbers":[67,74,60,65,42,54,64,55,61,49],"right_numbers":[32,35,55,51,56,48,43,48,58,50],"points_earned":572,"phase":"task","trial_type":"horizons-task","trial_index":69,"time_elapsed":1008250,"internal_node_id":"0.0-65.0","task_version":"0.2"},{"response_times":[718.0600000428967,555.7450000196695,452.0849999971688,589.9949999875389,2869.8800000129268,743.9149999991059,467.7149999770336,711.6650000098161,508.73499998124316,462.6249999855645],"keys_pressed":["rightarrow","leftarrow","leftarrow","leftarrow","leftarrow","leftarrow","rightarrow","rightarrow","rightarrow","rightarrow"],"horizon":10,"forced_choices":["rightarrow","leftarrow","leftarrow","leftarrow"],"right_color":"lightblue","left_color":"orange","left_mu":60,"right_mu":80,"left_numbers":[59,61,55,66,56,55,59,51,53,54],"right_numbers":[63,72,87,70,73,76,97,78,80,79],"points_earned":690,"phase":"task","trial_type":"horizons-task","trial_index":70,"time_elapsed":1017838,"internal_node_id":"0.0-66.0","task_version":"0.2"},{"response_times":[801.2299999827519,487.16499999864027,481.9499999866821,501.8900000141002,1300.7050000014715],"keys_pressed":["leftarrow","leftarrow","rightarrow","leftarrow","rightarrow"],"horizon":5,"forced_choices":["leftarrow","leftarrow","rightarrow","leftarrow"],"right_color":"lightblue","left_color":"orange","left_mu":40,"right_mu":48,"left_numbers":[43,42,36,45,41],"right_numbers":[41,52,54,51,42],"points_earned":226,"phase":"task","trial_type":"horizons-task","trial_index":71,"time_elapsed":1022915,"internal_node_id":"0.0-67.0","task_version":"0.2"},{"response_times":[1643.804999999702,598.0650000274181,486.7499999818392,571.6149999643676,773.079999955371,482.2149999672547,402.6399999856949,405.22499999497086,414.4749999977648,377.44000001112],"keys_pressed":["rightarrow","leftarrow","leftarrow","rightarrow","rightarrow","rightarrow","rightarrow","rightarrow","rightarrow","rightarrow"],"horizon":10,"forced_choices":["rightarrow","leftarrow","leftarrow","rightarrow"],"right_color":"lightblue","left_color":"orange","left_mu":60,"right_mu":68,"left_numbers":[58,58,60,54,66,70,57,58,57,60],"right_numbers":[51,54,80,81,68,64,79,66,76,76],"points_earned":679,"phase":"task","trial_type":"horizons-task","trial_index":72,"time_elapsed":1030576,"internal_node_id":"0.0-68.0","task_version":"0.2"},{"response_times":[486.9499999913387,457.9200000152923,404.57499999320135,485.07499997504056,1001.0950000141747],"keys_pressed":["leftarrow","leftarrow","rightarrow","rightarrow","leftarrow"],"horizon":5,"forced_choices":["leftarrow","leftarrow","rightarrow","rightarrow"],"right_color":"orange","left_color":"lightblue","left_mu":60,"right_mu":40,"left_numbers":[62,62,51,62,60],"right_numbers":[46,34,32,44,47],"points_earned":260,"phase":"task","trial_type":"horizons-task","trial_index":73,"time_elapsed":1034929,"internal_node_id":"0.0-69.0","task_version":"0.2"},{"response_times":[467.73499995470047,423.36000001523644,450.85500000277534,471.16999997524545,821.5649999910966,340.2600000263192,232.71500004921108,174.01000001700595,188.99499997496605,193.1050000130199],"keys_pressed":["leftarrow","leftarrow","rightarrow","leftarrow","leftarrow","leftarrow","leftarrow","leftarrow","leftarrow","leftarrow"],"horizon":10,"forced_choices":["leftarrow","leftarrow","rightarrow","leftarrow"],"right_color":"orange","left_color":"lightblue","left_mu":60,"right_mu":30,"left_numbers":[79,57,56,70,58,59,76,64,58,58],"right_numbers":[35,17,30,32,23,23,38,40,53,29],"points_earned":609,"phase":"task","trial_type":"horizons-task","trial_index":74,"time_elapsed":1040197,"internal_node_id":"0.0-70.0","task_version":"0.2"},{"response_times":[616.1549999960698,423.9999999990687,422.2000000299886,451.8500000122003,971.9599999953061],"keys_pressed":["leftarrow","rightarrow","rightarrow","leftarrow","leftarrow"],"horizon":5,"forced_choices":["leftarrow","rightarrow","rightarrow","leftarrow"],"right_color":"orange","left_color":"lightblue","left_mu":40,"right_mu":36,"left_numbers":[50,28,30,41,37],"right_numbers":[35,38,30,43,31],"points_earned":196,"phase":"task","trial_type":"horizons-task","trial_index":75,"time_elapsed":1044589,"internal_node_id":"0.0-71.0","task_version":"0.2"},{"response_times":[910.669999953825,392.19499996397644,480.939999979455,518.7300000106916,1496.1250000051223],"keys_pressed":["rightarrow","leftarrow","rightarrow","rightarrow","rightarrow"],"horizon":5,"forced_choices":["rightarrow","leftarrow","rightarrow","rightarrow"],"right_color":"lightblue","left_color":"orange","left_mu":60,"right_mu":64,"left_numbers":[52,54,63,72,73],"right_numbers":[57,68,54,64,65],"points_earned":294,"phase":"task","trial_type":"horizons-task","trial_index":76,"time_elapsed":1049894,"internal_node_id":"0.0-72.0","task_version":"0.2"},{"response_times":[354.53999997116625,357.0550000295043,415.03500001272187,437.7099999692291,815.2049999916926],"keys_pressed":["leftarrow","rightarrow","leftarrow","leftarrow","leftarrow"],"horizon":5,"forced_choices":["leftarrow","rightarrow","leftarrow","leftarrow"],"right_color":"orange","left_color":"lightblue","left_mu":60,"right_mu":48,"left_numbers":[64,54,72,65,58],"right_numbers":[45,46,41,46,51],"points_earned":305,"phase":"task","trial_type":"horizons-task","trial_index":77,"time_elapsed":1053778,"internal_node_id":"0.0-73.0","task_version":"0.2"},{"response_times":[492.91999998968095,411.82500001741573,459.134999953676,312.12499999674037,2699.620000028517,511.1499999766238,473.01999997580424,447.5000000093132,460.12500004144385,409.9949999945238],"keys_pressed":["leftarrow","rightarrow","rightarrow","leftarrow","rightarrow","rightarrow","rightarrow","rightarrow","rightarrow","rightarrow"],"horizon":10,"forced_choices":["leftarrow","rightarrow","rightarrow","leftarrow"],"right_color":"orange","left_color":"lightblue","left_mu":40,"right_mu":70,"left_numbers":[35,26,32,31,54,38,39,33,39,35],"right_numbers":[74,77,39,68,73,59,65,67,73,78],"points_earned":597,"phase":"task","trial_type":"horizons-task","trial_index":78,"time_elapsed":1061959,"internal_node_id":"0.0-74.0","task_version":"0.2"},{"response_times":[497.6949999690987,350.5449999938719,479.1949999635108,440.03499997779727,728.1550000188872],"keys_pressed":["leftarrow","rightarrow","rightarrow","leftarrow","rightarrow"],"horizon":5,"forced_choices":["leftarrow","rightarrow","rightarrow","leftarrow"],"right_color":"orange","left_color":"lightblue","left_mu":40,"right_mu":70,"left_numbers":[37,32,35,47,32],"right_numbers":[73,83,62,66,77],"points_earned":306,"phase":"task","trial_type":"horizons-task","trial_index":79,"time_elapsed":1065960,"internal_node_id":"0.0-75.0","task_version":"0.2"},{"response_times":[581.3499999931082,518.9699999755248,445.05499996012077,436.1700000008568,1257.5400000205263],"keys_pressed":["rightarrow","leftarrow","leftarrow","rightarrow","rightarrow"],"horizon":5,"forced_choices":["rightarrow","leftarrow","leftarrow","rightarrow"],"right_color":"lightblue","left_color":"orange","left_mu":60,"right_mu":72,"left_numbers":[67,66,69,61,64],"right_numbers":[78,65,80,68,73],"points_earned":354,"phase":"task","trial_type":"horizons-task","trial_index":80,"time_elapsed":1070704,"internal_node_id":"0.0-76.0","task_version":"0.2"},{"response_times":[724.8999999719672,912.8500000224449,578.269999998156,604.8249999876134,8098.08000002522],"keys_pressed":["rightarrow","rightarrow","leftarrow","rightarrow","leftarrow"],"horizon":5,"forced_choices":["rightarrow","rightarrow","leftarrow","rightarrow"],"right_color":"lightblue","left_color":"orange","left_mu":40,"right_mu":44,"left_numbers":[41,32,49,37,44],"right_numbers":[21,44,46,48,32],"points_earned":206,"phase":"task","trial_type":"horizons-task","trial_index":81,"time_elapsed":1083130,"internal_node_id":"0.0-77.0","task_version":"0.2"},{"response_times":[908.7099999887869,513.9349999953993,502.9649999924004,500.110000022687,1040.610000025481],"keys_pressed":["rightarrow","leftarrow","rightarrow","leftarrow","rightarrow"],"horizon":5,"forced_choices":["rightarrow","leftarrow","rightarrow","leftarrow"],"right_color":"orange","left_color":"lightblue","left_mu":40,"right_mu":28,"left_numbers":[28,36,53,27,46],"right_numbers":[42,44,38,16,18],"points_earned":161,"phase":"task","trial_type":"horizons-task","trial_index":82,"time_elapsed":1088102,"internal_node_id":"0.0-78.0","task_version":"0.2"},{"response_times":[892.4849999602884,614.7150000324473,473.9500000141561,454.1149999713525,481.93499998888],"keys_pressed":["leftarrow","leftarrow","rightarrow","leftarrow","leftarrow"],"horizon":5,"forced_choices":["leftarrow","leftarrow","rightarrow","leftarrow"],"right_color":"orange","left_color":"lightblue","left_mu":60,"right_mu":30,"left_numbers":[57,52,72,71,58],"right_numbers":[36,34,33,38,27],"points_earned":271,"phase":"task","trial_type":"horizons-task","trial_index":83,"time_elapsed":1092523,"internal_node_id":"0.0-79.0","task_version":"0.2"},{"response_times":[589.4450000487268,447.03999999910593,410.840000025928,540.1500000152737,3805.8599999640137],"keys_pressed":["rightarrow","leftarrow","rightarrow","leftarrow","leftarrow"],"horizon":5,"forced_choices":["rightarrow","leftarrow","rightarrow","leftarrow"],"right_color":"lightblue","left_color":"orange","left_mu":40,"right_mu":44,"left_numbers":[36,48,26,49,36],"right_numbers":[53,35,39,45,44],"points_earned":225,"phase":"task","trial_type":"horizons-task","trial_index":84,"time_elapsed":1099823,"internal_node_id":"0.0-80.0","task_version":"0.2"},{"response_times":[645.0349999940954,390.92999999411404,429.81000000145286,476.665000023786,1384.139999980107,306.2250000075437,507.9000000259839,367.65999998897314,357.0699999690987,273.0899999733083],"keys_pressed":["leftarrow","leftarrow","rightarrow","leftarrow","rightarrow","rightarrow","rightarrow","rightarrow","rightarrow","rightarrow"],"horizon":10,"forced_choices":["leftarrow","leftarrow","rightarrow","leftarrow"],"right_color":"orange","left_color":"lightblue","left_mu":40,"right_mu":52,"left_numbers":[42,45,43,44,42,36,50,40,29,52],"right_numbers":[63,49,61,51,47,54,70,56,46,56],"points_earned":521,"phase":"task","trial_type":"horizons-task","trial_index":85,"time_elapsed":1106480,"internal_node_id":"0.0-81.0","task_version":"0.2"},{"response_times":[691.9749999651685,391.8800000101328,401.9550000084564,376.9800000009127,2897.0100000151433],"keys_pressed":["rightarrow","leftarrow","rightarrow","leftarrow","leftarrow"],"horizon":5,"forced_choices":["rightarrow","leftarrow","rightarrow","leftarrow"],"right_color":"lightblue","left_color":"orange","left_mu":40,"right_mu":10,"left_numbers":[35,41,46,33,34],"right_numbers":[22,7,0,22,10],"points_earned":130,"phase":"task","trial_type":"horizons-task","trial_index":86,"time_elapsed":1112744,"internal_node_id":"0.0-82.0","task_version":"0.2"},{"response_times":[993.784999998752,496.42499996116385,486.18000000715256,603.7350000115111,1731.7649999749847],"keys_pressed":["rightarrow","rightarrow","rightarrow","leftarrow","leftarrow"],"horizon":5,"forced_choices":["rightarrow","rightarrow","rightarrow","leftarrow"],"right_color":"lightblue","left_color":"orange","left_mu":40,"right_mu":32,"left_numbers":[36,56,31,47,45],"right_numbers":[36,26,28,31,23],"points_earned":182,"phase":"task","trial_type":"horizons-task","trial_index":87,"time_elapsed":1118561,"internal_node_id":"0.0-83.0","task_version":"0.2"},{"response_times":[1029.5199999818578,546.1299999733455,460.35000000847504,610.1349999662489,3579.8150000046007,500.2049999893643,330.07999998517334,272.13499997742474,240.98500004038215,290.75500002363697],"keys_pressed":["leftarrow","leftarrow","rightarrow","leftarrow","rightarrow","rightarrow","rightarrow","rightarrow","rightarrow","rightarrow"],"horizon":10,"forced_choices":["leftarrow","leftarrow","rightarrow","leftarrow"],"right_color":"lightblue","left_color":"orange","left_mu":40,"right_mu":48,"left_numbers":[27,19,32,44,42,50,36,50,30,41],"right_numbers":[33,38,48,63,41,51,48,46,42,38],"points_earned":404,"phase":"task","trial_type":"horizons-task","trial_index":88,"time_elapsed":1127926,"internal_node_id":"0.0-84.0","task_version":"0.2"},{"response_times":[788.2099999696948,364.7800000035204,518.0699999909848,385.889999975916,3529.6349999844097],"keys_pressed":["rightarrow","leftarrow","leftarrow","rightarrow","rightarrow"],"horizon":5,"forced_choices":["rightarrow","leftarrow","leftarrow","rightarrow"],"right_color":"lightblue","left_color":"orange","left_mu":60,"right_mu":68,"left_numbers":[59,46,58,74,57],"right_numbers":[74,64,59,64,71],"points_earned":313,"phase":"task","trial_type":"horizons-task","trial_index":89,"time_elapsed":1135018,"internal_node_id":"0.0-85.0","task_version":"0.2"},{"response_times":[666.205000015907,273.7850000266917,399.9750000075437,298.30999998375773,1394.4250000058673,277.4300000164658,190.62500004656613,158.86500000488013,162.20000002067536,142.809999990277],"keys_pressed":["rightarrow","leftarrow","leftarrow","rightarrow","leftarrow","leftarrow","leftarrow","leftarrow","leftarrow","leftarrow"],"horizon":10,"forced_choices":["rightarrow","leftarrow","leftarrow","rightarrow"],"right_color":"orange","left_color":"lightblue","left_mu":60,"right_mu":56,"left_numbers":[70,62,55,63,67,60,38,62,60,58],"right_numbers":[67,63,56,41,60,47,40,50,50,61],"points_earned":570,"phase":"task","trial_type":"horizons-task","trial_index":90,"time_elapsed":1140489,"internal_node_id":"0.0-86.0","task_version":"0.2"},{"response_times":[603.4099999815226,298.86000003898516,712.5149999628775,339.28000001469627,1809.8400000017136,555.9650000068359,349.9350000056438,278.9850000408478,268.3100000140257,287.7650000154972],"keys_pressed":["rightarrow","leftarrow","leftarrow","rightarrow","rightarrow","rightarrow","rightarrow","rightarrow","rightarrow","rightarrow"],"horizon":10,"forced_choices":["rightarrow","leftarrow","leftarrow","rightarrow"],"right_color":"orange","left_color":"lightblue","left_mu":60,"right_mu":90,"left_numbers":[49,54,66,55,46,65,49,62,62,61],"right_numbers":[86,87,82,86,100,108,93,87,85,91],"points_earned":856,"phase":"task","trial_type":"horizons-task","trial_index":91,"time_elapsed":1147498,"internal_node_id":"0.0-87.0","task_version":"0.2"},{"rt":35383.53500002995,"responses":{"age":"18","gender-categorical":"Female","gender-free-response":"","ethnicity":"Hispanic or Latino","race":["White"],"language":"No","fluency":"Very well"},"survey":"demographics","trial_type":"survey-demo","trial_index":92,"time_elapsed":1182890,"internal_node_id":"0.0-88.0","task_version":"0.2"},{"rt":42757.309999957215,"responses":{"difficulty":"3","fun":"2","clarity":"2","strategy":"i just picked the machines that had the bigger numbers all the way through","feedback":""},"survey":"debrief","trial_type":"survey-debrief","trial_index":93,"time_elapsed":1225654,"internal_node_id":"0.0-89.0","task_version":"0.2","interactions":"[]"}]