[{"view_history":"[{\"page_index\":0,\"viewing_time\":2486.834999988787}]","rt":2487.2700000414625,"trial_type":"instructions","trial_index":0,"time_elapsed":2505,"internal_node_id":"0.0-0.0","task_version":"0.2"},{"item_order":[7,3,4,12,13,11,9,16,2,14,10,0,15,8,6,1,5],"responses":{"Q08":"3","Q04":"2","Q05":"4","Q13":"4","Q14":"2","Q12":"3","Q10":"4","Q17":"0","Q03":"4","Q15":"2","Q11":"3","Q01":"4","Q16":"4","Q09":"3","Q07":"2","Q02":"0","Q06":"4"},"radio_events":[5892.119999974966,9036.67000005953,13243.544999975711,15886.08500000555,21556.28500005696,26239.950000075623,30014.320000074804,32033.935000072233,33660.64999997616,36636.75499998499,41051.860000006855,42888.62500002142,46875.60500006657,48501.76500005182,51817.159999976866,55657.560000079684,58765.60500008054,61650.83499997854,64423.92500001006],"key_events":[],"mouse_events":[0.5100000416859984,5892.119999974966,9036.67000005953,13243.544999975711,14751.960000023246,15886.08500000555,21556.28500005696,26239.950000075623,30014.320000074804,32033.935000072233,33660.64999997616,36636.75499998499,41051.860000006855,42888.62500002142,46875.60500006657,48501.76500005182,51817.159999976866,55657.560000079684,58765.60500008054,61650.83499997854,64423.92500001006,65540.81999999471],"rt":65543.51500002667,"survey":"pswq","trial_type":"survey-template","trial_index":1,"time_elapsed":68055,"internal_node_id":"0.0-1.0","task_version":"0.2"},{"item_order":[14,15,2,9,8,6,5,13,11,4,10,0,7,3,12,1],"responses":{"Q15":"3","Q16":"5","Q03":"5","Q10":"3","Q09":"3","Q07":"5","Q06":"4","Q14":"0","Q12":"5","Q05":"2","Q11":"2","Q01":"3","Q08":"3","Q04":"3","Q13":"5","Q02":"1"},"radio_events":[8406.979999970645,13883.519999915734,18975.954999914393,27262.899999972433,34390.73499990627,38134.22499992885,43367.2249999363,60487.729999935254,68339.7999999579,73887.29999994393,80633.6949999677,84888.47999996506,87636.49499998428,92802.13999992702,97251.08499999624,101390.75999998022],"key_events":[],"mouse_events":[8406.979999970645,13883.519999915734,17941.344999941066,18975.954999914393,27262.899999972433,34390.73499990627,38134.22499992885,43367.2249999363,60487.729999935254,68339.7999999579,73887.29999994393,78442.16499989852,80633.6949999677,84888.47999996506,87636.49499998428,91775.39500000421,92802.13999992702,97251.08499999624,101390.75999998022,102992.85999999847],"rt":102995.46999996528,"survey":"nfc","trial_type":"survey-template","trial_index":2,"time_elapsed":171062,"internal_node_id":"0.0-2.0","task_version":"0.2"},{"item_order":[4,1,9,11,10,3,2,0,6,12,7,5,8],"responses":{"Q05":"2","Q02":"2","Q10":"2","Q12":"1","Q11":"2","Q04":"2","Q03":"1","Q01":"2","Q07":"1","Q13":"4","Q08":"2","Q06":"0","Q09":"0"},"radio_events":[15154.929999960586,22233.19000005722,24957.75499998126,33871.91500002518,37215.07000003476,39623.56500001624,44597.09000005387,49992.09499999415,63304.36499998905,66546.6449999949,73317.69000005443,87238.3700000355,91775.9200000437,93313.61499999184],"key_events":[],"mouse_events":[15154.929999960586,20562.050000065938,22233.19000005722,24957.75499998126,33871.91500002518,37215.07000003476,39623.56500001624,44597.09000005387,49992.09499999415,60706.33000007365,63304.36499998905,66546.6449999949,73317.69000005443,87238.3700000355,91775.9200000437,93313.61499999184,94463.34500005469],"rt":94465.32000007574,"survey":"ius12","trial_type":"survey-template","trial_index":3,"time_elapsed":265538,"internal_node_id":"0.0-3.0","task_version":"0.2"},{"view_history":"[{\"page_index\":0,\"viewing_time\":3160.6250000186265},{\"page_index\":1,\"viewing_time\":4520.14500007499},{\"page_index\":2,\"viewing_time\":6587.635000003502},{\"page_index\":3,\"viewing_time\":15907.884999993257},{\"page_index\":4,\"viewing_time\":5892.409999971278},{\"page_index\":5,\"viewing_time\":2978.3149999566376},{\"page_index\":6,\"viewing_time\":6717.930000042543},{\"page_index\":7,\"viewing_time\":7426.804999937303},{\"page_index\":8,\"viewing_time\":7002.25500005763},{\"page_index\":9,\"viewing_time\":5398.429999942891}]","rt":65593.10500009451,"trial_type":"instructions","trial_index":4,"time_elapsed":331137,"internal_node_id":"0.0-4.0-0.0","task_version":"0.2"},{"response_times":[1226.6949999611825,513.1050000200048,799.8099999967963,889.0100000426173,2582.979999948293],"keys_pressed":["rightarrow","leftarrow","rightarrow","rightarrow","leftarrow"],"horizon":5,"forced_choices":["rightarrow","leftarrow","rightarrow","rightarrow"],"right_color":"lightblue","left_color":"orange","left_mu":40,"right_mu":20,"left_numbers":[45,42,35,43,42],"right_numbers":[25,41,19,18,23],"points_earned":146,"phase":"practice","trial_type":"horizons-task","trial_index":5,"time_elapsed":338660,"internal_node_id":"0.0-4.0-1.0","task_version":"0.2"},{"response_times":[870.1499999733642,776.6700000502169,772.8549999883398,498.01000009756535,1932.9650000436231,1371.6399999102578,1183.0649999901652,633.0249999882653,693.970000022091,1282.6999999815598],"keys_pressed":["leftarrow","leftarrow","rightarrow","rightarrow","rightarrow","rightarrow","rightarrow","rightarrow","rightarrow","rightarrow"],"horizon":10,"forced_choices":["leftarrow","leftarrow","rightarrow","rightarrow"],"right_color":"orange","left_color":"lightblue","left_mu":60,"right_mu":70,"left_numbers":[65,44,55,61,69,61,52,71,51,50],"right_numbers":[51,69,70,80,78,68,72,68,61,50],"points_earned":656,"phase":"practice","trial_type":"horizons-task","trial_index":6,"time_elapsed":350183,"internal_node_id":"0.0-4.0-2.0","task_version":"0.2"},{"view_history":"[{\"page_index\":0,\"viewing_time\":1800.4400000208989},{\"page_index\":1,\"viewing_time\":4157.170000020415},{\"page_index\":2,\"viewing_time\":4512.1099998941645},{\"page_index\":3,\"viewing_time\":2776.810000068508}]","rt":13246.784999966621,"trial_type":"instructions","trial_index":7,"time_elapsed":363431,"internal_node_id":"0.0-4.0-3.0","task_version":"0.2"},{"responses":["true","false","true"],"num_errors":0,"rt":9452.404999989085,"trial_type":"horizons-comprehension","trial_index":8,"time_elapsed":372887,"internal_node_id":"0.0-4.0-4.0","task_version":"0.2"},{"trial_type":"call-function","trial_index":9,"time_elapsed":372893,"internal_node_id":"0.0-5.0","task_version":"0.2"},{"view_history":"[{\"page_index\":0,\"viewing_time\":1322.6199999917299},{\"page_index\":1,\"viewing_time\":3213.2250000722706}]","rt":4536.190000013448,"trial_type":"instructions","trial_index":10,"time_elapsed":377430,"internal_node_id":"0.0-6.0","task_version":"0.2"},{"response_times":[1242.755000013858,424.86000002827495,463.83999998215586,528.8050000090152,710.4299999773502],"keys_pressed":["leftarrow","leftarrow","rightarrow","rightarrow","rightarrow"],"horizon":5,"forced_choices":["leftarrow","leftarrow","rightarrow","rightarrow"],"right_color":"orange","left_color":"lightblue","left_mu":40,"right_mu":70,"left_numbers":[25,31,29,36,44],"right_numbers":[73,67,82,59,78],"points_earned":275,"phase":"task","trial_type":"horizons-task","trial_index":11,"time_elapsed":382309,"internal_node_id":"0.0-7.0","task_version":"0.2"},{"response_times":[838.980000000447,377.8399999719113,448.65500007290393,389.93499998468906,3792.1750000678003],"keys_pressed":["rightarrow","leftarrow","leftarrow","leftarrow","rightarrow"],"horizon":5,"forced_choices":["rightarrow","leftarrow","leftarrow","leftarrow"],"right_color":"orange","left_color":"lightblue","left_mu":40,"right_mu":52,"left_numbers":[40,50,51,47,38],"right_numbers":[55,57,56,53,50],"points_earned":253,"phase":"task","trial_type":"horizons-task","trial_index":12,"time_elapsed":389663,"internal_node_id":"0.0-8.0","task_version":"0.2"},{"response_times":[749.0399999078363,476.7449999926612,631.969999987632,410.8550000237301,5991.934999939986],"keys_pressed":["rightarrow","rightarrow","leftarrow","rightarrow","leftarrow"],"horizon":5,"forced_choices":["rightarrow","rightarrow","leftarrow","rightarrow"],"right_color":"orange","left_color":"lightblue","left_mu":40,"right_mu":32,"left_numbers":[45,41,43,50,46],"right_numbers":[44,37,41,32,37],"points_earned":202,"phase":"task","trial_type":"horizons-task","trial_index":13,"time_elapsed":399428,"internal_node_id":"0.0-9.0","task_version":"0.2"},{"response_times":[650.9099999675527,372.99499998334795,302.2000000346452,348.84500002954155,345.9700000239536,3193.929999950342,826.839999994263,1375.8299999171868,581.8949999520555,649.21000006143],"keys_pressed":["leftarrow","rightarrow","leftarrow","rightarrow","leftarrow","leftarrow","leftarrow","leftarrow","leftarrow","leftarrow"],"horizon":10,"forced_choices":["leftarrow","rightarrow","leftarrow","rightarrow"],"right_color":"lightblue","left_color":"orange","left_mu":40,"right_mu":10,"left_numbers":[47,30,38,27,32,54,24,55,44,44],"right_numbers":[16,11,5,4,2,23,10,0,2,7],"points_earned":353,"phase":"task","trial_type":"horizons-task","trial_index":14,"time_elapsed":409582,"internal_node_id":"0.0-10.0","task_version":"0.2"},{"response_times":[708.8300000177696,419.8399999877438,558.9599999366328,499.81000006664544,1146.7849999899045,4697.139999945648,1894.3250000011176,2018.6599999433383,785.8449999475852,3634.580000070855],"keys_pressed":["leftarrow","rightarrow","leftarrow","rightarrow","rightarrow","rightarrow","rightarrow","rightarrow","rightarrow","rightarrow"],"horizon":10,"forced_choices":["leftarrow","rightarrow","leftarrow","rightarrow"],"right_color":"orange","left_color":"lightblue","left_mu":40,"right_mu":52,"left_numbers":[36,46,50,26,40,39,41,39,28,39],"right_numbers":[55,45,53,64,40,60,44,47,40,52],"points_earned":478,"phase":"task","trial_type":"horizons-task","trial_index":15,"time_elapsed":427450,"internal_node_id":"0.0-11.0","task_version":"0.2"},{"response_times":[633.0399999860674,440.9750000340864,510.8849999960512,1284.0950000099838,1243.529999977909,897.9800000088289,732.1350000565872,623.0900000082329,657.6549999881536,670.9200000623241],"keys_pressed":["rightarrow","leftarrow","rightarrow","rightarrow","leftarrow","leftarrow","leftarrow","leftarrow","leftarrow","leftarrow"],"horizon":10,"forced_choices":["rightarrow","leftarrow","rightarrow","rightarrow"],"right_color":"lightblue","left_color":"orange","left_mu":60,"right_mu":30,"left_numbers":[54,67,65,62,51,55,63,55,60,62],"right_numbers":[28,18,34,20,38,31,21,31,24,24],"points_earned":495,"phase":"task","trial_type":"horizons-task","trial_index":16,"time_elapsed":436651,"internal_node_id":"0.0-12.0","task_version":"0.2"},{"response_times":[591.3050000090152,451.89999998547137,696.885000099428,598.9750000881031,1843.9650000073016],"keys_pressed":["rightarrow","leftarrow","leftarrow","rightarrow","leftarrow"],"horizon":5,"forced_choices":["rightarrow","leftarrow","leftarrow","rightarrow"],"right_color":"lightblue","left_color":"orange","left_mu":60,"right_mu":40,"left_numbers":[54,62,53,70,56],"right_numbers":[27,44,35,51,36],"points_earned":249,"phase":"task","trial_type":"horizons-task","trial_index":17,"time_elapsed":442340,"internal_node_id":"0.0-13.0","task_version":"0.2"},{"response_times":[835.1699999766424,435.8350000111386,326.7849999247119,553.1549999723211,789.9949999991804],"keys_pressed":["leftarrow","rightarrow","leftarrow","leftarrow","leftarrow"],"horizon":5,"forced_choices":["leftarrow","rightarrow","leftarrow","leftarrow"],"right_color":"lightblue","left_color":"orange","left_mu":40,"right_mu":10,"left_numbers":[44,17,40,44,45],"right_numbers":[11,5,20,9,16],"points_earned":178,"phase":"task","trial_type":"horizons-task","trial_index":18,"time_elapsed":446787,"internal_node_id":"0.0-14.0","task_version":"0.2"},{"response_times":[586.5450000856072,335.9049999853596,634.9349999800324,1142.935000010766,4208.065000013448],"keys_pressed":["rightarrow","leftarrow","leftarrow","rightarrow","rightarrow"],"horizon":5,"forced_choices":["rightarrow","leftarrow","leftarrow","rightarrow"],"right_color":"orange","left_color":"lightblue","left_mu":40,"right_mu":44,"left_numbers":[48,20,45,56,39],"right_numbers":[51,41,44,35,34],"points_earned":185,"phase":"task","trial_type":"horizons-task","trial_index":19,"time_elapsed":455199,"internal_node_id":"0.0-15.0","task_version":"0.2"},{"response_times":[615.4150000074878,429.4349999399856,401.2249999213964,413.75999990850687,1805.299999890849],"keys_pressed":["rightarrow","leftarrow","rightarrow","leftarrow","leftarrow"],"horizon":5,"forced_choices":["rightarrow","leftarrow","rightarrow","leftarrow"],"right_color":"orange","left_color":"lightblue","left_mu":60,"right_mu":56,"left_numbers":[59,52,66,66,72],"right_numbers":[53,60,55,47,44],"points_earned":298,"phase":"task","trial_type":"horizons-task","trial_index":20,"time_elapsed":460371,"internal_node_id":"0.0-16.0","task_version":"0.2"},{"response_times":[553.7400000030175,482.2050000075251,450.0499999849126,1960.9700000146404,1067.674999940209,729.4900000561029,533.3000000100583,485.7899999478832,440.11500000488013,1183.0449999542907],"keys_pressed":["leftarrow","leftarrow","rightarrow","leftarrow","rightarrow","rightarrow","rightarrow","rightarrow","rightarrow","rightarrow"],"horizon":10,"forced_choices":["leftarrow","leftarrow","rightarrow","leftarrow"],"right_color":"orange","left_color":"lightblue","left_mu":40,"right_mu":70,"left_numbers":[40,47,42,36,38,33,54,43,46,31],"right_numbers":[66,70,64,78,70,79,76,70,40,70],"points_earned":592,"phase":"task","trial_type":"horizons-task","trial_index":21,"time_elapsed":469761,"internal_node_id":"0.0-17.0","task_version":"0.2"},{"response_times":[696.08500006143,348.8849999848753,716.785000055097,576.0800000280142,2809.010000084527],"keys_pressed":["leftarrow","rightarrow","rightarrow","rightarrow","leftarrow"],"horizon":5,"forced_choices":["leftarrow","rightarrow","rightarrow","rightarrow"],"right_color":"lightblue","left_color":"orange","left_mu":40,"right_mu":36,"left_numbers":[47,27,42,28,23],"right_numbers":[44,44,49,29,37],"points_earned":192,"phase":"task","trial_type":"horizons-task","trial_index":22,"time_elapsed":476410,"internal_node_id":"0.0-18.0","task_version":"0.2"},{"response_times":[946.2700000731274,397.0049999188632,603.9700000546873,504.10000002011657,1829.825000022538],"keys_pressed":["leftarrow","rightarrow","rightarrow","rightarrow","leftarrow"],"horizon":5,"forced_choices":["leftarrow","rightarrow","rightarrow","rightarrow"],"right_color":"orange","left_color":"lightblue","left_mu":40,"right_mu":44,"left_numbers":[47,48,50,37,50],"right_numbers":[51,46,41,36,38],"points_earned":220,"phase":"task","trial_type":"horizons-task","trial_index":23,"time_elapsed":482199,"internal_node_id":"0.0-19.0","task_version":"0.2"},{"response_times":[550.8150000823662,458.3349999738857,504.9899999285117,474.955000099726,1667.1499999938533],"keys_pressed":["rightarrow","rightarrow","leftarrow","leftarrow","rightarrow"],"horizon":5,"forced_choices":["rightarrow","rightarrow","leftarrow","leftarrow"],"right_color":"orange","left_color":"lightblue","left_mu":60,"right_mu":72,"left_numbers":[65,62,68,50,63],"right_numbers":[82,73,73,74,84],"points_earned":357,"phase":"task","trial_type":"horizons-task","trial_index":24,"time_elapsed":487360,"internal_node_id":"0.0-20.0","task_version":"0.2"},{"response_times":[570.2649999875575,602.820000029169,481.77499999292195,1257.0299999788404,1980.8000000193715],"keys_pressed":["leftarrow","leftarrow","leftarrow","rightarrow","rightarrow"],"horizon":5,"forced_choices":["leftarrow","leftarrow","leftarrow","rightarrow"],"right_color":"orange","left_color":"lightblue","left_mu":60,"right_mu":56,"left_numbers":[53,54,48,47,52],"right_numbers":[68,56,61,62,56],"points_earned":273,"phase":"task","trial_type":"horizons-task","trial_index":25,"time_elapsed":493760,"internal_node_id":"0.0-21.0","task_version":"0.2"},{"response_times":[601.6799999633804,457.7200000640005,533.9349999558181,351.15500004030764,1204.105000011623],"keys_pressed":["rightarrow","rightarrow","leftarrow","rightarrow","rightarrow"],"horizon":5,"forced_choices":["rightarrow","rightarrow","leftarrow","rightarrow"],"right_color":"orange","left_color":"lightblue","left_mu":60,"right_mu":72,"left_numbers":[62,63,59,56,55],"right_numbers":[77,54,73,75,72],"points_earned":337,"phase":"task","trial_type":"horizons-task","trial_index":26,"time_elapsed":498414,"internal_node_id":"0.0-22.0","task_version":"0.2"},{"response_times":[678.8699999451637,444.870000006631,455.8700000634417,501.0900000343099,1724.5249999687076,1655.1650000037625,526.9149999367073,1019.9899999424815,552.9549999628216,538.910000002943],"keys_pressed":["leftarrow","leftarrow","leftarrow","rightarrow","rightarrow","rightarrow","rightarrow","rightarrow","rightarrow","rightarrow"],"horizon":10,"forced_choices":["leftarrow","leftarrow","leftarrow","rightarrow"],"right_color":"lightblue","left_color":"orange","left_mu":40,"right_mu":60,"left_numbers":[49,43,31,43,29,33,46,30,48,31],"right_numbers":[58,60,58,55,78,63,53,60,55,54],"points_earned":541,"phase":"task","trial_type":"horizons-task","trial_index":27,"time_elapsed":508021,"internal_node_id":"0.0-23.0","task_version":"0.2"},{"response_times":[476.6050000907853,455.9700000099838,415.8100000349805,421.8249999685213,7911.119999946095,1899.2199999047443,952.5849999627098,614.9199999636039,867.0750000746921,509.6200000261888],"keys_pressed":["rightarrow","rightarrow","leftarrow","rightarrow","rightarrow","leftarrow","leftarrow","leftarrow","leftarrow","leftarrow"],"horizon":10,"forced_choices":["rightarrow","rightarrow","leftarrow","rightarrow"],"right_color":"orange","left_color":"lightblue","left_mu":40,"right_mu":32,"left_numbers":[50,38,38,52,28,47,39,41,40,35],"right_numbers":[30,41,34,42,21,37,40,27,28,16],"points_earned":374,"phase":"task","trial_type":"horizons-task","trial_index":28,"time_elapsed":524050,"internal_node_id":"0.0-24.0","task_version":"0.2"},{"response_times":[800.429999944754,430.61499996110797,333.15500000026077,372.00500001199543,1250.620000064373],"keys_pressed":["leftarrow","rightarrow","leftarrow","rightarrow","leftarrow"],"horizon":5,"forced_choices":["leftarrow","rightarrow","leftarrow","rightarrow"],"right_color":"lightblue","left_color":"orange","left_mu":40,"right_mu":10,"left_numbers":[41,32,33,33,33],"right_numbers":[29,10,12,11,25],"points_earned":128,"phase":"task","trial_type":"horizons-task","trial_index":29,"time_elapsed":528740,"internal_node_id":"0.0-25.0","task_version":"0.2"},{"response_times":[515.4649999458343,368.03000001236796,359.85500004608184,396.0199999855831,408.92499999608845,1905.8449999429286,505.9550000587478,451.88000006601214,525.8499999763444,807.6150000561029],"keys_pressed":["rightarrow","leftarrow","rightarrow","leftarrow","rightarrow","rightarrow","rightarrow","rightarrow","rightarrow","rightarrow"],"horizon":10,"forced_choices":["rightarrow","leftarrow","rightarrow","leftarrow"],"right_color":"lightblue","left_color":"orange","left_mu":60,"right_mu":80,"left_numbers":[71,59,64,51,49,54,66,53,64,73],"right_numbers":[89,86,78,67,61,88,80,69,82,70],"points_earned":727,"phase":"task","trial_type":"horizons-task","trial_index":30,"time_elapsed":536489,"internal_node_id":"0.0-26.0","task_version":"0.2"},{"response_times":[536.9749999372289,364.78000006172806,331.75500005017966,333.1250000046566,3492.020000005141],"keys_pressed":["leftarrow","rightarrow","leftarrow","rightarrow","leftarrow"],"horizon":5,"forced_choices":["leftarrow","rightarrow","leftarrow","rightarrow"],"right_color":"lightblue","left_color":"orange","left_mu":60,"right_mu":68,"left_numbers":[64,65,65,66,55],"right_numbers":[58,79,66,51,71],"points_earned":314,"phase":"task","trial_type":"horizons-task","trial_index":31,"time_elapsed":543056,"internal_node_id":"0.0-27.0","task_version":"0.2"},{"response_times":[542.8900000406429,366.64000002201647,253.0300000216812,438.9599999412894,316.7449999600649,3197.745000012219,848.4750000061467,699.775000102818,566.8499999446794,470.89999995660037],"keys_pressed":["rightarrow","leftarrow","rightarrow","leftarrow","rightarrow","leftarrow","leftarrow","leftarrow","leftarrow","leftarrow"],"horizon":10,"forced_choices":["rightarrow","leftarrow","rightarrow","leftarrow"],"right_color":"orange","left_color":"lightblue","left_mu":60,"right_mu":56,"left_numbers":[79,74,60,67,74,53,65,53,52,68],"right_numbers":[57,63,55,56,58,60,52,49,59,64],"points_earned":602,"phase":"task","trial_type":"horizons-task","trial_index":32,"time_elapsed":552263,"internal_node_id":"0.0-28.0","task_version":"0.2"},{"response_times":[609.7000000299886,511.629999964498,481.07000009622425,493.6600000364706,1478.1899999361485,2160.8900000574067,2952.060000039637,4229.195000021718,2410.2399999974295,734.8350000102073],"keys_pressed":["leftarrow","leftarrow","rightarrow","rightarrow","leftarrow","leftarrow","leftarrow","leftarrow","leftarrow","leftarrow"],"horizon":10,"forced_choices":["leftarrow","leftarrow","rightarrow","rightarrow"],"right_color":"lightblue","left_color":"orange","left_mu":40,"right_mu":36,"left_numbers":[42,40,33,39,36,49,46,29,36,47],"right_numbers":[27,34,39,34,39,36,49,56,32,34],"points_earned":398,"phase":"task","trial_type":"horizons-task","trial_index":33,"time_elapsed":569829,"internal_node_id":"0.0-29.0","task_version":"0.2"},{"response_times":[704.619999974966,476.09999997075647,418.9699999988079,1105.0650000106543,1051.6549999592826,1096.0650000488386,760.2099999785423,429.6099999919534,467.09499997086823,437.9099999787286],"keys_pressed":["leftarrow","leftarrow","rightarrow","rightarrow","rightarrow","rightarrow","rightarrow","rightarrow","rightarrow","rightarrow"],"horizon":10,"forced_choices":["leftarrow","leftarrow","rightarrow","rightarrow"],"right_color":"orange","left_color":"lightblue","left_mu":40,"right_mu":70,"left_numbers":[33,43,46,36,37,42,26,41,39,41],"right_numbers":[67,84,71,62,53,74,81,65,61,71],"points_earned":614,"phase":"task","trial_type":"horizons-task","trial_index":34,"time_elapsed":578282,"internal_node_id":"0.0-30.0","task_version":"0.2"},{"response_times":[637.3050000984222,454.9199999310076,455.8549999492243,1073.090000078082,608.8849999941885,659.6649999264628,501.1650000233203,496.9699999783188,408.85000000707805,384.1500000562519],"keys_pressed":["leftarrow","leftarrow","rightarrow","leftarrow","leftarrow","leftarrow","leftarrow","leftarrow","leftarrow","leftarrow"],"horizon":10,"forced_choices":["leftarrow","leftarrow","rightarrow","leftarrow"],"right_color":"lightblue","left_color":"orange","left_mu":60,"right_mu":52,"left_numbers":[55,61,46,62,69,66,65,65,53,61],"right_numbers":[38,64,45,56,53,55,52,38,65,50],"points_earned":602,"phase":"task","trial_type":"horizons-task","trial_index":35,"time_elapsed":585468,"internal_node_id":"0.0-31.0","task_version":"0.2"},{"response_times":[601.4849999919534,452.930000028573,439.81499993242323,632.0699999341741,515.7700000563636,1466.749999905005,649.1949999472126,601.0800000512972,720.545000047423,445.7900000270456],"keys_pressed":["leftarrow","rightarrow","leftarrow","leftarrow","rightarrow","leftarrow","leftarrow","leftarrow","leftarrow","leftarrow"],"horizon":10,"forced_choices":["leftarrow","rightarrow","leftarrow","leftarrow"],"right_color":"lightblue","left_color":"orange","left_mu":40,"right_mu":28,"left_numbers":[29,28,46,36,22,37,30,44,42,42],"right_numbers":[27,29,28,26,29,22,37,15,29,39],"points_earned":364,"phase":"task","trial_type":"horizons-task","trial_index":36,"time_elapsed":593499,"internal_node_id":"0.0-32.0","task_version":"0.2"},{"response_times":[521.125000086613,408.0949999624863,497.815000009723,620.8399999886751,1550.3249999601394,3062.4400000087917,1281.0000000754371,612.8450001124293,992.9700000211596,533.9750000275671],"keys_pressed":["leftarrow","rightarrow","leftarrow","rightarrow","leftarrow","rightarrow","rightarrow","rightarrow","rightarrow","rightarrow"],"horizon":10,"forced_choices":["leftarrow","rightarrow","leftarrow","rightarrow"],"right_color":"lightblue","left_color":"orange","left_mu":60,"right_mu":68,"left_numbers":[59,55,58,64,60,61,51,62,56,61],"right_numbers":[76,50,63,63,70,63,64,59,81,66],"points_earned":623,"phase":"task","trial_type":"horizons-task","trial_index":37,"time_elapsed":605085,"internal_node_id":"0.0-33.0","task_version":"0.2"},{"response_times":[674.7849999228492,616.965000052005,550.9199999505654,720.4550000606105,2179.164999979548],"keys_pressed":["rightarrow","rightarrow","leftarrow","leftarrow","leftarrow"],"horizon":5,"forced_choices":["rightarrow","rightarrow","leftarrow","leftarrow"],"right_color":"lightblue","left_color":"orange","left_mu":60,"right_mu":52,"left_numbers":[72,58,75,65,55],"right_numbers":[58,45,52,61,41],"points_earned":298,"phase":"task","trial_type":"horizons-task","trial_index":38,"time_elapsed":611330,"internal_node_id":"0.0-34.0","task_version":"0.2"},{"response_times":[535.7999999541789,351.799999945797,334.084999980405,664.8750000167638,1583.8800000492483],"keys_pressed":["rightarrow","leftarrow","rightarrow","rightarrow","leftarrow"],"horizon":5,"forced_choices":["rightarrow","leftarrow","rightarrow","rightarrow"],"right_color":"orange","left_color":"lightblue","left_mu":40,"right_mu":20,"left_numbers":[36,34,52,39,40],"right_numbers":[15,17,30,21,15],"points_earned":140,"phase":"task","trial_type":"horizons-task","trial_index":39,"time_elapsed":616305,"internal_node_id":"0.0-35.0","task_version":"0.2"},{"response_times":[512.3499999754131,619.1650000400841,391.93499996326864,833.489999989979,1173.3000000240281,688.8750001089647,738.9949999051169,681.1199999647215,609.5900000073016,517.2550000716001],"keys_pressed":["rightarrow","leftarrow","rightarrow","rightarrow","leftarrow","leftarrow","leftarrow","leftarrow","leftarrow","leftarrow"],"horizon":10,"forced_choices":["rightarrow","leftarrow","rightarrow","rightarrow"],"right_color":"orange","left_color":"lightblue","left_mu":40,"right_mu":20,"left_numbers":[34,32,49,34,33,31,55,35,39,37],"right_numbers":[22,14,20,20,22,13,15,15,16,17],"points_earned":324,"phase":"task","trial_type":"horizons-task","trial_index":40,"time_elapsed":624578,"internal_node_id":"0.0-36.0","task_version":"0.2"},{"response_times":[564.3300000810996,386.7749999044463,702.1200000308454,766.9499999610707,574.8100000200793],"keys_pressed":["leftarrow","rightarrow","rightarrow","leftarrow","leftarrow"],"horizon":5,"forced_choices":["leftarrow","rightarrow","rightarrow","leftarrow"],"right_color":"lightblue","left_color":"orange","left_mu":60,"right_mu":30,"left_numbers":[68,56,47,53,52],"right_numbers":[36,29,22,15,20],"points_earned":224,"phase":"task","trial_type":"horizons-task","trial_index":41,"time_elapsed":629077,"internal_node_id":"0.0-37.0","task_version":"0.2"},{"response_times":[458.2650000229478,480.36000004503876,455.1249999785796,694.8050000937656,997.9899999452755,639.9599999422207,610.9449999639764,582.8749999636784,592.8899999707937,727.9850000049919],"keys_pressed":["rightarrow","rightarrow","leftarrow","leftarrow","rightarrow","rightarrow","rightarrow","rightarrow","rightarrow","rightarrow"],"horizon":10,"forced_choices":["rightarrow","rightarrow","leftarrow","leftarrow"],"right_color":"lightblue","left_color":"orange","left_mu":60,"right_mu":90,"left_numbers":[51,59,64,47,70,63,56,62,65,66],"right_numbers":[90,85,93,91,87,96,88,101,81,93],"points_earned":832,"phase":"task","trial_type":"horizons-task","trial_index":42,"time_elapsed":636823,"internal_node_id":"0.0-38.0","task_version":"0.2"},{"response_times":[603.7200000137091,812.720000045374,462.99499995075166,442.9849999723956,2798.105000052601,494.4150000810623,512.2350000310689,350.88000004179776,434.9549999460578,344.939999980852],"keys_pressed":["rightarrow","rightarrow","rightarrow","leftarrow","rightarrow","rightarrow","rightarrow","rightarrow","rightarrow","rightarrow"],"horizon":10,"forced_choices":["rightarrow","rightarrow","rightarrow","leftarrow"],"right_color":"lightblue","left_color":"orange","left_mu":60,"right_mu":80,"left_numbers":[52,69,45,72,62,63,61,71,53,53],"right_numbers":[74,92,73,71,83,84,62,81,81,82],"points_earned":784,"phase":"task","trial_type":"horizons-task","trial_index":43,"time_elapsed":645586,"internal_node_id":"0.0-39.0","task_version":"0.2"},{"response_times":[547.1299999626353,402.9449999798089,497.05000000540167,407.59499999694526,1266.1899999948218],"keys_pressed":["leftarrow","rightarrow","rightarrow","leftarrow","leftarrow"],"horizon":5,"forced_choices":["leftarrow","rightarrow","rightarrow","leftarrow"],"right_color":"orange","left_color":"lightblue","left_mu":60,"right_mu":48,"left_numbers":[51,69,58,65,62],"right_numbers":[45,42,42,46,44],"points_earned":262,"phase":"task","trial_type":"horizons-task","trial_index":44,"time_elapsed":650213,"internal_node_id":"0.0-40.0","task_version":"0.2"},{"response_times":[540.1499998988584,368.845000048168,254.9150000559166,557.8099999111146,1049.2550000781193,513.6049999855459,511.6749999579042,351.4849999919534,321.80500007234514,354.0400000056252],"keys_pressed":["leftarrow","rightarrow","leftarrow","leftarrow","leftarrow","leftarrow","leftarrow","leftarrow","leftarrow","leftarrow"],"horizon":10,"forced_choices":["leftarrow","rightarrow","leftarrow","leftarrow"],"right_color":"lightblue","left_color":"orange","left_mu":40,"right_mu":10,"left_numbers":[39,30,55,46,60,48,35,36,27,41],"right_numbers":[1,0,0,2,16,0,0,16,24,0],"points_earned":387,"phase":"task","trial_type":"horizons-task","trial_index":45,"time_elapsed":656541,"internal_node_id":"0.0-41.0","task_version":"0.2"},{"response_times":[818.1000000331551,404.7949999803677,514.919999986887,414.02499994728714,358.75000001396984,1323.2500000158325,601.7899999860674,399.8549999669194,561.8750000139698,352.14500001166016],"keys_pressed":["rightarrow","leftarrow","leftarrow","rightarrow","leftarrow","leftarrow","leftarrow","leftarrow","leftarrow","leftarrow"],"horizon":10,"forced_choices":["rightarrow","leftarrow","leftarrow","rightarrow"],"right_color":"lightblue","left_color":"orange","left_mu":40,"right_mu":28,"left_numbers":[44,27,44,58,42,45,33,41,41,38],"right_numbers":[24,21,24,29,31,34,42,29,24,28],"points_earned":364,"phase":"task","trial_type":"horizons-task","trial_index":46,"time_elapsed":663795,"internal_node_id":"0.0-42.0","task_version":"0.2"},{"response_times":[687.7400000812486,410.7650000369176,408.0000000540167,486.0150000313297,725.8399999700487,558.7700000032783,291.8650000356138,201.2150000082329,403.4949999768287,358.15500002354383],"keys_pressed":["rightarrow","leftarrow","rightarrow","leftarrow","leftarrow","leftarrow","leftarrow","leftarrow","leftarrow","leftarrow"],"horizon":10,"forced_choices":["rightarrow","leftarrow","rightarrow","leftarrow"],"right_color":"orange","left_color":"lightblue","left_mu":40,"right_mu":20,"left_numbers":[46,38,42,50,43,42,53,37,43,28],"right_numbers":[23,17,8,7,17,31,8,39,29,6],"points_earned":365,"phase":"task","trial_type":"horizons-task","trial_index":47,"time_elapsed":669835,"internal_node_id":"0.0-43.0","task_version":"0.2"},{"response_times":[828.2200000248849,382.9700000351295,250.08000002708286,524.6650000335649,843.7200000043958,410.77499999664724,295.43000005651265,215.05999995861202,190.71999995503575,328.0899999663234],"keys_pressed":["leftarrow","rightarrow","leftarrow","rightarrow","rightarrow","rightarrow","rightarrow","rightarrow","rightarrow","rightarrow"],"horizon":10,"forced_choices":["leftarrow","rightarrow","leftarrow","rightarrow"],"right_color":"lightblue","left_color":"orange","left_mu":40,"right_mu":60,"left_numbers":[45,31,39,29,49,36,27,31,34,45],"right_numbers":[65,56,61,50,61,60,50,73,50,65],"points_earned":549,"phase":"task","trial_type":"horizons-task","trial_index":48,"time_elapsed":675607,"internal_node_id":"0.0-44.0","task_version":"0.2"},{"response_times":[677.9050000477582,351.6199999721721,909.0999999316409,732.9650000901893,2229.725000099279,438.0750000709668,1011.7849999805912,481.000000028871,385.1149999536574,384.8299999954179],"keys_pressed":["leftarrow","rightarrow","rightarrow","rightarrow","rightarrow","rightarrow","rightarrow","rightarrow","rightarrow","rightarrow"],"horizon":10,"forced_choices":["leftarrow","rightarrow","rightarrow","rightarrow"],"right_color":"orange","left_color":"lightblue","left_mu":40,"right_mu":48,"left_numbers":[31,45,34,31,42,52,34,35,35,36],"right_numbers":[39,48,33,41,31,41,48,43,50,49],"points_earned":415,"phase":"task","trial_type":"horizons-task","trial_index":49,"time_elapsed":684713,"internal_node_id":"0.0-45.0","task_version":"0.2"},{"response_times":[509.1600000159815,384.15499997790903,252.04000005032867,660.3100000647828,2065.3300000121817],"keys_pressed":["rightarrow","leftarrow","rightarrow","rightarrow","leftarrow"],"horizon":5,"forced_choices":["rightarrow","leftarrow","rightarrow","rightarrow"],"right_color":"lightblue","left_color":"orange","left_mu":60,"right_mu":30,"left_numbers":[70,58,61,69,67],"right_numbers":[34,27,25,20,36],"points_earned":204,"phase":"task","trial_type":"horizons-task","trial_index":50,"time_elapsed":690089,"internal_node_id":"0.0-46.0","task_version":"0.2"},{"view_history":"[{\"page_index\":0,\"viewing_time\":1988.3649999974295},{\"page_index\":1,\"viewing_time\":1711.2750000087544}]","rt":3700.279999990016,"trial_type":"instructions","trial_index":51,"time_elapsed":693791,"internal_node_id":"0.0-47.0","task_version":"0.2"},{"response_times":[905.6799999671057,357.87000006530434,421.07499996200204,375.77499996405095,868.2150000240654,2955.6200000224635,3088.549999985844,671.2399999378249,505.0500000361353,448.7850000150502],"keys_pressed":["leftarrow","rightarrow","rightarrow","rightarrow","rightarrow","leftarrow","leftarrow","leftarrow","leftarrow","leftarrow"],"horizon":10,"forced_choices":["leftarrow","rightarrow","rightarrow","rightarrow"],"right_color":"orange","left_color":"lightblue","left_mu":40,"right_mu":44,"left_numbers":[38,44,23,38,49,36,44,42,43,44],"right_numbers":[51,48,32,44,28,35,44,48,47,57],"points_earned":399,"phase":"task","trial_type":"horizons-task","trial_index":52,"time_elapsed":705897,"internal_node_id":"0.0-48.0","task_version":"0.2"},{"response_times":[675.7299999007955,550.7650000508875,423.1049999361858,477.0799999823794,1292.7350000245497],"keys_pressed":["rightarrow","leftarrow","rightarrow","leftarrow","rightarrow"],"horizon":5,"forced_choices":["rightarrow","leftarrow","rightarrow","leftarrow"],"right_color":"lightblue","left_color":"orange","left_mu":60,"right_mu":80,"left_numbers":[56,63,50,74,52],"right_numbers":[81,75,71,69,94],"points_earned":383,"phase":"task","trial_type":"horizons-task","trial_index":53,"time_elapsed":710825,"internal_node_id":"0.0-49.0","task_version":"0.2"},{"response_times":[663.8599999714643,403.70000002440065,432.7599999960512,560.0200000917539,590.9250000258908],"keys_pressed":["rightarrow","rightarrow","rightarrow","leftarrow","rightarrow"],"horizon":5,"forced_choices":["rightarrow","rightarrow","rightarrow","leftarrow"],"right_color":"lightblue","left_color":"orange","left_mu":60,"right_mu":80,"left_numbers":[64,65,51,59,76],"right_numbers":[91,76,72,77,71],"points_earned":369,"phase":"task","trial_type":"horizons-task","trial_index":54,"time_elapsed":714982,"internal_node_id":"0.0-50.0","task_version":"0.2"},{"response_times":[518.5699999565259,375.64999994356185,744.3699999712408,448.6200000392273,2051.3349999673665,746.5550000779331,471.955000073649,434.0250000823289,372.88499996066093,371.97000009473413],"keys_pressed":["rightarrow","rightarrow","leftarrow","rightarrow","leftarrow","leftarrow","leftarrow","leftarrow","leftarrow","leftarrow"],"horizon":10,"forced_choices":["rightarrow","rightarrow","leftarrow","rightarrow"],"right_color":"lightblue","left_color":"orange","left_mu":60,"right_mu":40,"left_numbers":[73,61,56,65,51,62,70,54,63,58],"right_numbers":[41,41,48,41,40,47,28,51,30,38],"points_earned":537,"phase":"task","trial_type":"horizons-task","trial_index":55,"time_elapsed":723022,"internal_node_id":"0.0-51.0","task_version":"0.2"},{"response_times":[568.180000060238,602.1200000541285,412.6149999210611,982.2649999987334,900.0049999449402,1462.9949999507517,583.5600000573322,1455.125000094995,525.6250000093132,361.92499997559935],"keys_pressed":["leftarrow","leftarrow","rightarrow","rightarrow","rightarrow","rightarrow","rightarrow","rightarrow","rightarrow","rightarrow"],"horizon":10,"forced_choices":["leftarrow","leftarrow","rightarrow","rightarrow"],"right_color":"orange","left_color":"lightblue","left_mu":60,"right_mu":64,"left_numbers":[48,67,67,53,61,43,63,59,58,67],"right_numbers":[50,62,70,71,61,71,45,67,60,65],"points_earned":625,"phase":"task","trial_type":"horizons-task","trial_index":56,"time_elapsed":732379,"internal_node_id":"0.0-52.0","task_version":"0.2"},{"response_times":[478.0700000701472,377.8650000458583,503.93999996595085,483.94499998539686,1376.0150000452995,799.6600000187755,513.6949999723583,499.58499998319894,684.5599999651313,601.1149999685585],"keys_pressed":["rightarrow","leftarrow","leftarrow","leftarrow","leftarrow","leftarrow","leftarrow","leftarrow","leftarrow","leftarrow"],"horizon":10,"forced_choices":["rightarrow","leftarrow","leftarrow","leftarrow"],"right_color":"orange","left_color":"lightblue","left_mu":60,"right_mu":48,"left_numbers":[69,64,54,49,71,75,77,59,62,66],"right_numbers":[47,47,35,46,61,46,49,39,30,39],"points_earned":624,"phase":"task","trial_type":"horizons-task","trial_index":57,"time_elapsed":740205,"internal_node_id":"0.0-53.0","task_version":"0.2"},{"response_times":[539.0950000146404,428.0899999430403,768.2999999960884,1436.3400000147521,617.8800000343472,680.9650000650436,1467.7200000733137,3737.929999944754,533.8750000810251,709.4350000843406],"keys_pressed":["rightarrow","leftarrow","leftarrow","leftarrow","rightarrow","rightarrow","rightarrow","rightarrow","rightarrow","rightarrow"],"horizon":10,"forced_choices":["rightarrow","leftarrow","leftarrow","leftarrow"],"right_color":"orange","left_color":"lightblue","left_mu":40,"right_mu":52,"left_numbers":[41,42,41,45,28,46,40,42,30,44],"right_numbers":[57,50,54,50,61,45,36,59,53,62],"points_earned":501,"phase":"task","trial_type":"horizons-task","trial_index":58,"time_elapsed":752629,"internal_node_id":"0.0-54.0","task_version":"0.2"},{"response_times":[504.61000006180257,427.9800000367686,456.96500001940876,419.25999999511987,1194.4050000747666,541.9799999799579,545.0100000016391,603.8300000363961,376.9449999090284,368.97499999031425],"keys_pressed":["leftarrow","leftarrow","rightarrow","leftarrow","rightarrow","rightarrow","rightarrow","rightarrow","rightarrow","rightarrow"],"horizon":10,"forced_choices":["leftarrow","leftarrow","rightarrow","leftarrow"],"right_color":"lightblue","left_color":"orange","left_mu":60,"right_mu":90,"left_numbers":[61,63,52,72,51,64,49,53,67,48],"right_numbers":[89,101,90,91,78,71,90,86,83,87],"points_earned":781,"phase":"task","trial_type":"horizons-task","trial_index":59,"time_elapsed":759576,"internal_node_id":"0.0-55.0","task_version":"0.2"},{"response_times":[559.2950000427663,389.8399999598041,317.98000005073845,316.0599999828264,1396.5549999848008],"keys_pressed":["leftarrow","rightarrow","leftarrow","rightarrow","rightarrow"],"horizon":5,"forced_choices":["leftarrow","rightarrow","leftarrow","rightarrow"],"right_color":"lightblue","left_color":"orange","left_mu":40,"right_mu":60,"left_numbers":[55,45,40,34,29],"right_numbers":[61,59,56,55,67],"points_earned":276,"phase":"task","trial_type":"horizons-task","trial_index":60,"time_elapsed":764064,"internal_node_id":"0.0-56.0","task_version":"0.2"},{"response_times":[672.6000000489876,484.03500008862466,490.02999998629093,1118.7899999786168,2363.950000028126],"keys_pressed":["leftarrow","leftarrow","rightarrow","rightarrow","leftarrow"],"horizon":5,"forced_choices":["leftarrow","leftarrow","rightarrow","rightarrow"],"right_color":"orange","left_color":"lightblue","left_mu":60,"right_mu":64,"left_numbers":[71,65,50,49,64],"right_numbers":[75,72,56,72,63],"points_earned":328,"phase":"task","trial_type":"horizons-task","trial_index":61,"time_elapsed":770699,"internal_node_id":"0.0-57.0","task_version":"0.2"},{"response_times":[701.3100000331178,398.83499999996275,605.7150000706315,387.8800000529736,1726.8299999414012],"keys_pressed":["leftarrow","rightarrow","rightarrow","leftarrow","leftarrow"],"horizon":5,"forced_choices":["leftarrow","rightarrow","rightarrow","leftarrow"],"right_color":"orange","left_color":"lightblue","left_mu":40,"right_mu":32,"left_numbers":[51,45,43,48,32],"right_numbers":[25,25,29,30,31],"points_earned":185,"phase":"task","trial_type":"horizons-task","trial_index":62,"time_elapsed":776023,"internal_node_id":"0.0-58.0","task_version":"0.2"},{"response_times":[834.220000077039,536.8999999482185,412.77500009164214,522.1649999730289,927.8299999423325,479.01000001002103,390.1649999897927,253.71499999891967,277.97000005375594,450.855000060983],"keys_pressed":["rightarrow","rightarrow","rightarrow","leftarrow","rightarrow","rightarrow","rightarrow","rightarrow","rightarrow","rightarrow"],"horizon":10,"forced_choices":["rightarrow","rightarrow","rightarrow","leftarrow"],"right_color":"lightblue","left_color":"orange","left_mu":60,"right_mu":68,"left_numbers":[62,56,65,56,50,67,56,56,61,66],"right_numbers":[62,63,73,70,62,59,55,58,66,68],"points_earned":622,"phase":"task","trial_type":"horizons-task","trial_index":63,"time_elapsed":782612,"internal_node_id":"0.0-59.0","task_version":"0.2"},{"response_times":[599.9199999496341,346.4900000253692,618.0000000167638,637.6350000500679,2975.9899999480695],"keys_pressed":["leftarrow","rightarrow","rightarrow","rightarrow","rightarrow"],"horizon":5,"forced_choices":["leftarrow","rightarrow","rightarrow","rightarrow"],"right_color":"orange","left_color":"lightblue","left_mu":40,"right_mu":48,"left_numbers":[36,45,36,51,49],"right_numbers":[39,42,52,34,52],"points_earned":216,"phase":"task","trial_type":"horizons-task","trial_index":64,"time_elapsed":789293,"internal_node_id":"0.0-60.0","task_version":"0.2"},{"response_times":[593.9200000138953,607.9250000184402,324.69499995931983,457.19999994616956,1443.9150000689551,740.2799999108538,580.4600000847131,595.1150000328198,413.8950000051409,341.9149999972433],"keys_pressed":["leftarrow","leftarrow","leftarrow","rightarrow","rightarrow","rightarrow","rightarrow","rightarrow","rightarrow","rightarrow"],"horizon":10,"forced_choices":["leftarrow","leftarrow","leftarrow","rightarrow"],"right_color":"orange","left_color":"lightblue","left_mu":60,"right_mu":56,"left_numbers":[59,63,70,57,63,43,63,62,63,62],"right_numbers":[60,69,53,64,58,59,59,54,49,32],"points_earned":567,"phase":"task","trial_type":"horizons-task","trial_index":65,"time_elapsed":796898,"internal_node_id":"0.0-61.0","task_version":"0.2"},{"response_times":[752.4800000246614,469.18999997433275,523.4950000885874,1004.3849999783561,792.1149999601766],"keys_pressed":["rightarrow","rightarrow","leftarrow","rightarrow","leftarrow"],"horizon":5,"forced_choices":["rightarrow","rightarrow","leftarrow","rightarrow"],"right_color":"lightblue","left_color":"orange","left_mu":60,"right_mu":40,"left_numbers":[62,45,51,58,62],"right_numbers":[34,58,62,47,41],"points_earned":252,"phase":"task","trial_type":"horizons-task","trial_index":66,"time_elapsed":801943,"internal_node_id":"0.0-62.0","task_version":"0.2"},{"response_times":[590.8650000346825,378.9349999278784,535.935000050813,397.9700000490993,389.74000001326203,1489.2100000288337,814.5500000100583,409.3649999704212,686.6949999239296,710.9700000146404],"keys_pressed":["leftarrow","rightarrow","rightarrow","leftarrow","rightarrow","leftarrow","leftarrow","leftarrow","leftarrow","leftarrow"],"horizon":10,"forced_choices":["leftarrow","rightarrow","rightarrow","leftarrow"],"right_color":"orange","left_color":"lightblue","left_mu":60,"right_mu":48,"left_numbers":[66,73,81,57,62,56,43,64,62,58],"right_numbers":[47,42,43,52,48,49,54,46,43,49],"points_earned":539,"phase":"task","trial_type":"horizons-task","trial_index":67,"time_elapsed":809856,"internal_node_id":"0.0-63.0","task_version":"0.2"},{"response_times":[566.7949999915436,473.7550000427291,417.0250000897795,393.9349999418482,703.8500000489876],"keys_pressed":["leftarrow","leftarrow","rightarrow","leftarrow","rightarrow"],"horizon":5,"forced_choices":["leftarrow","leftarrow","rightarrow","leftarrow"],"right_color":"orange","left_color":"lightblue","left_mu":40,"right_mu":70,"left_numbers":[57,27,28,27,40],"right_numbers":[61,73,61,73,66],"points_earned":238,"phase":"task","trial_type":"horizons-task","trial_index":68,"time_elapsed":813919,"internal_node_id":"0.0-64.0","task_version":"0.2"},{"response_times":[465.94000002369285,378.80499998573214,602.9199999757111,432.88999993819743,1836.780000012368,849.7900000074878,674.1850000107661,640.7300001010299,433.9400000171736,351.10500000882894],"keys_pressed":["leftarrow","rightarrow","rightarrow","leftarrow","leftarrow","leftarrow","leftarrow","leftarrow","leftarrow","leftarrow"],"horizon":10,"forced_choices":["leftarrow","rightarrow","rightarrow","leftarrow"],"right_color":"orange","left_color":"lightblue","left_mu":40,"right_mu":32,"left_numbers":[16,55,41,45,39,32,39,41,36,33],"right_numbers":[27,36,19,27,39,42,20,26,41,20],"points_earned":336,"phase":"task","trial_type":"horizons-task","trial_index":69,"time_elapsed":822093,"internal_node_id":"0.0-65.0","task_version":"0.2"},{"response_times":[524.5450000511482,441.1100000143051,365.0200000265613,324.90499992854893,1004.2100000428036],"keys_pressed":["rightarrow","leftarrow","rightarrow","leftarrow","leftarrow"],"horizon":5,"forced_choices":["rightarrow","leftarrow","rightarrow","leftarrow"],"right_color":"orange","left_color":"lightblue","left_mu":40,"right_mu":20,"left_numbers":[31,45,26,37,38],"right_numbers":[11,9,17,34,27],"points_earned":148,"phase":"task","trial_type":"horizons-task","trial_index":70,"time_elapsed":826259,"internal_node_id":"0.0-66.0","task_version":"0.2"},{"response_times":[572.9249999858439,420.1999999349937,567.6100000273436,638.0649999482557,946.765000000596],"keys_pressed":["rightarrow","leftarrow","leftarrow","rightarrow","rightarrow"],"horizon":5,"forced_choices":["rightarrow","leftarrow","leftarrow","rightarrow"],"right_color":"orange","left_color":"lightblue","left_mu":40,"right_mu":48,"left_numbers":[36,38,41,36,56],"right_numbers":[48,45,38,32,46],"points_earned":205,"phase":"task","trial_type":"horizons-task","trial_index":71,"time_elapsed":830911,"internal_node_id":"0.0-67.0","task_version":"0.2"},{"response_times":[1003.4699999960139,338.49500003270805,1089.3149999901652,339.1350000165403,570.644999970682],"keys_pressed":["rightarrow","leftarrow","leftarrow","rightarrow","leftarrow"],"horizon":5,"forced_choices":["rightarrow","leftarrow","leftarrow","rightarrow"],"right_color":"lightblue","left_color":"orange","left_mu":40,"right_mu":28,"left_numbers":[36,39,41,47,44],"right_numbers":[35,30,17,19,30],"points_earned":178,"phase":"task","trial_type":"horizons-task","trial_index":72,"time_elapsed":835758,"internal_node_id":"0.0-68.0","task_version":"0.2"},{"response_times":[432.28999990969896,370.40000001434237,486.3699999405071,946.6799999354407,1008.2249999977648],"keys_pressed":["rightarrow","leftarrow","leftarrow","leftarrow","leftarrow"],"horizon":5,"forced_choices":["rightarrow","leftarrow","leftarrow","leftarrow"],"right_color":"orange","left_color":"lightblue","left_mu":60,"right_mu":48,"left_numbers":[49,44,67,67,57],"right_numbers":[40,46,48,35,52],"points_earned":275,"phase":"task","trial_type":"horizons-task","trial_index":73,"time_elapsed":840507,"internal_node_id":"0.0-69.0","task_version":"0.2"},{"response_times":[525.5499999038875,385.8600000385195,464.6899999352172,438.0449999589473,1120.0050000334159,2144.815000006929,2191.980000003241,500.7299999706447,437.9350000526756,453.125],"keys_pressed":["rightarrow","leftarrow","leftarrow","rightarrow","rightarrow","leftarrow","leftarrow","leftarrow","leftarrow","leftarrow"],"horizon":10,"forced_choices":["rightarrow","leftarrow","leftarrow","rightarrow"],"right_color":"orange","left_color":"lightblue","left_mu":40,"right_mu":44,"left_numbers":[43,46,40,34,41,34,43,52,32,35],"right_numbers":[42,45,35,48,32,35,38,64,46,35],"points_earned":404,"phase":"task","trial_type":"horizons-task","trial_index":74,"time_elapsed":850676,"internal_node_id":"0.0-70.0","task_version":"0.2"},{"response_times":[555.8500000042841,356.77499999292195,407.950000022538,808.9550000149757,1386.144999996759],"keys_pressed":["leftarrow","rightarrow","leftarrow","leftarrow","leftarrow"],"horizon":5,"forced_choices":["leftarrow","rightarrow","leftarrow","leftarrow"],"right_color":"lightblue","left_color":"orange","left_mu":40,"right_mu":28,"left_numbers":[42,45,30,35,31],"right_numbers":[29,31,36,36,19],"points_earned":169,"phase":"task","trial_type":"horizons-task","trial_index":75,"time_elapsed":855699,"internal_node_id":"0.0-71.0","task_version":"0.2"},{"response_times":[637.0399999432266,342.7949999459088,706.6399999894202,385.98000002093613,365.3550000162795,1293.7350000720471,411.96499997749925,281.8950000219047,178.89499990269542,366.9549999758601],"keys_pressed":["rightarrow","leftarrow","leftarrow","rightarrow","leftarrow","leftarrow","leftarrow","leftarrow","leftarrow","leftarrow"],"horizon":10,"forced_choices":["rightarrow","leftarrow","leftarrow","rightarrow"],"right_color":"lightblue","left_color":"orange","left_mu":60,"right_mu":40,"left_numbers":[64,56,61,54,58,56,65,64,66,52],"right_numbers":[38,39,37,37,40,29,35,38,46,30],"points_earned":553,"phase":"task","trial_type":"horizons-task","trial_index":76,"time_elapsed":862177,"internal_node_id":"0.0-72.0","task_version":"0.2"},{"response_times":[644.304999965243,374.62500005494803,502.8700000839308,436.17999996058643,1499.0850000176579,901.5299999155104,3233.409999986179,567.5799999153242,647.7600000798702,604.0300000458956],"keys_pressed":["rightarrow","leftarrow","leftarrow","leftarrow","rightarrow","rightarrow","leftarrow","leftarrow","leftarrow","leftarrow"],"horizon":10,"forced_choices":["rightarrow","leftarrow","leftarrow","leftarrow"],"right_color":"orange","left_color":"lightblue","left_mu":60,"right_mu":64,"left_numbers":[75,53,46,58,55,52,50,55,66,63],"right_numbers":[66,58,53,57,61,40,59,80,63,62],"points_earned":558,"phase":"task","trial_type":"horizons-task","trial_index":77,"time_elapsed":873097,"internal_node_id":"0.0-73.0","task_version":"0.2"},{"response_times":[554.3949999846518,562.0249999919906,579.0950000518933,1160.5199999175966,487.12499998509884],"keys_pressed":["leftarrow","leftarrow","rightarrow","leftarrow","rightarrow"],"horizon":5,"forced_choices":["leftarrow","leftarrow","rightarrow","leftarrow"],"right_color":"lightblue","left_color":"orange","left_mu":60,"right_mu":90,"left_numbers":[57,61,50,64,64],"right_numbers":[96,92,96,87,78],"points_earned":356,"phase":"task","trial_type":"horizons-task","trial_index":78,"time_elapsed":877973,"internal_node_id":"0.0-74.0","task_version":"0.2"},{"response_times":[646.2649999884889,395.8150000544265,528.9200000697747,596.1599999573082,925.6550000282004],"keys_pressed":["rightarrow","leftarrow","leftarrow","leftarrow","rightarrow"],"horizon":5,"forced_choices":["rightarrow","leftarrow","leftarrow","leftarrow"],"right_color":"orange","left_color":"lightblue","left_mu":60,"right_mu":64,"left_numbers":[58,57,54,50,69],"right_numbers":[59,57,60,73,54],"points_earned":274,"phase":"task","trial_type":"horizons-task","trial_index":79,"time_elapsed":882571,"internal_node_id":"0.0-75.0","task_version":"0.2"},{"response_times":[542.3899999586865,737.1649999404326,486.53999995440245,858.1049999920651,430.6849999120459],"keys_pressed":["rightarrow","rightarrow","leftarrow","leftarrow","rightarrow"],"horizon":5,"forced_choices":["rightarrow","rightarrow","leftarrow","leftarrow"],"right_color":"lightblue","left_color":"orange","left_mu":60,"right_mu":90,"left_numbers":[62,53,59,50,54],"right_numbers":[87,96,99,78,95],"points_earned":387,"phase":"task","trial_type":"horizons-task","trial_index":80,"time_elapsed":887133,"internal_node_id":"0.0-76.0","task_version":"0.2"},{"response_times":[623.589999973774,414.8849999764934,499.97999996412545,605.2249999484047,3058.0100000370294,1400.789999985136,1174.8949999455363,977.5499999523163,930.8200000086799,685.0199999753386],"keys_pressed":["leftarrow","rightarrow","rightarrow","rightarrow","leftarrow","leftarrow","rightarrow","leftarrow","rightarrow","rightarrow"],"horizon":10,"forced_choices":["leftarrow","rightarrow","rightarrow","rightarrow"],"right_color":"lightblue","left_color":"orange","left_mu":40,"right_mu":36,"left_numbers":[48,49,34,48,36,33,42,28,52,52],"right_numbers":[32,26,53,41,48,34,31,54,42,32],"points_earned":370,"phase":"task","trial_type":"horizons-task","trial_index":81,"time_elapsed":899011,"internal_node_id":"0.0-77.0","task_version":"0.2"},{"response_times":[621.5450000017881,580.3399999858811,486.68000008910894,455.65000001806766,401.0349999880418],"keys_pressed":["leftarrow","leftarrow","rightarrow","leftarrow","rightarrow"],"horizon":5,"forced_choices":["leftarrow","leftarrow","rightarrow","leftarrow"],"right_color":"lightblue","left_color":"orange","left_mu":60,"right_mu":52,"left_numbers":[58,57,92,51,57],"right_numbers":[48,41,51,48,53],"points_earned":270,"phase":"task","trial_type":"horizons-task","trial_index":82,"time_elapsed":903060,"internal_node_id":"0.0-78.0","task_version":"0.2"},{"response_times":[840.2500000083819,391.06499997433275,496.66499998420477,439.0750000020489,378.01000010222197,1336.8699999991804,678.7849999964237,400.0199999427423,276.97500004433095,366.8799999868497],"keys_pressed":["rightarrow","leftarrow","leftarrow","rightarrow","leftarrow","rightarrow","rightarrow","rightarrow","rightarrow","rightarrow"],"horizon":10,"forced_choices":["rightarrow","leftarrow","leftarrow","rightarrow"],"right_color":"orange","left_color":"lightblue","left_mu":40,"right_mu":48,"left_numbers":[32,26,41,37,29,38,38,40,26,43],"right_numbers":[49,48,58,67,53,49,50,58,33,47],"points_earned":449,"phase":"task","trial_type":"horizons-task","trial_index":83,"time_elapsed":910169,"internal_node_id":"0.0-79.0","task_version":"0.2"},{"response_times":[755.1799999782816,381.8550000432879,422.9950000299141,450.02499991096556,919.774999958463],"keys_pressed":["leftarrow","rightarrow","leftarrow","rightarrow","rightarrow"],"horizon":5,"forced_choices":["leftarrow","rightarrow","leftarrow","rightarrow"],"right_color":"orange","left_color":"lightblue","left_mu":40,"right_mu":52,"left_numbers":[44,30,43,42,57],"right_numbers":[51,53,60,56,39],"points_earned":235,"phase":"task","trial_type":"horizons-task","trial_index":84,"time_elapsed":914603,"internal_node_id":"0.0-80.0","task_version":"0.2"},{"response_times":[557.0200000656769,610.5500000994653,603.7800000049174,709.0049999533221,1422.23499994725],"keys_pressed":["leftarrow","leftarrow","rightarrow","rightarrow","rightarrow"],"horizon":5,"forced_choices":["leftarrow","leftarrow","rightarrow","rightarrow"],"right_color":"lightblue","left_color":"orange","left_mu":40,"right_mu":36,"left_numbers":[28,47,48,59,42],"right_numbers":[33,41,42,45,43],"points_earned":205,"phase":"task","trial_type":"horizons-task","trial_index":85,"time_elapsed":920014,"internal_node_id":"0.0-81.0","task_version":"0.2"},{"response_times":[586.0199999297038,513.9950000448152,437.0549999875948,467.92500000447035,407.7250000555068,958.0800000112504,426.9550000317395,297.00500005856156,254.8300001071766,378.9949999190867],"keys_pressed":["rightarrow","rightarrow","leftarrow","leftarrow","rightarrow","leftarrow","leftarrow","leftarrow","leftarrow","leftarrow"],"horizon":10,"forced_choices":["rightarrow","rightarrow","leftarrow","leftarrow"],"right_color":"lightblue","left_color":"orange","left_mu":60,"right_mu":52,"left_numbers":[58,61,57,60,67,66,58,46,56,54],"right_numbers":[57,47,54,55,44,53,62,50,55,60],"points_earned":545,"phase":"task","trial_type":"horizons-task","trial_index":86,"time_elapsed":926249,"internal_node_id":"0.0-82.0","task_version":"0.2"},{"response_times":[747.6499999174848,418.3249999769032,611.0199999529868,967.0799999730662,1041.8449999997392],"keys_pressed":["rightarrow","rightarrow","rightarrow","leftarrow","rightarrow"],"horizon":5,"forced_choices":["rightarrow","rightarrow","rightarrow","leftarrow"],"right_color":"lightblue","left_color":"orange","left_mu":60,"right_mu":68,"left_numbers":[50,60,52,65,58],"right_numbers":[77,66,72,71,73],"points_earned":353,"phase":"task","trial_type":"horizons-task","trial_index":87,"time_elapsed":931540,"internal_node_id":"0.0-83.0","task_version":"0.2"},{"response_times":[546.5900000417605,435.87000004481524,551.7549999058247,371.1899999761954,1392.0199999120086,1007.8000000212342,495.7700000377372,294.78500003460795,318.0700000375509,328.32000008784235],"keys_pressed":["rightarrow","rightarrow","leftarrow","rightarrow","rightarrow","rightarrow","rightarrow","rightarrow","rightarrow","rightarrow"],"horizon":10,"forced_choices":["rightarrow","rightarrow","leftarrow","rightarrow"],"right_color":"orange","left_color":"lightblue","left_mu":60,"right_mu":72,"left_numbers":[55,54,70,59,69,65,62,56,61,59],"right_numbers":[72,79,64,64,80,85,77,68,70,77],"points_earned":742,"phase":"task","trial_type":"horizons-task","trial_index":88,"time_elapsed":938788,"internal_node_id":"0.0-84.0","task_version":"0.2"},{"response_times":[1087.9149999236688,416.70499998144805,489.2799999797717,718.7400000402704,795.990000013262,396.8650000169873,313.9150000642985,199.0549999754876,166.9449999462813,268.9849999733269],"keys_pressed":["leftarrow","rightarrow","rightarrow","leftarrow","leftarrow","leftarrow","leftarrow","leftarrow","leftarrow","leftarrow"],"horizon":10,"forced_choices":["leftarrow","rightarrow","rightarrow","leftarrow"],"right_color":"lightblue","left_color":"orange","left_mu":60,"right_mu":30,"left_numbers":[62,58,67,50,63,59,57,55,70,45],"right_numbers":[27,15,14,47,44,35,36,47,36,20],"points_earned":490,"phase":"task","trial_type":"horizons-task","trial_index":89,"time_elapsed":945150,"internal_node_id":"0.0-85.0","task_version":"0.2"},{"response_times":[884.5100000035018,533.850000007078,456.86499995645136,751.189999980852,2187.470000004396],"keys_pressed":["leftarrow","leftarrow","leftarrow","rightarrow","rightarrow"],"horizon":5,"forced_choices":["leftarrow","leftarrow","leftarrow","rightarrow"],"right_color":"lightblue","left_color":"orange","left_mu":40,"right_mu":60,"left_numbers":[44,36,35,50,37],"right_numbers":[58,50,49,44,54],"points_earned":213,"phase":"task","trial_type":"horizons-task","trial_index":90,"time_elapsed":951468,"internal_node_id":"0.0-86.0","task_version":"0.2"},{"response_times":[549.485000083223,756.0000000521541,400.8849998936057,715.2599999681115,3044.564999989234,615.8149999100715,544.2000000039116,243.4849999845028,223.1799999717623,374.0700000198558],"keys_pressed":["rightarrow","rightarrow","leftarrow","leftarrow","rightarrow","rightarrow","rightarrow","rightarrow","rightarrow","rightarrow"],"horizon":10,"forced_choices":["rightarrow","rightarrow","leftarrow","leftarrow"],"right_color":"orange","left_color":"lightblue","left_mu":60,"right_mu":72,"left_numbers":[71,59,54,56,74,42,64,64,68,66],"right_numbers":[67,58,80,81,58,61,71,75,70,65],"points_earned":635,"phase":"task","trial_type":"horizons-task","trial_index":91,"time_elapsed":960441,"internal_node_id":"0.0-87.0","task_version":"0.2"},{"rt":14851.469999994151,"responses":{"age":"25","gender-categorical":"Female","gender-free-response":"","ethnicity":"Not Hispanic or Latino","race":["Asian"],"language":"No","fluency":"Very well"},"survey":"demographics","trial_type":"survey-demo","trial_index":92,"time_elapsed":975297,"internal_node_id":"0.0-88.0","task_version":"0.2"},{"rt":19212.320000049658,"responses":{"difficulty":"5","fun":"4","clarity":"5","strategy":"no","feedback":""},"survey":"debrief","trial_type":"survey-debrief","trial_index":93,"time_elapsed":994517,"internal_node_id":"0.0-89.0","task_version":"0.2","interactions":"[{\"event\":\"blur\",\"trial\":3,\"time\":174061},{\"event\":\"focus\",\"trial\":3,\"time\":177514},{\"event\":\"blur\",\"trial\":4,\"time\":282525},{\"event\":\"focus\",\"trial\":4,\"time\":288413}]"}]