[{"view_history":"[{\"page_index\":0,\"viewing_time\":1558}]","rt":1560,"trial_type":"instructions","trial_index":0,"time_elapsed":1586,"internal_node_id":"0.0-0.0","task_version":"0.2"},{"item_order":[2,0,10,6,9,11,5,7,3,1,4,8,12],"responses":{"Q03":"1","Q01":"0","Q11":"3","Q07":"1","Q10":"1","Q12":"1","Q06":"1","Q08":"0","Q04":"2","Q02":"2","Q05":"1","Q09":"1","Q13":"4"},"radio_events":[7628,11726.000000000002,16142,20292,22360,25657,28631,31858,35318,37591,41381.00000000001,44915,47279],"key_events":[],"mouse_events":[0,7628,11726.000000000002,16142,20292,22360,25657,28631,31858,35318,37591,41381.00000000001,44915,47279,48376],"rt":48395,"survey":"ius12","trial_type":"survey-template","trial_index":1,"time_elapsed":49987,"internal_node_id":"0.0-1.0","task_version":"0.2"},{"item_order":[7,9,3,2,4,14,6,10,12,11,8,15,0,16,5,1,13],"responses":{"Q08":"1","Q10":"1","Q04":"1","Q03":"1","Q05":"1","Q15":"1","Q07":"1","Q11":"1","Q13":"1","Q12":"1","Q09":"1","Q16":"1","Q01":"2","Q17":"0","Q06":"1","Q02":"1","Q14":"1"},"radio_events":[4225,6257,8150,10699,17100,18996,20448,25233,29352,32671,35247,38358,43373,46567,52199.000000000015,53055,54430],"key_events":[],"mouse_events":[4225,6257,8150,10699,17100,18996,20448,25233,29352,31232.000000000015,32671,34057,35247,38358,43373,46567,51267,52199.000000000015,53055,54430,55442],"rt":55452.000000000015,"survey":"pswq","trial_type":"survey-template","trial_index":2,"time_elapsed":105444,"internal_node_id":"0.0-2.0","task_version":"0.2"},{"item_order":[4,8,7,13,1,2,11,14,9,0,6,15,3,5,12,10],"responses":{"Q05":"3","Q09":"3","Q08":"3","Q14":"2","Q02":"2","Q03":"2","Q12":"3","Q15":"2","Q10":"1","Q01":"1","Q07":"3","Q16":"4","Q04":"3","Q06":"3","Q13":"3","Q11":"2"},"radio_events":[5566,12000,16793.000000000015,20240,24303,29555,35453,37885,40820,45586.00000000003,47577,50838,55160,59244,64230,66231,68952],"key_events":[],"mouse_events":[5566,12000,16793.000000000015,20240,24303,29555,35453,37885,40820,45586.00000000003,47577,50838,55160,59244,64230,66231,68952,70013],"rt":70027,"survey":"nfc","trial_type":"survey-template","trial_index":3,"time_elapsed":175476,"internal_node_id":"0.0-3.0","task_version":"0.2"},{"view_history":"[{\"page_index\":0,\"viewing_time\":3036},{\"page_index\":1,\"viewing_time\":4940},{\"page_index\":2,\"viewing_time\":11483},{\"page_index\":3,\"viewing_time\":7659},{\"page_index\":4,\"viewing_time\":6714},{\"page_index\":5,\"viewing_time\":5000},{\"page_index\":6,\"viewing_time\":6347},{\"page_index\":7,\"viewing_time\":7210},{\"page_index\":8,\"viewing_time\":6218},{\"page_index\":9,\"viewing_time\":9591}]","rt":68198,"trial_type":"instructions","trial_index":4,"time_elapsed":243676,"internal_node_id":"0.0-4.0-0.0","task_version":"0.2"},{"response_times":[1618,1248,537,2414,1353],"keys_pressed":["rightarrow","leftarrow","rightarrow","rightarrow","leftarrow"],"horizon":5,"forced_choices":["rightarrow","leftarrow","rightarrow","rightarrow"],"right_color":"lightblue","left_color":"orange","left_mu":40,"right_mu":20,"left_numbers":[44,52,35,48,38],"right_numbers":[7,13,21,19,21],"points_earned":137,"phase":"practice","trial_type":"horizons-task","trial_index":5,"time_elapsed":252354,"internal_node_id":"0.0-4.0-1.0","task_version":"0.2"},{"response_times":[1506,764,630.9999999999709,858.9999999999709,1556.0000000000582,1519,1389.999999999971,1535,1286,1769],"keys_pressed":["leftarrow","leftarrow","rightarrow","rightarrow","leftarrow","leftarrow","rightarrow","rightarrow","leftarrow","leftarrow"],"horizon":10,"forced_choices":["leftarrow","leftarrow","rightarrow","rightarrow"],"right_color":"orange","left_color":"lightblue","left_mu":60,"right_mu":70,"left_numbers":[61,51,62,72,59,54,55,56,70,59],"right_numbers":[73,67,86,83,74,68,63,77,67,79],"points_earned":663,"phase":"practice","trial_type":"horizons-task","trial_index":6,"time_elapsed":266672,"internal_node_id":"0.0-4.0-2.0","task_version":"0.2"},{"view_history":"[{\"page_index\":0,\"viewing_time\":2480},{\"page_index\":1,\"viewing_time\":4149},{\"page_index\":2,\"viewing_time\":10377},{\"page_index\":3,\"viewing_time\":5089}]","rt":22095,"trial_type":"instructions","trial_index":7,"time_elapsed":288768,"internal_node_id":"0.0-4.0-3.0","task_version":"0.2"},{"responses":["false","false","true"],"num_errors":1,"rt":10095,"trial_type":"horizons-comprehension","trial_index":8,"time_elapsed":298865,"internal_node_id":"0.0-4.0-4.0","task_version":"0.2"},{"view_history":"[{\"page_index\":0,\"viewing_time\":2014.0000000000582},{\"page_index\":1,\"viewing_time\":3797.999999999942},{\"page_index\":2,\"viewing_time\":7256},{\"page_index\":3,\"viewing_time\":7025},{\"page_index\":4,\"viewing_time\":7368},{\"page_index\":5,\"viewing_time\":5216},{\"page_index\":6,\"viewing_time\":1165},{\"page_index\":7,\"viewing_time\":2533},{\"page_index\":8,\"viewing_time\":1123},{\"page_index\":9,\"viewing_time\":1306}]","rt":38804,"trial_type":"instructions","trial_index":9,"time_elapsed":337673,"internal_node_id":"0.0-4.1-0.1","task_version":"0.2"},{"response_times":[1154,606.0000000000582,436.9999999999418,805,2389],"keys_pressed":["rightarrow","leftarrow","rightarrow","rightarrow","leftarrow"],"horizon":5,"forced_choices":["rightarrow","leftarrow","rightarrow","rightarrow"],"right_color":"lightblue","left_color":"orange","left_mu":40,"right_mu":20,"left_numbers":[22,42,31,29,25],"right_numbers":[13,18,22,25,25],"points_earned":127,"phase":"practice","trial_type":"horizons-task","trial_index":10,"time_elapsed":344569,"internal_node_id":"0.0-4.1-1.1","task_version":"0.2"},{"response_times":[1058,747,1342,794,2148,1119,982,853,647,587],"keys_pressed":["leftarrow","leftarrow","rightarrow","rightarrow","rightarrow","rightarrow","rightarrow","rightarrow","rightarrow","rightarrow"],"horizon":10,"forced_choices":["leftarrow","leftarrow","rightarrow","rightarrow"],"right_color":"orange","left_color":"lightblue","left_mu":60,"right_mu":70,"left_numbers":[71,66,77,52,56,57,60,61,59,55],"right_numbers":[72,64,63,71,79,85,70,73,74,66],"points_earned":718,"phase":"practice","trial_type":"horizons-task","trial_index":11,"time_elapsed":356350,"internal_node_id":"0.0-4.1-2.1","task_version":"0.2"},{"view_history":"[{\"page_index\":0,\"viewing_time\":1927},{\"page_index\":1,\"viewing_time\":1800},{\"page_index\":2,\"viewing_time\":1175},{\"page_index\":3,\"viewing_time\":951}]","rt":5853,"trial_type":"instructions","trial_index":12,"time_elapsed":362204,"internal_node_id":"0.0-4.1-3.1","task_version":"0.2"},{"responses":["true","false","true"],"num_errors":0,"rt":9847,"trial_type":"horizons-comprehension","trial_index":13,"time_elapsed":372056,"internal_node_id":"0.0-4.1-4.1","task_version":"0.2"},{"trial_type":"call-function","trial_index":14,"time_elapsed":372059,"internal_node_id":"0.0-5.0","task_version":"0.2"},{"view_history":"[{\"page_index\":0,\"viewing_time\":1331},{\"page_index\":1,\"viewing_time\":4867.000000000058}]","rt":6198.000000000058,"trial_type":"instructions","trial_index":15,"time_elapsed":378258,"internal_node_id":"0.0-6.0","task_version":"0.2"},{"response_times":[2397.000000000058,1141,1082,891,5935],"keys_pressed":["leftarrow","rightarrow","rightarrow","leftarrow","leftarrow"],"horizon":5,"forced_choices":["leftarrow","rightarrow","rightarrow","leftarrow"],"right_color":"orange","left_color":"lightblue","left_mu":40,"right_mu":48,"left_numbers":[45,40,33,38,50],"right_numbers":[49,36,47,37,42],"points_earned":216,"phase":"task","trial_type":"horizons-task","trial_index":16,"time_elapsed":391214,"internal_node_id":"0.0-7.0","task_version":"0.2"},{"response_times":[1198,720,692,684,3413,2645.000000000058,1214,1063.9999999999418,1173,781],"keys_pressed":["rightarrow","leftarrow","leftarrow","leftarrow","rightarrow","leftarrow","leftarrow","rightarrow","rightarrow","rightarrow"],"horizon":10,"forced_choices":["rightarrow","leftarrow","leftarrow","leftarrow"],"right_color":"orange","left_color":"lightblue","left_mu":40,"right_mu":48,"left_numbers":[37,31,50,42,45,34,44,49,22,51],"right_numbers":[51,44,43,37,34,44,51,48,47,45],"points_earned":426,"phase":"task","trial_type":"horizons-task","trial_index":17,"time_elapsed":406301,"internal_node_id":"0.0-8.0","task_version":"0.2"},{"response_times":[1066,1070,604,667,1819,2367.000000000058,1127.9999999999418,729,654.0000000000582,610.9999999999418],"keys_pressed":["rightarrow","leftarrow","leftarrow","rightarrow","rightarrow","leftarrow","rightarrow","rightarrow","rightarrow","rightarrow"],"horizon":10,"forced_choices":["rightarrow","leftarrow","leftarrow","rightarrow"],"right_color":"lightblue","left_color":"orange","left_mu":60,"right_mu":64,"left_numbers":[60,57,57,57,70,61,57,52,50,50],"right_numbers":[60,69,63,71,62,68,71,67,70,64],"points_earned":640,"phase":"task","trial_type":"horizons-task","trial_index":18,"time_elapsed":418520,"internal_node_id":"0.0-9.0","task_version":"0.2"},{"response_times":[1084,583,524,838,1580],"keys_pressed":["rightarrow","leftarrow","leftarrow","leftarrow","rightarrow"],"horizon":5,"forced_choices":["rightarrow","leftarrow","leftarrow","leftarrow"],"right_color":"lightblue","left_color":"orange","left_mu":60,"right_mu":90,"left_numbers":[53,48,52,52,72],"right_numbers":[99,83,92,105,86],"points_earned":337,"phase":"task","trial_type":"horizons-task","trial_index":19,"time_elapsed":424634,"internal_node_id":"0.0-10.0","task_version":"0.2"},{"response_times":[742,1144,548,558,2861,901,1006.0000000000582,1014.9999999999418,506,449],"keys_pressed":["rightarrow","leftarrow","leftarrow","rightarrow","rightarrow","rightarrow","rightarrow","rightarrow","rightarrow","rightarrow"],"horizon":10,"forced_choices":["rightarrow","leftarrow","leftarrow","rightarrow"],"right_color":"lightblue","left_color":"orange","left_mu":60,"right_mu":80,"left_numbers":[58,87,59,76,58,73,49,68,57,62],"right_numbers":[83,71,77,85,84,76,78,76,93,91],"points_earned":812,"phase":"task","trial_type":"horizons-task","trial_index":20,"time_elapsed":435869,"internal_node_id":"0.0-11.0","task_version":"0.2"},{"response_times":[1616,764,625,637,1490],"keys_pressed":["rightarrow","rightarrow","leftarrow","rightarrow","leftarrow"],"horizon":5,"forced_choices":["rightarrow","rightarrow","leftarrow","rightarrow"],"right_color":"lightblue","left_color":"orange","left_mu":60,"right_mu":56,"left_numbers":[68,45,64,71,65],"right_numbers":[39,51,66,54,52],"points_earned":273,"phase":"task","trial_type":"horizons-task","trial_index":21,"time_elapsed":442505,"internal_node_id":"0.0-12.0","task_version":"0.2"},{"response_times":[945,645.0000000000582,786,704.9999999999418,1622.0000000000582,1620,1000,1120.9999999999418,667,546],"keys_pressed":["rightarrow","leftarrow","rightarrow","rightarrow","leftarrow","rightarrow","leftarrow","rightarrow","rightarrow","rightarrow"],"horizon":10,"forced_choices":["rightarrow","leftarrow","rightarrow","rightarrow"],"right_color":"lightblue","left_color":"orange","left_mu":60,"right_mu":64,"left_numbers":[75,83,67,62,62,56,49,65,64,49],"right_numbers":[81,66,60,71,50,64,63,65,53,47],"points_earned":635,"phase":"task","trial_type":"horizons-task","trial_index":22,"time_elapsed":453666,"internal_node_id":"0.0-13.0","task_version":"0.2"},{"response_times":[962,709,590.9999999999418,597,2612,1138,804,541,985,781],"keys_pressed":["rightarrow","rightarrow","leftarrow","leftarrow","leftarrow","rightarrow","rightarrow","rightarrow","rightarrow","rightarrow"],"horizon":10,"forced_choices":["rightarrow","rightarrow","leftarrow","leftarrow"],"right_color":"orange","left_color":"lightblue","left_mu":60,"right_mu":68,"left_numbers":[69,66,57,42,62,75,48,60,68,63],"right_numbers":[68,70,72,64,57,67,63,56,78,84],"points_earned":647,"phase":"task","trial_type":"horizons-task","trial_index":23,"time_elapsed":464893,"internal_node_id":"0.0-14.0","task_version":"0.2"},{"response_times":[1029,642,607,722,2495.999999999942],"keys_pressed":["leftarrow","leftarrow","rightarrow","leftarrow","rightarrow"],"horizon":5,"forced_choices":["leftarrow","leftarrow","rightarrow","leftarrow"],"right_color":"lightblue","left_color":"orange","left_mu":40,"right_mu":32,"left_numbers":[53,53,41,26,48],"right_numbers":[33,36,45,38,30],"points_earned":207,"phase":"task","trial_type":"horizons-task","trial_index":24,"time_elapsed":471899,"internal_node_id":"0.0-15.0","task_version":"0.2"},{"response_times":[1062.9999999999418,620,551,524,2103,777,616,472,490.0000000000582,436.9999999999418],"keys_pressed":["rightarrow","leftarrow","leftarrow","rightarrow","rightarrow","leftarrow","leftarrow","leftarrow","leftarrow","leftarrow"],"horizon":10,"forced_choices":["rightarrow","leftarrow","leftarrow","rightarrow"],"right_color":"orange","left_color":"lightblue","left_mu":60,"right_mu":30,"left_numbers":[68,60,63,56,58,68,65,55,56,62],"right_numbers":[26,38,26,37,19,34,35,35,27,14],"points_earned":511,"phase":"task","trial_type":"horizons-task","trial_index":25,"time_elapsed":481055,"internal_node_id":"0.0-16.0","task_version":"0.2"},{"response_times":[1012,546,560,856,1877,680,1129.0000000000582,1200.9999999999418,608,554.0000000000582],"keys_pressed":["leftarrow","leftarrow","rightarrow","rightarrow","rightarrow","leftarrow","leftarrow","rightarrow","leftarrow","leftarrow"],"horizon":10,"forced_choices":["leftarrow","leftarrow","rightarrow","rightarrow"],"right_color":"orange","left_color":"lightblue","left_mu":40,"right_mu":36,"left_numbers":[28,47,33,45,24,58,43,33,51,27],"right_numbers":[32,24,38,40,32,39,42,43,29,29],"points_earned":407,"phase":"task","trial_type":"horizons-task","trial_index":26,"time_elapsed":491581,"internal_node_id":"0.0-17.0","task_version":"0.2"},{"response_times":[958,924,674,747,1940],"keys_pressed":["rightarrow","leftarrow","leftarrow","rightarrow","leftarrow"],"horizon":5,"forced_choices":["rightarrow","leftarrow","leftarrow","rightarrow"],"right_color":"orange","left_color":"lightblue","left_mu":60,"right_mu":30,"left_numbers":[64,75,44,65,57],"right_numbers":[32,39,20,31,32],"points_earned":239,"phase":"task","trial_type":"horizons-task","trial_index":27,"time_elapsed":498327,"internal_node_id":"0.0-18.0","task_version":"0.2"},{"response_times":[1201,548,564,538,1676,577,642,596,407,577],"keys_pressed":["rightarrow","rightarrow","leftarrow","rightarrow","leftarrow","leftarrow","leftarrow","leftarrow","leftarrow","leftarrow"],"horizon":10,"forced_choices":["rightarrow","rightarrow","leftarrow","rightarrow"],"right_color":"orange","left_color":"lightblue","left_mu":60,"right_mu":48,"left_numbers":[71,56,63,67,55,56,61,64,65,44],"right_numbers":[47,45,33,39,45,54,39,58,47,55],"points_earned":539,"phase":"task","trial_type":"horizons-task","trial_index":28,"time_elapsed":507156,"internal_node_id":"0.0-19.0","task_version":"0.2"},{"response_times":[1561.9999999999418,778,498,620,1445.0000000000582],"keys_pressed":["rightarrow","rightarrow","leftarrow","rightarrow","leftarrow"],"horizon":5,"forced_choices":["rightarrow","rightarrow","leftarrow","rightarrow"],"right_color":"orange","left_color":"lightblue","left_mu":60,"right_mu":48,"left_numbers":[47,58,66,59,65],"right_numbers":[58,55,45,39,35],"points_earned":283,"phase":"task","trial_type":"horizons-task","trial_index":29,"time_elapsed":513562,"internal_node_id":"0.0-20.0","task_version":"0.2"},{"response_times":[938.0000000001164,484.9999999998836,634,465.9999999998836,2397.000000000058,658,1237,468.0000000000582,496,382.9999999999418],"keys_pressed":["leftarrow","rightarrow","rightarrow","leftarrow","rightarrow","leftarrow","rightarrow","rightarrow","rightarrow","rightarrow"],"horizon":10,"forced_choices":["leftarrow","rightarrow","rightarrow","leftarrow"],"right_color":"orange","left_color":"lightblue","left_mu":40,"right_mu":60,"left_numbers":[30,33,47,32,49,51,40,43,42,32],"right_numbers":[53,47,40,66,57,57,54,69,58,58],"points_earned":496,"phase":"task","trial_type":"horizons-task","trial_index":30,"time_elapsed":523229,"internal_node_id":"0.0-21.0","task_version":"0.2"},{"response_times":[831,643.0000000001164,521.9999999998836,837,1451,460,382,363,409,407],"keys_pressed":["rightarrow","rightarrow","rightarrow","leftarrow","rightarrow","rightarrow","rightarrow","rightarrow","rightarrow","rightarrow"],"horizon":10,"forced_choices":["rightarrow","rightarrow","rightarrow","leftarrow"],"right_color":"lightblue","left_color":"orange","left_mu":60,"right_mu":80,"left_numbers":[61,45,82,64,53,40,63,67,65,49],"right_numbers":[82,91,82,76,75,72,92,71,76,84],"points_earned":789,"phase":"task","trial_type":"horizons-task","trial_index":31,"time_elapsed":531038,"internal_node_id":"0.0-22.0","task_version":"0.2"},{"response_times":[870,510,618,520,2037],"keys_pressed":["leftarrow","leftarrow","leftarrow","rightarrow","rightarrow"],"horizon":5,"forced_choices":["leftarrow","leftarrow","leftarrow","rightarrow"],"right_color":"lightblue","left_color":"orange","left_mu":60,"right_mu":72,"left_numbers":[63,53,63,48,48],"right_numbers":[61,73,82,65,72],"points_earned":316,"phase":"task","trial_type":"horizons-task","trial_index":32,"time_elapsed":537098,"internal_node_id":"0.0-23.0","task_version":"0.2"},{"response_times":[955.0000000001164,510,663,672.0000000001164,1315.9999999998836],"keys_pressed":["rightarrow","leftarrow","leftarrow","leftarrow","rightarrow"],"horizon":5,"forced_choices":["rightarrow","leftarrow","leftarrow","leftarrow"],"right_color":"orange","left_color":"lightblue","left_mu":40,"right_mu":48,"left_numbers":[41,30,41,46,32],"right_numbers":[63,49,44,54,47],"points_earned":227,"phase":"task","trial_type":"horizons-task","trial_index":33,"time_elapsed":542719,"internal_node_id":"0.0-24.0","task_version":"0.2"},{"response_times":[828,579.0000000001164,533.9999999998836,578,1118,1236,714,568,400.0000000001164,415.9999999998836],"keys_pressed":["rightarrow","rightarrow","leftarrow","rightarrow","leftarrow","rightarrow","rightarrow","rightarrow","rightarrow","rightarrow"],"horizon":10,"forced_choices":["rightarrow","rightarrow","leftarrow","rightarrow"],"right_color":"lightblue","left_color":"orange","left_mu":60,"right_mu":56,"left_numbers":[53,68,54,55,56,61,70,47,45,55],"right_numbers":[62,68,65,50,62,42,55,58,71,49],"points_earned":565,"phase":"task","trial_type":"horizons-task","trial_index":34,"time_elapsed":551195,"internal_node_id":"0.0-25.0","task_version":"0.2"},{"response_times":[651.0000000001164,616,652,516,2072,659,384,441,331,495],"keys_pressed":["leftarrow","leftarrow","leftarrow","rightarrow","rightarrow","leftarrow","leftarrow","leftarrow","leftarrow","leftarrow"],"horizon":10,"forced_choices":["leftarrow","leftarrow","leftarrow","rightarrow"],"right_color":"orange","left_color":"lightblue","left_mu":40,"right_mu":10,"left_numbers":[39,50,54,38,43,48,18,38,40,27],"right_numbers":[0,28,7,4,10,27,5,12,2,19],"points_earned":328,"phase":"task","trial_type":"horizons-task","trial_index":35,"time_elapsed":559518,"internal_node_id":"0.0-26.0","task_version":"0.2"},{"response_times":[631,567,639,545,1268,1324,549,381,328,427],"keys_pressed":["leftarrow","rightarrow","rightarrow","rightarrow","leftarrow","leftarrow","leftarrow","leftarrow","leftarrow","leftarrow"],"horizon":10,"forced_choices":["leftarrow","rightarrow","rightarrow","rightarrow"],"right_color":"lightblue","left_color":"orange","left_mu":60,"right_mu":40,"left_numbers":[52,67,49,61,56,45,76,66,78,65],"right_numbers":[44,34,28,41,44,43,47,34,41,38],"points_earned":541,"phase":"task","trial_type":"horizons-task","trial_index":36,"time_elapsed":567696,"internal_node_id":"0.0-27.0","task_version":"0.2"},{"response_times":[944,885.0000000001164,482,1286.0000000001164,867.9999999998836],"keys_pressed":["rightarrow","leftarrow","rightarrow","rightarrow","leftarrow"],"horizon":5,"forced_choices":["rightarrow","leftarrow","rightarrow","rightarrow"],"right_color":"lightblue","left_color":"orange","left_mu":60,"right_mu":64,"left_numbers":[66,73,58,63,76],"right_numbers":[61,56,59,59,77],"points_earned":328,"phase":"task","trial_type":"horizons-task","trial_index":37,"time_elapsed":573666,"internal_node_id":"0.0-28.0","task_version":"0.2"},{"response_times":[847,513,538,548,1632,618,440,348.0000000001164,431.9999999998836,370],"keys_pressed":["rightarrow","leftarrow","rightarrow","leftarrow","leftarrow","leftarrow","leftarrow","leftarrow","leftarrow","leftarrow"],"horizon":10,"forced_choices":["rightarrow","leftarrow","rightarrow","leftarrow"],"right_color":"lightblue","left_color":"orange","left_mu":60,"right_mu":56,"left_numbers":[69,58,80,66,67,60,47,61,53,47],"right_numbers":[57,40,45,53,57,53,52,53,59,51],"points_earned":561,"phase":"task","trial_type":"horizons-task","trial_index":38,"time_elapsed":581454,"internal_node_id":"0.0-29.0","task_version":"0.2"},{"response_times":[769,559,1833,960,1405,549,360,337,325,343],"keys_pressed":["rightarrow","leftarrow","leftarrow","rightarrow","rightarrow","rightarrow","rightarrow","rightarrow","rightarrow","rightarrow"],"horizon":10,"forced_choices":["rightarrow","leftarrow","leftarrow","rightarrow"],"right_color":"lightblue","left_color":"orange","left_mu":60,"right_mu":90,"left_numbers":[52,66,57,70,57,39,51,70,66,55],"right_numbers":[82,99,91,99,84,80,86,86,89,87],"points_earned":816,"phase":"task","trial_type":"horizons-task","trial_index":39,"time_elapsed":590397,"internal_node_id":"0.0-30.0","task_version":"0.2"},{"response_times":[919,471,507.0000000001164,827,1070.9999999998836],"keys_pressed":["leftarrow","leftarrow","rightarrow","leftarrow","leftarrow"],"horizon":5,"forced_choices":["leftarrow","leftarrow","rightarrow","leftarrow"],"right_color":"orange","left_color":"lightblue","left_mu":60,"right_mu":30,"left_numbers":[57,63,64,60,55],"right_numbers":[32,23,41,43,18],"points_earned":276,"phase":"task","trial_type":"horizons-task","trial_index":40,"time_elapsed":595696,"internal_node_id":"0.0-31.0","task_version":"0.2"},{"response_times":[771,536,494,469,1068,902,554,391,379,455],"keys_pressed":["leftarrow","leftarrow","leftarrow","rightarrow","rightarrow","rightarrow","rightarrow","rightarrow","rightarrow","rightarrow"],"horizon":10,"forced_choices":["leftarrow","leftarrow","leftarrow","rightarrow"],"right_color":"lightblue","left_color":"orange","left_mu":60,"right_mu":72,"left_numbers":[60,54,63,63,78,61,59,62,33,83],"right_numbers":[77,74,71,81,64,91,65,70,71,71],"points_earned":690,"phase":"task","trial_type":"horizons-task","trial_index":41,"time_elapsed":603219,"internal_node_id":"0.0-32.0","task_version":"0.2"},{"response_times":[663,541,591,840,2504,452,326,500,340,332],"keys_pressed":["leftarrow","rightarrow","leftarrow","rightarrow","rightarrow","rightarrow","rightarrow","rightarrow","rightarrow","rightarrow"],"horizon":10,"forced_choices":["leftarrow","rightarrow","leftarrow","rightarrow"],"right_color":"lightblue","left_color":"orange","left_mu":60,"right_mu":72,"left_numbers":[47,72,63,58,64,81,76,60,56,52],"right_numbers":[67,79,78,72,66,73,76,77,67,71],"points_earned":691,"phase":"task","trial_type":"horizons-task","trial_index":42,"time_elapsed":611814,"internal_node_id":"0.0-33.0","task_version":"0.2"},{"response_times":[811,533,542,681,1789],"keys_pressed":["rightarrow","rightarrow","leftarrow","leftarrow","rightarrow"],"horizon":5,"forced_choices":["rightarrow","rightarrow","leftarrow","leftarrow"],"right_color":"orange","left_color":"lightblue","left_mu":60,"right_mu":68,"left_numbers":[69,70,53,42,61],"right_numbers":[70,70,59,72,81],"points_earned":316,"phase":"task","trial_type":"horizons-task","trial_index":43,"time_elapsed":617672,"internal_node_id":"0.0-34.0","task_version":"0.2"},{"response_times":[664,482.0000000001164,608.9999999998836,524,1539,460,279,405,306,331],"keys_pressed":["rightarrow","leftarrow","leftarrow","leftarrow","rightarrow","rightarrow","rightarrow","rightarrow","rightarrow","rightarrow"],"horizon":10,"forced_choices":["rightarrow","leftarrow","leftarrow","leftarrow"],"right_color":"lightblue","left_color":"orange","left_mu":60,"right_mu":90,"left_numbers":[39,50,69,43,57,46,58,64,50,56],"right_numbers":[94,102,98,84,89,94,97,96,98,88],"points_earned":818,"phase":"task","trial_type":"horizons-task","trial_index":44,"time_elapsed":624775,"internal_node_id":"0.0-35.0","task_version":"0.2"},{"response_times":[781.9999999998836,757,506,710,578],"keys_pressed":["rightarrow","rightarrow","leftarrow","rightarrow","rightarrow"],"horizon":5,"forced_choices":["rightarrow","rightarrow","leftarrow","rightarrow"],"right_color":"orange","left_color":"lightblue","left_mu":40,"right_mu":52,"left_numbers":[39,37,39,28,40],"right_numbers":[51,44,64,59,47],"points_earned":240,"phase":"task","trial_type":"horizons-task","trial_index":45,"time_elapsed":629610,"internal_node_id":"0.0-36.0","task_version":"0.2"},{"response_times":[1116,523,524,710,1710.0000000001164],"keys_pressed":["leftarrow","rightarrow","leftarrow","rightarrow","leftarrow"],"horizon":5,"forced_choices":["leftarrow","rightarrow","leftarrow","rightarrow"],"right_color":"orange","left_color":"lightblue","left_mu":40,"right_mu":20,"left_numbers":[35,38,37,29,41],"right_numbers":[30,31,12,17,21],"points_earned":161,"phase":"task","trial_type":"horizons-task","trial_index":46,"time_elapsed":635697,"internal_node_id":"0.0-37.0","task_version":"0.2"},{"response_times":[1038,535,463,602,1149,446,333,264,484,361],"keys_pressed":["leftarrow","leftarrow","rightarrow","leftarrow","leftarrow","leftarrow","leftarrow","leftarrow","leftarrow","leftarrow"],"horizon":10,"forced_choices":["leftarrow","leftarrow","rightarrow","leftarrow"],"right_color":"orange","left_color":"lightblue","left_mu":60,"right_mu":30,"left_numbers":[59,53,41,52,72,61,50,67,70,57],"right_numbers":[31,30,32,46,17,40,29,22,23,39],"points_earned":573,"phase":"task","trial_type":"horizons-task","trial_index":47,"time_elapsed":642877,"internal_node_id":"0.0-38.0","task_version":"0.2"},{"response_times":[747,680.0000000001164,461.9999999998836,568,1007,322,239,290,281,246],"keys_pressed":["leftarrow","rightarrow","leftarrow","rightarrow","leftarrow","leftarrow","leftarrow","leftarrow","leftarrow","leftarrow"],"horizon":10,"forced_choices":["leftarrow","rightarrow","leftarrow","rightarrow"],"right_color":"orange","left_color":"lightblue","left_mu":40,"right_mu":20,"left_numbers":[42,41,53,39,36,47,28,33,42,43],"right_numbers":[9,32,30,25,25,25,26,16,19,14],"points_earned":381,"phase":"task","trial_type":"horizons-task","trial_index":48,"time_elapsed":649223,"internal_node_id":"0.0-39.0","task_version":"0.2"},{"response_times":[708.9999999998836,654,495,613.0000000001164,1210.9999999998836],"keys_pressed":["rightarrow","rightarrow","leftarrow","leftarrow","rightarrow"],"horizon":5,"forced_choices":["rightarrow","rightarrow","leftarrow","leftarrow"],"right_color":"lightblue","left_color":"orange","left_mu":40,"right_mu":32,"left_numbers":[34,37,32,43,39],"right_numbers":[37,39,36,26,35],"points_earned":186,"phase":"task","trial_type":"horizons-task","trial_index":49,"time_elapsed":654407,"internal_node_id":"0.0-40.0","task_version":"0.2"},{"response_times":[868.0000000001164,606.9999999998836,594,512,1115],"keys_pressed":["rightarrow","rightarrow","leftarrow","leftarrow","leftarrow"],"horizon":5,"forced_choices":["rightarrow","rightarrow","leftarrow","leftarrow"],"right_color":"lightblue","left_color":"orange","left_mu":60,"right_mu":52,"left_numbers":[62,68,51,56,61],"right_numbers":[44,35,70,53,49],"points_earned":247,"phase":"task","trial_type":"horizons-task","trial_index":50,"time_elapsed":659607,"internal_node_id":"0.0-41.0","task_version":"0.2"},{"response_times":[627,541.0000000001164,587.9999999998836,970,721.0000000001164],"keys_pressed":["leftarrow","rightarrow","rightarrow","leftarrow","leftarrow"],"horizon":5,"forced_choices":["leftarrow","rightarrow","rightarrow","leftarrow"],"right_color":"orange","left_color":"lightblue","left_mu":40,"right_mu":10,"left_numbers":[42,48,37,51,40],"right_numbers":[26,4,19,0,16],"points_earned":156,"phase":"task","trial_type":"horizons-task","trial_index":51,"time_elapsed":664558,"internal_node_id":"0.0-42.0","task_version":"0.2"},{"response_times":[639,437,713.0000000001164,649,1219.9999999998836,890,555,388.0000000001164,327.9999999998836,328],"keys_pressed":["leftarrow","rightarrow","rightarrow","rightarrow","leftarrow","rightarrow","rightarrow","rightarrow","rightarrow","rightarrow"],"horizon":10,"forced_choices":["leftarrow","rightarrow","rightarrow","rightarrow"],"right_color":"lightblue","left_color":"orange","left_mu":40,"right_mu":44,"left_numbers":[44,45,45,46,23,38,34,31,44,49],"right_numbers":[48,40,53,37,43,46,52,41,36,43],"points_earned":415,"phase":"task","trial_type":"horizons-task","trial_index":52,"time_elapsed":672208,"internal_node_id":"0.0-43.0","task_version":"0.2"},{"response_times":[1223,666.0000000001164,1880,1328.9999999998836,870,395,329.0000000001164,327.9999999998836,333,356],"keys_pressed":["rightarrow","leftarrow","leftarrow","leftarrow","rightarrow","rightarrow","rightarrow","rightarrow","rightarrow","rightarrow"],"horizon":10,"forced_choices":["rightarrow","leftarrow","leftarrow","leftarrow"],"right_color":"orange","left_color":"lightblue","left_mu":40,"right_mu":70,"left_numbers":[33,46,30,40,36,33,48,38,32,48],"right_numbers":[74,60,78,64,68,59,58,79,70,64],"points_earned":588,"phase":"task","trial_type":"horizons-task","trial_index":53,"time_elapsed":681421,"internal_node_id":"0.0-44.0","task_version":"0.2"},{"response_times":[938,741,893,2195,537,317,267,203,290,502.0000000001164],"keys_pressed":["leftarrow","rightarrow","rightarrow","leftarrow","leftarrow","leftarrow","leftarrow","leftarrow","leftarrow","leftarrow"],"horizon":10,"forced_choices":["leftarrow","rightarrow","rightarrow","leftarrow"],"right_color":"orange","left_color":"lightblue","left_mu":40,"right_mu":10,"left_numbers":[46,20,18,38,42,48,28,40,34,41],"right_numbers":[5,1,8,12,17,5,8,19,1,7],"points_earned":326,"phase":"task","trial_type":"horizons-task","trial_index":54,"time_elapsed":689807,"internal_node_id":"0.0-45.0","task_version":"0.2"},{"response_times":[1354,487,843,659,2205,605,699,469,553,443],"keys_pressed":["leftarrow","rightarrow","rightarrow","leftarrow","rightarrow","rightarrow","leftarrow","leftarrow","leftarrow","leftarrow"],"horizon":10,"forced_choices":["leftarrow","rightarrow","rightarrow","leftarrow"],"right_color":"orange","left_color":"lightblue","left_mu":40,"right_mu":48,"left_numbers":[32,44,47,39,34,27,45,54,41,40],"right_numbers":[57,55,28,66,43,32,41,43,48,56],"points_earned":409,"phase":"task","trial_type":"horizons-task","trial_index":55,"time_elapsed":699628,"internal_node_id":"0.0-46.0","task_version":"0.2"},{"view_history":"[{\"page_index\":0,\"viewing_time\":30033},{\"page_index\":1,\"viewing_time\":8261}]","rt":38295,"trial_type":"instructions","trial_index":56,"time_elapsed":737924,"internal_node_id":"0.0-47.0","task_version":"0.2"},{"response_times":[676,351,426,472.0000000001164,815.9999999998836],"keys_pressed":["leftarrow","rightarrow","leftarrow","leftarrow","leftarrow"],"horizon":5,"forced_choices":["leftarrow","rightarrow","leftarrow","leftarrow"],"right_color":"lightblue","left_color":"orange","left_mu":60,"right_mu":52,"left_numbers":[58,52,56,49,54],"right_numbers":[60,50,41,50,49],"points_earned":267,"phase":"task","trial_type":"horizons-task","trial_index":57,"time_elapsed":742172,"internal_node_id":"0.0-48.0","task_version":"0.2"},{"response_times":[617,625,677,838,1592.0000000001164,989.9999999998836,731.0000000001164,335.9999999998836,399,354],"keys_pressed":["leftarrow","leftarrow","rightarrow","leftarrow","rightarrow","rightarrow","leftarrow","leftarrow","leftarrow","leftarrow"],"horizon":10,"forced_choices":["leftarrow","leftarrow","rightarrow","leftarrow"],"right_color":"lightblue","left_color":"orange","left_mu":40,"right_mu":32,"left_numbers":[45,27,50,33,50,36,36,34,42,48],"right_numbers":[26,36,28,26,38,26,31,28,16,42],"points_earned":357,"phase":"task","trial_type":"horizons-task","trial_index":58,"time_elapsed":750833,"internal_node_id":"0.0-49.0","task_version":"0.2"},{"response_times":[670,528,471,479,1138],"keys_pressed":["leftarrow","leftarrow","leftarrow","rightarrow","leftarrow"],"horizon":5,"forced_choices":["leftarrow","leftarrow","leftarrow","rightarrow"],"right_color":"orange","left_color":"lightblue","left_mu":40,"right_mu":10,"left_numbers":[44,45,56,39,41],"right_numbers":[0,3,11,5,8],"points_earned":191,"phase":"task","trial_type":"horizons-task","trial_index":59,"time_elapsed":755622,"internal_node_id":"0.0-50.0","task_version":"0.2"},{"response_times":[662.9999999998836,498,602,509,779,277,244.00000000011642,429.9999999998836,224.00000000011642,276.9999999998836],"keys_pressed":["rightarrow","rightarrow","leftarrow","rightarrow","rightarrow","rightarrow","rightarrow","rightarrow","rightarrow","rightarrow"],"horizon":10,"forced_choices":["rightarrow","rightarrow","leftarrow","rightarrow"],"right_color":"orange","left_color":"lightblue","left_mu":40,"right_mu":52,"left_numbers":[38,35,36,31,47,41,39,35,35,41],"right_numbers":[51,52,66,53,45,57,60,44,52,41],"points_earned":491,"phase":"task","trial_type":"horizons-task","trial_index":60,"time_elapsed":761627,"internal_node_id":"0.0-51.0","task_version":"0.2"},{"response_times":[831.9999999998836,451,481,1227,909,227,215,191,206.00000000011642,166.99999999988358],"keys_pressed":["rightarrow","leftarrow","rightarrow","leftarrow","leftarrow","leftarrow","leftarrow","leftarrow","leftarrow","leftarrow"],"horizon":10,"forced_choices":["rightarrow","leftarrow","rightarrow","leftarrow"],"right_color":"lightblue","left_color":"orange","left_mu":40,"right_mu":28,"left_numbers":[36,41,43,36,36,36,44,44,49,42],"right_numbers":[27,37,24,12,23,27,23,24,25,29],"points_earned":379,"phase":"task","trial_type":"horizons-task","trial_index":61,"time_elapsed":768037,"internal_node_id":"0.0-52.0","task_version":"0.2"},{"response_times":[740,692,638,690,1634,279,274,242,284,376],"keys_pressed":["rightarrow","leftarrow","rightarrow","rightarrow","rightarrow","rightarrow","rightarrow","rightarrow","rightarrow","rightarrow"],"horizon":10,"forced_choices":["rightarrow","leftarrow","rightarrow","rightarrow"],"right_color":"orange","left_color":"lightblue","left_mu":40,"right_mu":60,"left_numbers":[34,38,44,38,45,51,30,32,47,40],"right_numbers":[62,57,56,62,62,79,54,63,57,65],"points_earned":598,"phase":"task","trial_type":"horizons-task","trial_index":62,"time_elapsed":775389,"internal_node_id":"0.0-53.0","task_version":"0.2"},{"response_times":[632.0000000001164,388.9999999998836,467.0000000001164,1256.9999999998836,3972],"keys_pressed":["leftarrow","rightarrow","leftarrow","rightarrow","rightarrow"],"horizon":5,"forced_choices":["leftarrow","rightarrow","leftarrow","rightarrow"],"right_color":"orange","left_color":"lightblue","left_mu":60,"right_mu":48,"left_numbers":[45,56,62,70,62],"right_numbers":[42,67,26,44,56],"points_earned":274,"phase":"task","trial_type":"horizons-task","trial_index":63,"time_elapsed":783609,"internal_node_id":"0.0-54.0","task_version":"0.2"},{"response_times":[813,394,753.0000000001164,529.9999999998836,1257],"keys_pressed":["rightarrow","leftarrow","leftarrow","rightarrow","rightarrow"],"horizon":5,"forced_choices":["rightarrow","leftarrow","leftarrow","rightarrow"],"right_color":"lightblue","left_color":"orange","left_mu":60,"right_mu":90,"left_numbers":[62,54,52,50,47],"right_numbers":[108,102,82,99,90],"points_earned":403,"phase":"task","trial_type":"horizons-task","trial_index":64,"time_elapsed":788859,"internal_node_id":"0.0-55.0","task_version":"0.2"},{"response_times":[804,481,395.0000000001164,534.9999999998836,1261],"keys_pressed":["rightarrow","leftarrow","rightarrow","rightarrow","rightarrow"],"horizon":5,"forced_choices":["rightarrow","leftarrow","rightarrow","rightarrow"],"right_color":"orange","left_color":"lightblue","left_mu":40,"right_mu":60,"left_numbers":[44,50,30,49,18],"right_numbers":[58,49,63,59,57],"points_earned":287,"phase":"task","trial_type":"horizons-task","trial_index":65,"time_elapsed":793839,"internal_node_id":"0.0-56.0","task_version":"0.2"},{"response_times":[838,419,1083,993,1439],"keys_pressed":["leftarrow","rightarrow","rightarrow","rightarrow","rightarrow"],"horizon":5,"forced_choices":["leftarrow","rightarrow","rightarrow","rightarrow"],"right_color":"orange","left_color":"lightblue","left_mu":60,"right_mu":68,"left_numbers":[43,59,46,60,77],"right_numbers":[70,83,70,56,67],"points_earned":319,"phase":"task","trial_type":"horizons-task","trial_index":66,"time_elapsed":800114,"internal_node_id":"0.0-57.0","task_version":"0.2"},{"response_times":[932,631,520,502,1464,1249,1459.0000000001164,818.9999999998836,639,477],"keys_pressed":["leftarrow","leftarrow","rightarrow","rightarrow","leftarrow","rightarrow","leftarrow","rightarrow","leftarrow","leftarrow"],"horizon":10,"forced_choices":["leftarrow","leftarrow","rightarrow","rightarrow"],"right_color":"lightblue","left_color":"orange","left_mu":60,"right_mu":40,"left_numbers":[50,49,58,54,37,61,67,46,61,62],"right_numbers":[42,41,34,39,42,40,30,44,35,34],"points_earned":483,"phase":"task","trial_type":"horizons-task","trial_index":67,"time_elapsed":810310,"internal_node_id":"0.0-58.0","task_version":"0.2"},{"response_times":[710.0000000001164,2409.9999999998836,643.0000000001164,602.9999999998836,1790,831,744,1066,412,237],"keys_pressed":["leftarrow","leftarrow","rightarrow","rightarrow","rightarrow","leftarrow","rightarrow","rightarrow","rightarrow","rightarrow"],"horizon":10,"forced_choices":["leftarrow","leftarrow","rightarrow","rightarrow"],"right_color":"lightblue","left_color":"orange","left_mu":40,"right_mu":44,"left_numbers":[40,32,32,35,43,34,34,37,35,41],"right_numbers":[51,53,36,44,37,43,38,37,39,65],"points_earned":402,"phase":"task","trial_type":"horizons-task","trial_index":68,"time_elapsed":821259,"internal_node_id":"0.0-59.0","task_version":"0.2"},{"response_times":[1213,560,390,489,1344,564.0000000001164,210.99999999988358,186,190,170],"keys_pressed":["leftarrow","rightarrow","leftarrow","leftarrow","leftarrow","leftarrow","leftarrow","leftarrow","leftarrow","leftarrow"],"horizon":10,"forced_choices":["leftarrow","rightarrow","leftarrow","leftarrow"],"right_color":"lightblue","left_color":"orange","left_mu":60,"right_mu":52,"left_numbers":[56,53,44,51,68,51,51,58,65,52],"right_numbers":[50,41,50,58,40,52,60,49,42,40],"points_earned":537,"phase":"task","trial_type":"horizons-task","trial_index":69,"time_elapsed":828078,"internal_node_id":"0.0-60.0","task_version":"0.2"},{"response_times":[904.9999999998836,541,612,783.0000000001164,1433,1101,641.9999999998836,466,286.0000000001164,276],"keys_pressed":["rightarrow","rightarrow","rightarrow","leftarrow","leftarrow","rightarrow","leftarrow","leftarrow","leftarrow","leftarrow"],"horizon":10,"forced_choices":["rightarrow","rightarrow","rightarrow","leftarrow"],"right_color":"lightblue","left_color":"orange","left_mu":40,"right_mu":28,"left_numbers":[31,53,36,35,31,32,39,31,42,46],"right_numbers":[36,27,25,26,25,24,22,24,27,34],"points_earned":336,"phase":"task","trial_type":"horizons-task","trial_index":70,"time_elapsed":836627,"internal_node_id":"0.0-61.0","task_version":"0.2"},{"response_times":[837,458.9999999998836,568,1133,1131],"keys_pressed":["leftarrow","rightarrow","rightarrow","rightarrow","leftarrow"],"horizon":5,"forced_choices":["leftarrow","rightarrow","rightarrow","rightarrow"],"right_color":"lightblue","left_color":"orange","left_mu":60,"right_mu":40,"left_numbers":[50,62,60,57,69],"right_numbers":[40,36,51,44,43],"points_earned":250,"phase":"task","trial_type":"horizons-task","trial_index":71,"time_elapsed":842268,"internal_node_id":"0.0-62.0","task_version":"0.2"},{"response_times":[755,628,444,512,1150],"keys_pressed":["rightarrow","leftarrow","rightarrow","leftarrow","leftarrow"],"horizon":5,"forced_choices":["rightarrow","leftarrow","rightarrow","leftarrow"],"right_color":"lightblue","left_color":"orange","left_mu":60,"right_mu":56,"left_numbers":[56,59,66,61,64],"right_numbers":[52,60,49,61,67],"points_earned":285,"phase":"task","trial_type":"horizons-task","trial_index":72,"time_elapsed":847262,"internal_node_id":"0.0-63.0","task_version":"0.2"},{"response_times":[685,476,672.0000000001164,835.9999999998836,1408,1475,797,553,349,289],"keys_pressed":["leftarrow","rightarrow","leftarrow","leftarrow","rightarrow","rightarrow","leftarrow","rightarrow","rightarrow","rightarrow"],"horizon":10,"forced_choices":["leftarrow","rightarrow","leftarrow","leftarrow"],"right_color":"orange","left_color":"lightblue","left_mu":40,"right_mu":36,"left_numbers":[43,42,30,31,49,39,27,46,35,30],"right_numbers":[48,33,42,35,42,42,36,47,42,46],"points_earned":383,"phase":"task","trial_type":"horizons-task","trial_index":73,"time_elapsed":856311,"internal_node_id":"0.0-64.0","task_version":"0.2"},{"response_times":[762,830,392.0000000001164,579.9999999998836,655],"keys_pressed":["leftarrow","leftarrow","rightarrow","rightarrow","leftarrow"],"horizon":5,"forced_choices":["leftarrow","leftarrow","rightarrow","rightarrow"],"right_color":"lightblue","left_color":"orange","left_mu":60,"right_mu":40,"left_numbers":[43,56,75,67,67],"right_numbers":[58,42,39,41,35],"points_earned":246,"phase":"task","trial_type":"horizons-task","trial_index":74,"time_elapsed":861033,"internal_node_id":"0.0-65.0","task_version":"0.2"},{"response_times":[905,511.0000000001164,603.9999999998836,543,782],"keys_pressed":["rightarrow","rightarrow","rightarrow","leftarrow","rightarrow"],"horizon":5,"forced_choices":["rightarrow","rightarrow","rightarrow","leftarrow"],"right_color":"lightblue","left_color":"orange","left_mu":40,"right_mu":28,"left_numbers":[28,42,37,25,41],"right_numbers":[31,38,23,29,24],"points_earned":141,"phase":"task","trial_type":"horizons-task","trial_index":75,"time_elapsed":865880,"internal_node_id":"0.0-66.0","task_version":"0.2"},{"response_times":[670.0000000001164,680,722,608,1216],"keys_pressed":["rightarrow","leftarrow","leftarrow","leftarrow","rightarrow"],"horizon":5,"forced_choices":["rightarrow","leftarrow","leftarrow","leftarrow"],"right_color":"orange","left_color":"lightblue","left_mu":40,"right_mu":70,"left_numbers":[36,33,30,44,45],"right_numbers":[63,63,68,70,50],"points_earned":220,"phase":"task","trial_type":"horizons-task","trial_index":76,"time_elapsed":871289,"internal_node_id":"0.0-67.0","task_version":"0.2"},{"response_times":[815.9999999998836,460,687,460,1484,703.0000000001164,1781.9999999998836,478,270,293],"keys_pressed":["leftarrow","rightarrow","leftarrow","rightarrow","leftarrow","rightarrow","rightarrow","rightarrow","rightarrow","rightarrow"],"horizon":10,"forced_choices":["leftarrow","rightarrow","leftarrow","rightarrow"],"right_color":"orange","left_color":"lightblue","left_mu":40,"right_mu":52,"left_numbers":[54,35,39,44,37,51,46,48,33,48],"right_numbers":[51,58,53,36,63,46,64,46,66,48],"points_earned":494,"phase":"task","trial_type":"horizons-task","trial_index":77,"time_elapsed":880227,"internal_node_id":"0.0-68.0","task_version":"0.2"},{"response_times":[6912,574.0000000001164,450.9999999998836,496,1152],"keys_pressed":["leftarrow","leftarrow","rightarrow","rightarrow","rightarrow"],"horizon":5,"forced_choices":["leftarrow","leftarrow","rightarrow","rightarrow"],"right_color":"orange","left_color":"lightblue","left_mu":40,"right_mu":36,"left_numbers":[21,40,40,34,65],"right_numbers":[25,40,46,38,25],"points_earned":170,"phase":"task","trial_type":"horizons-task","trial_index":78,"time_elapsed":891314,"internal_node_id":"0.0-69.0","task_version":"0.2"},{"response_times":[1556,600,676,519,1239],"keys_pressed":["leftarrow","rightarrow","leftarrow","rightarrow","rightarrow"],"horizon":5,"forced_choices":["leftarrow","rightarrow","leftarrow","rightarrow"],"right_color":"orange","left_color":"lightblue","left_mu":40,"right_mu":52,"left_numbers":[23,50,40,46,39],"right_numbers":[42,56,51,50,54],"points_earned":223,"phase":"task","trial_type":"horizons-task","trial_index":79,"time_elapsed":897407,"internal_node_id":"0.0-70.0","task_version":"0.2"},{"response_times":[909,464,385.0000000001164,857.9999999998836,314],"keys_pressed":["rightarrow","leftarrow","rightarrow","leftarrow","rightarrow"],"horizon":5,"forced_choices":["rightarrow","leftarrow","rightarrow","leftarrow"],"right_color":"orange","left_color":"lightblue","left_mu":40,"right_mu":70,"left_numbers":[38,27,37,41,52],"right_numbers":[72,78,62,70,69],"points_earned":271,"phase":"task","trial_type":"horizons-task","trial_index":80,"time_elapsed":901840,"internal_node_id":"0.0-71.0","task_version":"0.2"},{"response_times":[1017,491.0000000001164,471.9999999998836,512,935],"keys_pressed":["leftarrow","leftarrow","rightarrow","rightarrow","rightarrow"],"horizon":5,"forced_choices":["leftarrow","leftarrow","rightarrow","rightarrow"],"right_color":"lightblue","left_color":"orange","left_mu":40,"right_mu":44,"left_numbers":[37,34,47,51,49],"right_numbers":[46,51,20,62,48],"points_earned":201,"phase":"task","trial_type":"horizons-task","trial_index":81,"time_elapsed":906769,"internal_node_id":"0.0-72.0","task_version":"0.2"},{"response_times":[918,489,575,430,994.0000000001164],"keys_pressed":["rightarrow","leftarrow","leftarrow","rightarrow","rightarrow"],"horizon":5,"forced_choices":["rightarrow","leftarrow","leftarrow","rightarrow"],"right_color":"lightblue","left_color":"orange","left_mu":60,"right_mu":80,"left_numbers":[64,77,64,57,52],"right_numbers":[83,65,79,73,83],"points_earned":380,"phase":"task","trial_type":"horizons-task","trial_index":82,"time_elapsed":911677,"internal_node_id":"0.0-73.0","task_version":"0.2"},{"response_times":[566,780,426.0000000001164,633.9999999998836,882],"keys_pressed":["rightarrow","leftarrow","leftarrow","rightarrow","leftarrow"],"horizon":5,"forced_choices":["rightarrow","leftarrow","leftarrow","rightarrow"],"right_color":"lightblue","left_color":"orange","left_mu":60,"right_mu":64,"left_numbers":[65,57,75,60,49],"right_numbers":[64,46,74,50,53],"points_earned":295,"phase":"task","trial_type":"horizons-task","trial_index":83,"time_elapsed":916467,"internal_node_id":"0.0-74.0","task_version":"0.2"},{"response_times":[684.0000000001164,531.9999999998836,518,645,1683,668,539.0000000001164,332.9999999998836,254.00000000011642,197.99999999988358],"keys_pressed":["rightarrow","rightarrow","leftarrow","leftarrow","leftarrow","rightarrow","leftarrow","leftarrow","leftarrow","leftarrow"],"horizon":10,"forced_choices":["rightarrow","rightarrow","leftarrow","leftarrow"],"right_color":"lightblue","left_color":"orange","left_mu":60,"right_mu":52,"left_numbers":[53,67,41,48,69,57,59,66,45,64],"right_numbers":[59,45,52,50,67,43,44,45,45,51],"points_earned":539,"phase":"task","trial_type":"horizons-task","trial_index":84,"time_elapsed":924024,"internal_node_id":"0.0-75.0","task_version":"0.2"},{"response_times":[982,529,494,542.0000000001164,1180.9999999998836,697,518,271,224,187],"keys_pressed":["leftarrow","rightarrow","rightarrow","rightarrow","leftarrow","rightarrow","rightarrow","rightarrow","rightarrow","rightarrow"],"horizon":10,"forced_choices":["leftarrow","rightarrow","rightarrow","rightarrow"],"right_color":"orange","left_color":"lightblue","left_mu":60,"right_mu":68,"left_numbers":[62,66,59,74,66,59,58,55,52,62],"right_numbers":[51,69,71,73,60,75,56,66,71,67],"points_earned":676,"phase":"task","trial_type":"horizons-task","trial_index":85,"time_elapsed":931155,"internal_node_id":"0.0-76.0","task_version":"0.2"},{"response_times":[891,566.0000000001164,500,649.9999999998836,1177.0000000001164],"keys_pressed":["leftarrow","rightarrow","leftarrow","leftarrow","rightarrow"],"horizon":5,"forced_choices":["leftarrow","rightarrow","leftarrow","leftarrow"],"right_color":"orange","left_color":"lightblue","left_mu":40,"right_mu":36,"left_numbers":[27,28,49,36,38],"right_numbers":[27,51,22,29,36],"points_earned":199,"phase":"task","trial_type":"horizons-task","trial_index":86,"time_elapsed":936441,"internal_node_id":"0.0-77.0","task_version":"0.2"},{"response_times":[735,684,647,604.0000000001164,649],"keys_pressed":["rightarrow","rightarrow","rightarrow","leftarrow","rightarrow"],"horizon":5,"forced_choices":["rightarrow","rightarrow","rightarrow","leftarrow"],"right_color":"lightblue","left_color":"orange","left_mu":60,"right_mu":80,"left_numbers":[54,64,47,65,60],"right_numbers":[86,97,74,87,91],"points_earned":413,"phase":"task","trial_type":"horizons-task","trial_index":87,"time_elapsed":941264,"internal_node_id":"0.0-78.0","task_version":"0.2"},{"response_times":[712,439.0000000001164,441.9999999998836,754,1374],"keys_pressed":["leftarrow","leftarrow","rightarrow","leftarrow","leftarrow"],"horizon":5,"forced_choices":["leftarrow","leftarrow","rightarrow","leftarrow"],"right_color":"orange","left_color":"lightblue","left_mu":40,"right_mu":20,"left_numbers":[27,36,45,29,39],"right_numbers":[22,20,22,11,21],"points_earned":153,"phase":"task","trial_type":"horizons-task","trial_index":88,"time_elapsed":946489,"internal_node_id":"0.0-79.0","task_version":"0.2"},{"response_times":[783,473,456,401.0000000001164,1214.9999999998836,467,924,405,251,205],"keys_pressed":["leftarrow","rightarrow","leftarrow","rightarrow","leftarrow","rightarrow","leftarrow","leftarrow","leftarrow","leftarrow"],"horizon":10,"forced_choices":["leftarrow","rightarrow","leftarrow","rightarrow"],"right_color":"orange","left_color":"lightblue","left_mu":60,"right_mu":48,"left_numbers":[60,51,46,59,65,61,60,65,61,69],"right_numbers":[50,51,43,47,46,47,43,54,57,41],"points_earned":571,"phase":"task","trial_type":"horizons-task","trial_index":89,"time_elapsed":953572,"internal_node_id":"0.0-80.0","task_version":"0.2"},{"response_times":[860,530,428,519,1001],"keys_pressed":["rightarrow","leftarrow","rightarrow","leftarrow","leftarrow"],"horizon":5,"forced_choices":["rightarrow","leftarrow","rightarrow","leftarrow"],"right_color":"lightblue","left_color":"orange","left_mu":40,"right_mu":28,"left_numbers":[37,45,33,40,50],"right_numbers":[34,39,29,38,29],"points_earned":198,"phase":"task","trial_type":"horizons-task","trial_index":90,"time_elapsed":958415,"internal_node_id":"0.0-81.0","task_version":"0.2"},{"response_times":[707,543,531.9999999998836,492.0000000001164,1031.9999999998836,547,688,620,335,266],"keys_pressed":["rightarrow","rightarrow","leftarrow","leftarrow","rightarrow","leftarrow","rightarrow","leftarrow","leftarrow","leftarrow"],"horizon":10,"forced_choices":["rightarrow","rightarrow","leftarrow","leftarrow"],"right_color":"lightblue","left_color":"orange","left_mu":40,"right_mu":32,"left_numbers":[39,47,33,32,40,43,46,31,56,57],"right_numbers":[37,33,34,34,32,16,18,41,25,38],"points_earned":372,"phase":"task","trial_type":"horizons-task","trial_index":91,"time_elapsed":965680,"internal_node_id":"0.0-82.0","task_version":"0.2"},{"response_times":[865.9999999998836,607,693,729,1500],"keys_pressed":["leftarrow","rightarrow","rightarrow","rightarrow","rightarrow"],"horizon":5,"forced_choices":["leftarrow","rightarrow","rightarrow","rightarrow"],"right_color":"lightblue","left_color":"orange","left_mu":40,"right_mu":44,"left_numbers":[40,37,42,34,46],"right_numbers":[42,51,43,40,28],"points_earned":202,"phase":"task","trial_type":"horizons-task","trial_index":92,"time_elapsed":971578,"internal_node_id":"0.0-83.0","task_version":"0.2"},{"response_times":[824.0000000001164,406.9999999998836,403,475,549],"keys_pressed":["leftarrow","rightarrow","leftarrow","rightarrow","rightarrow"],"horizon":5,"forced_choices":["leftarrow","rightarrow","leftarrow","rightarrow"],"right_color":"lightblue","left_color":"orange","left_mu":60,"right_mu":72,"left_numbers":[63,53,57,53,70],"right_numbers":[75,77,73,61,56],"points_earned":314,"phase":"task","trial_type":"horizons-task","trial_index":93,"time_elapsed":975739,"internal_node_id":"0.0-84.0","task_version":"0.2"},{"response_times":[840.0000000001164,459.9999999998836,555,536,845],"keys_pressed":["leftarrow","rightarrow","rightarrow","leftarrow","rightarrow"],"horizon":5,"forced_choices":["leftarrow","rightarrow","rightarrow","leftarrow"],"right_color":"orange","left_color":"lightblue","left_mu":40,"right_mu":60,"left_numbers":[27,42,34,19,37],"right_numbers":[60,67,56,61,54],"points_earned":223,"phase":"task","trial_type":"horizons-task","trial_index":94,"time_elapsed":980478,"internal_node_id":"0.0-85.0","task_version":"0.2"},{"response_times":[884,558,608,521,3226,511.0000000001164,243.99999999988358,231,180,187.00000000011642],"keys_pressed":["rightarrow","leftarrow","rightarrow","leftarrow","rightarrow","rightarrow","rightarrow","rightarrow","rightarrow","rightarrow"],"horizon":10,"forced_choices":["rightarrow","leftarrow","rightarrow","leftarrow"],"right_color":"orange","left_color":"lightblue","left_mu":40,"right_mu":70,"left_numbers":[43,41,39,41,44,39,39,26,40,45],"right_numbers":[73,72,60,58,79,63,81,74,78,68],"points_earned":658,"phase":"task","trial_type":"horizons-task","trial_index":95,"time_elapsed":989129,"internal_node_id":"0.0-86.0","task_version":"0.2"},{"response_times":[805,538,437,626.0000000001164,820.9999999998836,243,219,343,231,215],"keys_pressed":["leftarrow","leftarrow","rightarrow","leftarrow","leftarrow","leftarrow","leftarrow","leftarrow","leftarrow","leftarrow"],"horizon":10,"forced_choices":["leftarrow","leftarrow","rightarrow","leftarrow"],"right_color":"orange","left_color":"lightblue","left_mu":40,"right_mu":20,"left_numbers":[37,36,33,45,35,46,43,47,36,44],"right_numbers":[14,25,3,18,17,15,10,7,23,31],"points_earned":372,"phase":"task","trial_type":"horizons-task","trial_index":96,"time_elapsed":995109,"internal_node_id":"0.0-87.0","task_version":"0.2"},{"rt":16363,"responses":{"age":"31","gender-categorical":"Female","gender-free-response":"","ethnicity":"Not Hispanic or Latino","race":["White"],"language":"Yes","fluency":"Very well"},"survey":"demographics","trial_type":"survey-demo","trial_index":97,"time_elapsed":1011476,"internal_node_id":"0.0-88.0","task_version":"0.2"},{"rt":11980,"responses":{"difficulty":"3","fun":"2","clarity":"2","strategy":"","feedback":""},"survey":"debrief","trial_type":"survey-debrief","trial_index":98,"time_elapsed":1023460,"internal_node_id":"0.0-89.0","task_version":"0.2","interactions":"[]"}]