[{"view_history":"[{\"page_index\":0,\"viewing_time\":2261}]","rt":2261,"trial_type":"instructions","trial_index":0,"time_elapsed":2263,"internal_node_id":"0.0-0.0","task_version":"0.2"},{"item_order":[9,7,11,13,3,0,2,6,5,4,1,10,8,16,12,15,14],"responses":{"Q10":"3","Q08":"3","Q12":"3","Q14":"3","Q04":"3","Q01":"3","Q03":"3","Q07":"2","Q06":"3","Q05":"4","Q02":"3","Q11":"2","Q09":"2","Q17":"0","Q13":"4","Q16":"3","Q15":"3"},"radio_events":[4902,9048,11892,13480,15347,21845,28511,30608,33256,35837,39401,41575,43225,52397,54372,60976,70481,76091,79491,80657],"key_events":[],"mouse_events":[0,4902,9048,11892,13480,14995,15347,21845,28511,30608,33256,35837,39401,41206,41575,43225,52397,54372,60976,70481,75740,76091,78932,79491,80657,81145],"rt":81145,"survey":"pswq","trial_type":"survey-template","trial_index":1,"time_elapsed":83413,"internal_node_id":"0.0-1.0","task_version":"0.2"},{"item_order":[12,9,1,4,0,11,2,7,10,8,3,6,5],"responses":{"Q13":"4","Q10":"2","Q02":"3","Q05":"3","Q01":"2","Q12":"1","Q03":"3","Q08":"2","Q11":"1","Q09":"3","Q04":"3","Q07":"3","Q06":"3"},"radio_events":[11199,20108,22540,27371,31461,35645,38295,47684,48775,51790,54749,57810,59526,62644],"key_events":[],"mouse_events":[11199,20108,22540,27073,27371,31177,31461,35645,38295,47684,48775,51790,54749,57538,57810,59526,61698,62427,62644,63021],"rt":63021,"survey":"ius12","trial_type":"survey-template","trial_index":2,"time_elapsed":146437,"internal_node_id":"0.0-2.0","task_version":"0.2"},{"item_order":[8,9,2,15,7,5,4,13,12,3,1,6,11,10,14,0],"responses":{"Q09":"4","Q10":"3","Q03":"4","Q16":"4","Q08":"3","Q06":"4","Q05":"1","Q14":"1","Q13":"4","Q04":"5","Q02":"1","Q07":"3","Q12":"3","Q11":"3","Q15":"4","Q01":"4"},"radio_events":[8776,15602,18130,19278,21944,22693,32558,38676,43004,49465,55113,77845,80630,84105,87190,104310,105937,110045,112551,116195,118695,119473,120553,122759],"key_events":[],"mouse_events":[8776,15602,18130,19278,21944,22432,22693,32558,38676,42693,43004,49465,55113,72563,72702,77845,80630,84105,87190,104310,105937,110045,112551,116195,118695,119473,120553,122759,123088],"rt":123088,"survey":"nfc","trial_type":"survey-template","trial_index":3,"time_elapsed":269529,"internal_node_id":"0.0-3.0","task_version":"0.2"},{"view_history":"[{\"page_index\":0,\"viewing_time\":3986},{\"page_index\":1,\"viewing_time\":2920},{\"page_index\":2,\"viewing_time\":4813},{\"page_index\":3,\"viewing_time\":4490},{\"page_index\":4,\"viewing_time\":2269},{\"page_index\":5,\"viewing_time\":2515},{\"page_index\":6,\"viewing_time\":2542},{\"page_index\":7,\"viewing_time\":11468},{\"page_index\":8,\"viewing_time\":4257},{\"page_index\":9,\"viewing_time\":4442}]","rt":43702,"trial_type":"instructions","trial_index":4,"time_elapsed":313232,"internal_node_id":"0.0-4.0-0.0","task_version":"0.2"},{"response_times":[4648,887,438,466,3011],"keys_pressed":["rightarrow","leftarrow","rightarrow","rightarrow","leftarrow"],"horizon":5,"forced_choices":["rightarrow","leftarrow","rightarrow","rightarrow"],"right_color":"lightblue","left_color":"orange","left_mu":40,"right_mu":20,"left_numbers":[30,38,33,29,46],"right_numbers":[13,25,30,6,18],"points_earned":133,"phase":"practice","trial_type":"horizons-task","trial_index":5,"time_elapsed":324198,"internal_node_id":"0.0-4.0-1.0","task_version":"0.2"},{"response_times":[897,474,634,612,3799,4159,1270,1595,1638,2699],"keys_pressed":["leftarrow","leftarrow","rightarrow","rightarrow","leftarrow","rightarrow","rightarrow","rightarrow","rightarrow","rightarrow"],"horizon":10,"forced_choices":["leftarrow","leftarrow","rightarrow","rightarrow"],"right_color":"orange","left_color":"lightblue","left_mu":60,"right_mu":70,"left_numbers":[75,70,51,59,51,60,74,63,41,63],"right_numbers":[70,77,72,65,66,85,57,58,71,65],"points_earned":669,"phase":"practice","trial_type":"horizons-task","trial_index":6,"time_elapsed":343478,"internal_node_id":"0.0-4.0-2.0","task_version":"0.2"},{"view_history":"[{\"page_index\":0,\"viewing_time\":1202},{\"page_index\":1,\"viewing_time\":1772},{\"page_index\":2,\"viewing_time\":3397},{\"page_index\":3,\"viewing_time\":2491}]","rt":8862,"trial_type":"instructions","trial_index":7,"time_elapsed":352341,"internal_node_id":"0.0-4.0-3.0","task_version":"0.2"},{"responses":["true","false","true"],"num_errors":0,"rt":7500,"trial_type":"horizons-comprehension","trial_index":8,"time_elapsed":359843,"internal_node_id":"0.0-4.0-4.0","task_version":"0.2"},{"trial_type":"call-function","trial_index":9,"time_elapsed":359844,"internal_node_id":"0.0-5.0","task_version":"0.2"},{"view_history":"[{\"page_index\":0,\"viewing_time\":895},{\"page_index\":1,\"viewing_time\":1565}]","rt":2460,"trial_type":"instructions","trial_index":10,"time_elapsed":362306,"internal_node_id":"0.0-6.0","task_version":"0.2"},{"response_times":[785,925,538,528,3721,989,769,978,566,818],"keys_pressed":["rightarrow","leftarrow","rightarrow","leftarrow","leftarrow","leftarrow","leftarrow","leftarrow","leftarrow","leftarrow"],"horizon":10,"forced_choices":["rightarrow","leftarrow","rightarrow","leftarrow"],"right_color":"orange","left_color":"lightblue","left_mu":60,"right_mu":52,"left_numbers":[61,48,54,57,63,67,69,61,78,68],"right_numbers":[50,52,46,51,68,45,51,63,61,61],"points_earned":607,"phase":"task","trial_type":"horizons-task","trial_index":11,"time_elapsed":374429,"internal_node_id":"0.0-7.0","task_version":"0.2"},{"response_times":[1497,510,566,583,2903,1791,1962,974,667,1340],"keys_pressed":["leftarrow","leftarrow","rightarrow","rightarrow","rightarrow","leftarrow","rightarrow","rightarrow","rightarrow","rightarrow"],"horizon":10,"forced_choices":["leftarrow","leftarrow","rightarrow","rightarrow"],"right_color":"lightblue","left_color":"orange","left_mu":60,"right_mu":56,"left_numbers":[50,52,62,67,69,56,55,60,60,61],"right_numbers":[53,60,61,52,55,40,64,57,52,48],"points_earned":547,"phase":"task","trial_type":"horizons-task","trial_index":12,"time_elapsed":388725,"internal_node_id":"0.0-8.0","task_version":"0.2"},{"response_times":[791,498,492,551,2162,517,516,334,378,326],"keys_pressed":["leftarrow","leftarrow","leftarrow","rightarrow","rightarrow","rightarrow","rightarrow","rightarrow","rightarrow","rightarrow"],"horizon":10,"forced_choices":["leftarrow","leftarrow","leftarrow","rightarrow"],"right_color":"orange","left_color":"lightblue","left_mu":40,"right_mu":60,"left_numbers":[31,47,38,30,43,34,49,40,32,35],"right_numbers":[62,56,46,52,64,71,63,52,69,45],"points_earned":532,"phase":"task","trial_type":"horizons-task","trial_index":13,"time_elapsed":396793,"internal_node_id":"0.0-9.0","task_version":"0.2"},{"response_times":[1398,1304,936,1530,2749],"keys_pressed":["rightarrow","rightarrow","leftarrow","rightarrow","leftarrow"],"horizon":5,"forced_choices":["rightarrow","rightarrow","leftarrow","rightarrow"],"right_color":"orange","left_color":"lightblue","left_mu":60,"right_mu":48,"left_numbers":[51,69,57,59,45],"right_numbers":[44,36,53,58,31],"points_earned":240,"phase":"task","trial_type":"horizons-task","trial_index":14,"time_elapsed":406213,"internal_node_id":"0.0-10.0","task_version":"0.2"},{"response_times":[733,382,746,541,4029],"keys_pressed":["rightarrow","rightarrow","rightarrow","leftarrow","rightarrow"],"horizon":5,"forced_choices":["rightarrow","rightarrow","rightarrow","leftarrow"],"right_color":"lightblue","left_color":"orange","left_mu":40,"right_mu":44,"left_numbers":[22,38,31,34,43],"right_numbers":[39,48,45,48,52],"points_earned":218,"phase":"task","trial_type":"horizons-task","trial_index":15,"time_elapsed":414145,"internal_node_id":"0.0-11.0","task_version":"0.2"},{"response_times":[729,354,366,1098,7595,1150,570,1122,836,770],"keys_pressed":["leftarrow","rightarrow","leftarrow","leftarrow","rightarrow","rightarrow","rightarrow","rightarrow","rightarrow","rightarrow"],"horizon":10,"forced_choices":["leftarrow","rightarrow","leftarrow","leftarrow"],"right_color":"orange","left_color":"lightblue","left_mu":40,"right_mu":48,"left_numbers":[38,43,49,38,36,43,27,30,26,47],"right_numbers":[31,45,40,50,58,49,52,42,41,55],"points_earned":467,"phase":"task","trial_type":"horizons-task","trial_index":16,"time_elapsed":430237,"internal_node_id":"0.0-12.0","task_version":"0.2"},{"response_times":[1055,813,733,1159,2175,526,612,400,416,364],"keys_pressed":["leftarrow","leftarrow","rightarrow","leftarrow","leftarrow","leftarrow","leftarrow","leftarrow","leftarrow","leftarrow"],"horizon":10,"forced_choices":["leftarrow","leftarrow","rightarrow","leftarrow"],"right_color":"lightblue","left_color":"orange","left_mu":40,"right_mu":10,"left_numbers":[34,38,34,44,53,46,34,47,40,42],"right_numbers":[11,4,19,16,22,21,0,14,4,16],"points_earned":397,"phase":"task","trial_type":"horizons-task","trial_index":17,"time_elapsed":439996,"internal_node_id":"0.0-13.0","task_version":"0.2"},{"response_times":[619,481,490,544,1916],"keys_pressed":["leftarrow","leftarrow","rightarrow","rightarrow","rightarrow"],"horizon":5,"forced_choices":["leftarrow","leftarrow","rightarrow","rightarrow"],"right_color":"orange","left_color":"lightblue","left_mu":40,"right_mu":48,"left_numbers":[26,35,44,45,39],"right_numbers":[41,52,50,36,45],"points_earned":192,"phase":"task","trial_type":"horizons-task","trial_index":18,"time_elapsed":445557,"internal_node_id":"0.0-14.0","task_version":"0.2"},{"response_times":[478,404,546,640,1411],"keys_pressed":["leftarrow","rightarrow","rightarrow","rightarrow","leftarrow"],"horizon":5,"forced_choices":["leftarrow","rightarrow","rightarrow","rightarrow"],"right_color":"lightblue","left_color":"orange","left_mu":40,"right_mu":28,"left_numbers":[45,40,24,30,45],"right_numbers":[32,25,22,30,25],"points_earned":167,"phase":"task","trial_type":"horizons-task","trial_index":19,"time_elapsed":450539,"internal_node_id":"0.0-15.0","task_version":"0.2"},{"response_times":[534,451,406,434,3193,1381,2458,1386,603,545],"keys_pressed":["rightarrow","rightarrow","rightarrow","leftarrow","leftarrow","leftarrow","leftarrow","leftarrow","leftarrow","leftarrow"],"horizon":10,"forced_choices":["rightarrow","rightarrow","rightarrow","leftarrow"],"right_color":"orange","left_color":"lightblue","left_mu":60,"right_mu":52,"left_numbers":[60,63,55,51,67,60,59,68,57,60],"right_numbers":[55,50,59,43,47,53,55,41,51,62],"points_earned":586,"phase":"task","trial_type":"horizons-task","trial_index":20,"time_elapsed":463437,"internal_node_id":"0.0-16.0","task_version":"0.2"},{"response_times":[519,347,370,366,3155,666,593,504,388,412],"keys_pressed":["leftarrow","rightarrow","rightarrow","leftarrow","leftarrow","rightarrow","rightarrow","rightarrow","rightarrow","rightarrow"],"horizon":10,"forced_choices":["leftarrow","rightarrow","rightarrow","leftarrow"],"right_color":"lightblue","left_color":"orange","left_mu":60,"right_mu":72,"left_numbers":[56,70,65,62,55,71,57,59,66,41],"right_numbers":[73,73,61,78,76,79,73,74,74,71],"points_earned":678,"phase":"task","trial_type":"horizons-task","trial_index":21,"time_elapsed":472260,"internal_node_id":"0.0-17.0","task_version":"0.2"},{"response_times":[487,325,540,381,1802,448,664,507,357,373],"keys_pressed":["rightarrow","leftarrow","rightarrow","rightarrow","leftarrow","leftarrow","leftarrow","leftarrow","leftarrow","leftarrow"],"horizon":10,"forced_choices":["rightarrow","leftarrow","rightarrow","rightarrow"],"right_color":"orange","left_color":"lightblue","left_mu":60,"right_mu":30,"left_numbers":[49,53,71,49,51,58,70,51,58,74],"right_numbers":[21,38,25,26,15,26,31,24,34,34],"points_earned":487,"phase":"task","trial_type":"horizons-task","trial_index":22,"time_elapsed":479647,"internal_node_id":"0.0-18.0","task_version":"0.2"},{"response_times":[569,335,315,370,1399],"keys_pressed":["rightarrow","leftarrow","rightarrow","leftarrow","leftarrow"],"horizon":5,"forced_choices":["rightarrow","leftarrow","rightarrow","leftarrow"],"right_color":"orange","left_color":"lightblue","left_mu":60,"right_mu":52,"left_numbers":[59,75,61,62,60],"right_numbers":[59,45,50,43,46],"points_earned":306,"phase":"task","trial_type":"horizons-task","trial_index":23,"time_elapsed":484136,"internal_node_id":"0.0-19.0","task_version":"0.2"},{"response_times":[468,376,704,1776,1358],"keys_pressed":["leftarrow","rightarrow","rightarrow","leftarrow","leftarrow"],"horizon":5,"forced_choices":["leftarrow","rightarrow","rightarrow","leftarrow"],"right_color":"lightblue","left_color":"orange","left_mu":40,"right_mu":20,"left_numbers":[56,42,22,50,38],"right_numbers":[12,41,16,20,12],"points_earned":201,"phase":"task","trial_type":"horizons-task","trial_index":24,"time_elapsed":490323,"internal_node_id":"0.0-20.0","task_version":"0.2"},{"response_times":[580,284,386,366,1803],"keys_pressed":["leftarrow","rightarrow","rightarrow","leftarrow","rightarrow"],"horizon":5,"forced_choices":["leftarrow","rightarrow","rightarrow","leftarrow"],"right_color":"lightblue","left_color":"orange","left_mu":60,"right_mu":72,"left_numbers":[66,50,61,66,50],"right_numbers":[63,60,81,60,74],"points_earned":347,"phase":"task","trial_type":"horizons-task","trial_index":25,"time_elapsed":495246,"internal_node_id":"0.0-21.0","task_version":"0.2"},{"response_times":[399,311,376,514,1843],"keys_pressed":["rightarrow","leftarrow","leftarrow","leftarrow","rightarrow"],"horizon":5,"forced_choices":["rightarrow","leftarrow","leftarrow","leftarrow"],"right_color":"lightblue","left_color":"orange","left_mu":40,"right_mu":70,"left_numbers":[36,37,51,38,47],"right_numbers":[66,65,61,64,70],"points_earned":262,"phase":"task","trial_type":"horizons-task","trial_index":26,"time_elapsed":500196,"internal_node_id":"0.0-22.0","task_version":"0.2"},{"response_times":[870,295,474,488,2653],"keys_pressed":["rightarrow","leftarrow","leftarrow","rightarrow","leftarrow"],"horizon":5,"forced_choices":["rightarrow","leftarrow","leftarrow","rightarrow"],"right_color":"orange","left_color":"lightblue","left_mu":60,"right_mu":64,"left_numbers":[63,67,69,71,56],"right_numbers":[50,60,61,69,62],"points_earned":311,"phase":"task","trial_type":"horizons-task","trial_index":27,"time_elapsed":506487,"internal_node_id":"0.0-23.0","task_version":"0.2"},{"response_times":[410,299,650,340,3278,1358,1098,436,437,396],"keys_pressed":["rightarrow","leftarrow","leftarrow","rightarrow","rightarrow","rightarrow","rightarrow","rightarrow","rightarrow","rightarrow"],"horizon":10,"forced_choices":["rightarrow","leftarrow","leftarrow","rightarrow"],"right_color":"orange","left_color":"lightblue","left_mu":40,"right_mu":60,"left_numbers":[40,27,39,26,34,37,48,31,37,28],"right_numbers":[53,52,63,59,54,60,60,61,55,65],"points_earned":533,"phase":"task","trial_type":"horizons-task","trial_index":28,"time_elapsed":516707,"internal_node_id":"0.0-24.0","task_version":"0.2"},{"response_times":[641,310,410,606,1497,2626,390,342,371,373],"keys_pressed":["rightarrow","leftarrow","leftarrow","leftarrow","rightarrow","rightarrow","rightarrow","rightarrow","rightarrow","rightarrow"],"horizon":10,"forced_choices":["rightarrow","leftarrow","leftarrow","leftarrow"],"right_color":"orange","left_color":"lightblue","left_mu":60,"right_mu":80,"left_numbers":[64,46,67,63,59,64,57,61,55,66],"right_numbers":[86,81,86,80,77,79,71,79,77,78],"points_earned":723,"phase":"task","trial_type":"horizons-task","trial_index":29,"time_elapsed":525776,"internal_node_id":"0.0-25.0","task_version":"0.2"},{"response_times":[426,365,444,417,3886,827,1470,1068,1742,1434],"keys_pressed":["rightarrow","leftarrow","leftarrow","rightarrow","leftarrow","rightarrow","leftarrow","rightarrow","leftarrow","rightarrow"],"horizon":10,"forced_choices":["rightarrow","leftarrow","leftarrow","rightarrow"],"right_color":"orange","left_color":"lightblue","left_mu":60,"right_mu":64,"left_numbers":[56,63,67,59,54,47,56,64,54,75],"right_numbers":[61,78,71,60,60,52,56,71,74,56],"points_earned":594,"phase":"task","trial_type":"horizons-task","trial_index":30,"time_elapsed":539358,"internal_node_id":"0.0-26.0","task_version":"0.2"},{"response_times":[681,466,434,388,1763,606,687,678,389,312],"keys_pressed":["leftarrow","leftarrow","rightarrow","leftarrow","rightarrow","rightarrow","rightarrow","rightarrow","rightarrow","rightarrow"],"horizon":10,"forced_choices":["leftarrow","leftarrow","rightarrow","leftarrow"],"right_color":"lightblue","left_color":"orange","left_mu":60,"right_mu":72,"left_numbers":[55,69,55,57,52,55,74,59,60,67],"right_numbers":[66,70,72,60,70,72,64,76,63,78],"points_earned":676,"phase":"task","trial_type":"horizons-task","trial_index":31,"time_elapsed":547277,"internal_node_id":"0.0-27.0","task_version":"0.2"},{"response_times":[400,332,387,712,1174],"keys_pressed":["rightarrow","leftarrow","leftarrow","leftarrow","rightarrow"],"horizon":5,"forced_choices":["rightarrow","leftarrow","leftarrow","leftarrow"],"right_color":"orange","left_color":"lightblue","left_mu":60,"right_mu":80,"left_numbers":[50,59,47,64,59],"right_numbers":[80,91,74,73,95],"points_earned":345,"phase":"task","trial_type":"horizons-task","trial_index":32,"time_elapsed":551789,"internal_node_id":"0.0-28.0","task_version":"0.2"},{"response_times":[488,360,386,490,3816,966,512,740,1558,490],"keys_pressed":["leftarrow","rightarrow","leftarrow","rightarrow","leftarrow","rightarrow","leftarrow","leftarrow","rightarrow","leftarrow"],"horizon":10,"forced_choices":["leftarrow","rightarrow","leftarrow","rightarrow"],"right_color":"orange","left_color":"lightblue","left_mu":60,"right_mu":48,"left_numbers":[63,58,67,50,76,60,63,60,56,58],"right_numbers":[41,62,42,67,45,58,42,59,52,54],"points_earned":626,"phase":"task","trial_type":"horizons-task","trial_index":33,"time_elapsed":563117,"internal_node_id":"0.0-29.0","task_version":"0.2"},{"response_times":[1204,916,593,432,2961,980,354,752,842,499],"keys_pressed":["rightarrow","leftarrow","leftarrow","rightarrow","rightarrow","rightarrow","rightarrow","rightarrow","rightarrow","rightarrow"],"horizon":10,"forced_choices":["rightarrow","leftarrow","leftarrow","rightarrow"],"right_color":"lightblue","left_color":"orange","left_mu":60,"right_mu":68,"left_numbers":[58,66,56,62,61,61,59,54,66,48],"right_numbers":[76,67,72,75,76,65,74,63,78,61],"points_earned":690,"phase":"task","trial_type":"horizons-task","trial_index":34,"time_elapsed":574154,"internal_node_id":"0.0-30.0","task_version":"0.2"},{"response_times":[641,432,911,1161,868],"keys_pressed":["leftarrow","leftarrow","rightarrow","leftarrow","leftarrow"],"horizon":5,"forced_choices":["leftarrow","leftarrow","rightarrow","leftarrow"],"right_color":"lightblue","left_color":"orange","left_mu":40,"right_mu":10,"left_numbers":[41,40,42,41,40],"right_numbers":[36,9,12,13,8],"points_earned":174,"phase":"task","trial_type":"horizons-task","trial_index":35,"time_elapsed":579677,"internal_node_id":"0.0-31.0","task_version":"0.2"},{"response_times":[492,346,364,420,2028,737,930,831,998,778],"keys_pressed":["leftarrow","leftarrow","leftarrow","rightarrow","rightarrow","leftarrow","rightarrow","rightarrow","rightarrow","rightarrow"],"horizon":10,"forced_choices":["leftarrow","leftarrow","leftarrow","rightarrow"],"right_color":"orange","left_color":"lightblue","left_mu":60,"right_mu":64,"left_numbers":[53,53,59,66,76,61,65,50,68,75],"right_numbers":[76,65,69,66,58,69,79,52,59,59],"points_earned":599,"phase":"task","trial_type":"horizons-task","trial_index":36,"time_elapsed":589116,"internal_node_id":"0.0-32.0","task_version":"0.2"},{"response_times":[621,338,810,1620,446,418,407,357,345,332],"keys_pressed":["rightarrow","leftarrow","leftarrow","leftarrow","rightarrow","leftarrow","leftarrow","leftarrow","leftarrow","leftarrow"],"horizon":10,"forced_choices":["rightarrow","leftarrow","leftarrow","leftarrow"],"right_color":"lightblue","left_color":"orange","left_mu":40,"right_mu":20,"left_numbers":[40,38,32,51,34,35,34,43,30,43],"right_numbers":[14,17,19,3,12,33,25,28,15,17],"points_earned":332,"phase":"task","trial_type":"horizons-task","trial_index":37,"time_elapsed":596317,"internal_node_id":"0.0-33.0","task_version":"0.2"},{"response_times":[467,353,634,508,2117,575,1436,402,266,362],"keys_pressed":["leftarrow","rightarrow","rightarrow","rightarrow","leftarrow","leftarrow","leftarrow","leftarrow","leftarrow","leftarrow"],"horizon":10,"forced_choices":["leftarrow","rightarrow","rightarrow","rightarrow"],"right_color":"orange","left_color":"lightblue","left_mu":60,"right_mu":40,"left_numbers":[69,87,45,66,77,56,72,52,50,68],"right_numbers":[45,39,39,45,37,51,25,34,41,27],"points_earned":567,"phase":"task","trial_type":"horizons-task","trial_index":38,"time_elapsed":604957,"internal_node_id":"0.0-34.0","task_version":"0.2"},{"response_times":[441,350,672,450,2095],"keys_pressed":["rightarrow","leftarrow","rightarrow","rightarrow","rightarrow"],"horizon":5,"forced_choices":["rightarrow","leftarrow","rightarrow","rightarrow"],"right_color":"orange","left_color":"lightblue","left_mu":40,"right_mu":52,"left_numbers":[29,29,45,41,43],"right_numbers":[64,59,41,65,54],"points_earned":253,"phase":"task","trial_type":"horizons-task","trial_index":39,"time_elapsed":610468,"internal_node_id":"0.0-35.0","task_version":"0.2"},{"response_times":[634,298,339,395,1637],"keys_pressed":["rightarrow","leftarrow","leftarrow","leftarrow","leftarrow"],"horizon":5,"forced_choices":["rightarrow","leftarrow","leftarrow","leftarrow"],"right_color":"lightblue","left_color":"orange","left_mu":40,"right_mu":20,"left_numbers":[45,30,30,44,52],"right_numbers":[7,27,19,32,28],"points_earned":163,"phase":"task","trial_type":"horizons-task","trial_index":40,"time_elapsed":615278,"internal_node_id":"0.0-36.0","task_version":"0.2"},{"response_times":[398,294,628,522,2298,1188,532,421,266,154],"keys_pressed":["rightarrow","leftarrow","leftarrow","leftarrow","rightarrow","rightarrow","rightarrow","rightarrow","rightarrow","rightarrow"],"horizon":10,"forced_choices":["rightarrow","leftarrow","leftarrow","leftarrow"],"right_color":"lightblue","left_color":"orange","left_mu":40,"right_mu":70,"left_numbers":[37,51,30,47,44,45,38,32,59,41],"right_numbers":[63,72,79,73,60,73,74,63,79,62],"points_earned":602,"phase":"task","trial_type":"horizons-task","trial_index":41,"time_elapsed":623481,"internal_node_id":"0.0-37.0","task_version":"0.2"},{"response_times":[573,368,465,393,1543],"keys_pressed":["leftarrow","leftarrow","rightarrow","leftarrow","leftarrow"],"horizon":5,"forced_choices":["leftarrow","leftarrow","rightarrow","leftarrow"],"right_color":"lightblue","left_color":"orange","left_mu":60,"right_mu":72,"left_numbers":[69,59,55,52,65],"right_numbers":[65,58,56,56,76],"points_earned":301,"phase":"task","trial_type":"horizons-task","trial_index":42,"time_elapsed":628325,"internal_node_id":"0.0-38.0","task_version":"0.2"},{"response_times":[395,338,365,354,1554,1243,1652,633,998,899],"keys_pressed":["rightarrow","rightarrow","leftarrow","rightarrow","leftarrow","rightarrow","rightarrow","leftarrow","leftarrow","leftarrow"],"horizon":10,"forced_choices":["rightarrow","rightarrow","leftarrow","rightarrow"],"right_color":"orange","left_color":"lightblue","left_mu":60,"right_mu":48,"left_numbers":[56,59,70,69,40,57,65,44,60,59],"right_numbers":[45,58,49,31,40,51,53,55,47,51],"points_earned":511,"phase":"task","trial_type":"horizons-task","trial_index":43,"time_elapsed":638277,"internal_node_id":"0.0-39.0","task_version":"0.2"},{"response_times":[590,373,418,1858,2055,540,646,460,366,231],"keys_pressed":["rightarrow","rightarrow","rightarrow","leftarrow","rightarrow","leftarrow","rightarrow","rightarrow","rightarrow","rightarrow"],"horizon":10,"forced_choices":["rightarrow","rightarrow","rightarrow","leftarrow"],"right_color":"lightblue","left_color":"orange","left_mu":40,"right_mu":44,"left_numbers":[30,45,52,41,33,27,35,44,43,24],"right_numbers":[51,50,43,43,46,47,54,42,47,44],"points_earned":445,"phase":"task","trial_type":"horizons-task","trial_index":44,"time_elapsed":647321,"internal_node_id":"0.0-40.0","task_version":"0.2"},{"response_times":[644,492,330,403,1902],"keys_pressed":["leftarrow","rightarrow","leftarrow","rightarrow","rightarrow"],"horizon":5,"forced_choices":["leftarrow","rightarrow","leftarrow","rightarrow"],"right_color":"lightblue","left_color":"orange","left_mu":60,"right_mu":90,"left_numbers":[60,43,68,70,76],"right_numbers":[89,84,90,80,89],"points_earned":381,"phase":"task","trial_type":"horizons-task","trial_index":45,"time_elapsed":652597,"internal_node_id":"0.0-41.0","task_version":"0.2"},{"response_times":[434,328,359,327,1204],"keys_pressed":["rightarrow","rightarrow","rightarrow","leftarrow","leftarrow"],"horizon":5,"forced_choices":["rightarrow","rightarrow","rightarrow","leftarrow"],"right_color":"orange","left_color":"lightblue","left_mu":60,"right_mu":52,"left_numbers":[74,64,41,58,56],"right_numbers":[35,45,50,49,46],"points_earned":244,"phase":"task","trial_type":"horizons-task","trial_index":46,"time_elapsed":656767,"internal_node_id":"0.0-42.0","task_version":"0.2"},{"response_times":[615,327,910,613,1045,408,401,301,221,264],"keys_pressed":["rightarrow","leftarrow","leftarrow","rightarrow","leftarrow","leftarrow","leftarrow","leftarrow","leftarrow","leftarrow"],"horizon":10,"forced_choices":["rightarrow","leftarrow","leftarrow","rightarrow"],"right_color":"lightblue","left_color":"orange","left_mu":40,"right_mu":10,"left_numbers":[55,42,52,45,40,43,39,27,40,46],"right_numbers":[12,9,19,26,0,0,14,19,13,14],"points_earned":367,"phase":"task","trial_type":"horizons-task","trial_index":47,"time_elapsed":663375,"internal_node_id":"0.0-43.0","task_version":"0.2"},{"response_times":[381,351,385,596,3865],"keys_pressed":["leftarrow","rightarrow","leftarrow","rightarrow","leftarrow"],"horizon":5,"forced_choices":["leftarrow","rightarrow","leftarrow","rightarrow"],"right_color":"orange","left_color":"lightblue","left_mu":60,"right_mu":48,"left_numbers":[45,67,54,70,63],"right_numbers":[46,32,57,49,39],"points_earned":243,"phase":"task","trial_type":"horizons-task","trial_index":48,"time_elapsed":670455,"internal_node_id":"0.0-44.0","task_version":"0.2"},{"response_times":[682,300,424,436,2662],"keys_pressed":["leftarrow","rightarrow","rightarrow","rightarrow","leftarrow"],"horizon":5,"forced_choices":["leftarrow","rightarrow","rightarrow","rightarrow"],"right_color":"lightblue","left_color":"orange","left_mu":40,"right_mu":32,"left_numbers":[45,29,32,30,35],"right_numbers":[32,31,31,39,35],"points_earned":181,"phase":"task","trial_type":"horizons-task","trial_index":49,"time_elapsed":676461,"internal_node_id":"0.0-45.0","task_version":"0.2"},{"response_times":[491,404,384,424,1221],"keys_pressed":["rightarrow","rightarrow","leftarrow","rightarrow","rightarrow"],"horizon":5,"forced_choices":["rightarrow","rightarrow","leftarrow","rightarrow"],"right_color":"lightblue","left_color":"orange","left_mu":60,"right_mu":90,"left_numbers":[61,50,49,56,65],"right_numbers":[89,73,87,91,69],"points_earned":371,"phase":"task","trial_type":"horizons-task","trial_index":50,"time_elapsed":680887,"internal_node_id":"0.0-46.0","task_version":"0.2"},{"view_history":"[{\"page_index\":0,\"viewing_time\":1864},{\"page_index\":1,\"viewing_time\":1555}]","rt":3419,"trial_type":"instructions","trial_index":51,"time_elapsed":684307,"internal_node_id":"0.0-47.0","task_version":"0.2"},{"response_times":[1339,438,454,592,1200],"keys_pressed":["leftarrow","rightarrow","leftarrow","leftarrow","rightarrow"],"horizon":5,"forced_choices":["leftarrow","rightarrow","leftarrow","leftarrow"],"right_color":"orange","left_color":"lightblue","left_mu":40,"right_mu":36,"left_numbers":[35,66,30,30,27],"right_numbers":[34,36,35,32,13],"points_earned":144,"phase":"task","trial_type":"horizons-task","trial_index":52,"time_elapsed":689837,"internal_node_id":"0.0-48.0","task_version":"0.2"},{"response_times":[603,344,571,442,1672],"keys_pressed":["rightarrow","leftarrow","rightarrow","rightarrow","leftarrow"],"horizon":5,"forced_choices":["rightarrow","leftarrow","rightarrow","rightarrow"],"right_color":"orange","left_color":"lightblue","left_mu":60,"right_mu":30,"left_numbers":[60,66,57,59,65],"right_numbers":[23,35,28,25,50],"points_earned":207,"phase":"task","trial_type":"horizons-task","trial_index":53,"time_elapsed":694971,"internal_node_id":"0.0-49.0","task_version":"0.2"},{"response_times":[399,356,387,358,1711,834,498,1047,576,892],"keys_pressed":["leftarrow","rightarrow","rightarrow","rightarrow","leftarrow","leftarrow","leftarrow","leftarrow","leftarrow","leftarrow"],"horizon":10,"forced_choices":["leftarrow","rightarrow","rightarrow","rightarrow"],"right_color":"lightblue","left_color":"orange","left_mu":40,"right_mu":28,"left_numbers":[48,35,47,40,32,33,39,38,28,36],"right_numbers":[31,33,19,24,12,30,33,20,16,29],"points_earned":330,"phase":"task","trial_type":"horizons-task","trial_index":54,"time_elapsed":703531,"internal_node_id":"0.0-50.0","task_version":"0.2"},{"response_times":[635,381,635,1275,1309,1093,1190,530,416,353],"keys_pressed":["rightarrow","rightarrow","leftarrow","rightarrow","leftarrow","leftarrow","rightarrow","leftarrow","leftarrow","leftarrow"],"horizon":10,"forced_choices":["rightarrow","rightarrow","leftarrow","rightarrow"],"right_color":"lightblue","left_color":"orange","left_mu":60,"right_mu":56,"left_numbers":[75,81,67,67,59,57,63,59,64,61],"right_numbers":[50,45,54,55,65,81,49,54,38,66],"points_earned":566,"phase":"task","trial_type":"horizons-task","trial_index":55,"time_elapsed":712851,"internal_node_id":"0.0-51.0","task_version":"0.2"},{"response_times":[708,312,527,1622,1027],"keys_pressed":["rightarrow","leftarrow","leftarrow","rightarrow","leftarrow"],"horizon":5,"forced_choices":["rightarrow","leftarrow","leftarrow","rightarrow"],"right_color":"lightblue","left_color":"orange","left_mu":40,"right_mu":10,"left_numbers":[35,34,33,45,38],"right_numbers":[0,20,0,13,14],"points_earned":118,"phase":"task","trial_type":"horizons-task","trial_index":56,"time_elapsed":718549,"internal_node_id":"0.0-52.0","task_version":"0.2"},{"response_times":[490,286,318,335,1715,844,732,1635,1541,432],"keys_pressed":["rightarrow","leftarrow","rightarrow","leftarrow","rightarrow","leftarrow","rightarrow","rightarrow","rightarrow","rightarrow"],"horizon":10,"forced_choices":["rightarrow","leftarrow","rightarrow","leftarrow"],"right_color":"orange","left_color":"lightblue","left_mu":40,"right_mu":52,"left_numbers":[42,39,35,45,48,34,23,43,45,34],"right_numbers":[50,33,59,55,44,56,45,61,52,54],"points_earned":483,"phase":"task","trial_type":"horizons-task","trial_index":57,"time_elapsed":728382,"internal_node_id":"0.0-53.0","task_version":"0.2"},{"response_times":[596,295,818,373,3592],"keys_pressed":["rightarrow","leftarrow","leftarrow","rightarrow","leftarrow"],"horizon":5,"forced_choices":["rightarrow","leftarrow","leftarrow","rightarrow"],"right_color":"lightblue","left_color":"orange","left_mu":60,"right_mu":68,"left_numbers":[46,70,70,62,61],"right_numbers":[74,76,60,57,62],"points_earned":332,"phase":"task","trial_type":"horizons-task","trial_index":58,"time_elapsed":735558,"internal_node_id":"0.0-54.0","task_version":"0.2"},{"response_times":[413,347,451,594,2085],"keys_pressed":["rightarrow","rightarrow","leftarrow","leftarrow","leftarrow"],"horizon":5,"forced_choices":["rightarrow","rightarrow","leftarrow","leftarrow"],"right_color":"orange","left_color":"lightblue","left_mu":60,"right_mu":30,"left_numbers":[57,61,59,45,58],"right_numbers":[32,16,29,31,33],"points_earned":210,"phase":"task","trial_type":"horizons-task","trial_index":59,"time_elapsed":740950,"internal_node_id":"0.0-55.0","task_version":"0.2"},{"response_times":[389,329,380,388,2726],"keys_pressed":["leftarrow","rightarrow","leftarrow","rightarrow","rightarrow"],"horizon":5,"forced_choices":["leftarrow","rightarrow","leftarrow","rightarrow"],"right_color":"lightblue","left_color":"orange","left_mu":40,"right_mu":44,"left_numbers":[36,34,43,45,39],"right_numbers":[52,46,46,41,37],"points_earned":203,"phase":"task","trial_type":"horizons-task","trial_index":60,"time_elapsed":746666,"internal_node_id":"0.0-56.0","task_version":"0.2"},{"response_times":[561,568,346,399,1258],"keys_pressed":["leftarrow","leftarrow","rightarrow","rightarrow","rightarrow"],"horizon":5,"forced_choices":["leftarrow","leftarrow","rightarrow","rightarrow"],"right_color":"lightblue","left_color":"orange","left_mu":60,"right_mu":56,"left_numbers":[56,56,43,70,62],"right_numbers":[64,52,62,58,57],"points_earned":289,"phase":"task","trial_type":"horizons-task","trial_index":61,"time_elapsed":751300,"internal_node_id":"0.0-57.0","task_version":"0.2"},{"response_times":[375,369,369,368,2105,602,574,850,697,3101],"keys_pressed":["leftarrow","leftarrow","rightarrow","rightarrow","leftarrow","rightarrow","leftarrow","leftarrow","rightarrow","rightarrow"],"horizon":10,"forced_choices":["leftarrow","leftarrow","rightarrow","rightarrow"],"right_color":"orange","left_color":"lightblue","left_mu":40,"right_mu":36,"left_numbers":[24,32,39,36,43,53,37,22,36,31],"right_numbers":[35,33,29,23,58,36,34,37,33,20],"points_earned":299,"phase":"task","trial_type":"horizons-task","trial_index":62,"time_elapsed":762214,"internal_node_id":"0.0-58.0","task_version":"0.2"},{"response_times":[674,315,250,319,2434,362,263,246,221,219],"keys_pressed":["leftarrow","rightarrow","leftarrow","rightarrow","rightarrow","rightarrow","rightarrow","rightarrow","rightarrow","rightarrow"],"horizon":10,"forced_choices":["leftarrow","rightarrow","leftarrow","rightarrow"],"right_color":"lightblue","left_color":"orange","left_mu":60,"right_mu":90,"left_numbers":[42,72,45,63,46,81,56,60,54,57],"right_numbers":[99,98,88,89,97,81,91,96,90,87],"points_earned":816,"phase":"task","trial_type":"horizons-task","trial_index":63,"time_elapsed":769020,"internal_node_id":"0.0-59.0","task_version":"0.2"},{"response_times":[673,383,319,416,2049,931,597,550,477,344],"keys_pressed":["leftarrow","rightarrow","leftarrow","rightarrow","leftarrow","rightarrow","leftarrow","leftarrow","leftarrow","leftarrow"],"horizon":10,"forced_choices":["leftarrow","rightarrow","leftarrow","rightarrow"],"right_color":"lightblue","left_color":"orange","left_mu":40,"right_mu":44,"left_numbers":[50,43,35,26,35,44,36,50,29,36],"right_numbers":[38,36,41,33,39,33,42,49,40,40],"points_earned":373,"phase":"task","trial_type":"horizons-task","trial_index":64,"time_elapsed":777264,"internal_node_id":"0.0-60.0","task_version":"0.2"},{"response_times":[568,591,378,795,890,738,434,634,366,322],"keys_pressed":["rightarrow","rightarrow","leftarrow","leftarrow","rightarrow","rightarrow","rightarrow","rightarrow","rightarrow","rightarrow"],"horizon":10,"forced_choices":["rightarrow","rightarrow","leftarrow","leftarrow"],"right_color":"orange","left_color":"lightblue","left_mu":60,"right_mu":80,"left_numbers":[58,56,53,77,64,55,66,48,59,68],"right_numbers":[67,83,77,87,82,83,75,73,71,80],"points_earned":744,"phase":"task","trial_type":"horizons-task","trial_index":65,"time_elapsed":784483,"internal_node_id":"0.0-61.0","task_version":"0.2"},{"response_times":[356,291,293,567,1373,1217,442,434,360,336],"keys_pressed":["rightarrow","leftarrow","rightarrow","rightarrow","rightarrow","leftarrow","rightarrow","rightarrow","rightarrow","rightarrow"],"horizon":10,"forced_choices":["rightarrow","leftarrow","rightarrow","rightarrow"],"right_color":"orange","left_color":"lightblue","left_mu":40,"right_mu":52,"left_numbers":[35,44,38,26,39,33,38,33,40,34],"right_numbers":[59,53,42,51,38,47,45,42,50,57],"points_earned":461,"phase":"task","trial_type":"horizons-task","trial_index":66,"time_elapsed":791656,"internal_node_id":"0.0-62.0","task_version":"0.2"},{"response_times":[550,328,545,259,421,1282,1459,704,218,172],"keys_pressed":["rightarrow","rightarrow","leftarrow","leftarrow","rightarrow","rightarrow","leftarrow","leftarrow","leftarrow","leftarrow"],"horizon":10,"forced_choices":["rightarrow","rightarrow","leftarrow","leftarrow"],"right_color":"orange","left_color":"lightblue","left_mu":60,"right_mu":30,"left_numbers":[67,51,48,53,69,55,75,55,74,52],"right_numbers":[25,33,32,13,38,21,27,13,34,26],"points_earned":474,"phase":"task","trial_type":"horizons-task","trial_index":67,"time_elapsed":799095,"internal_node_id":"0.0-63.0","task_version":"0.2"},{"response_times":[641,378,398,497,349,411,218,214,180,167],"keys_pressed":["rightarrow","rightarrow","leftarrow","rightarrow","rightarrow","rightarrow","rightarrow","rightarrow","rightarrow","rightarrow"],"horizon":10,"forced_choices":["rightarrow","rightarrow","leftarrow","rightarrow"],"right_color":"lightblue","left_color":"orange","left_mu":60,"right_mu":90,"left_numbers":[65,70,65,70,58,51,56,56,61,64],"right_numbers":[95,96,105,79,84,88,83,92,83,73],"points_earned":838,"phase":"task","trial_type":"horizons-task","trial_index":68,"time_elapsed":804050,"internal_node_id":"0.0-64.0","task_version":"0.2"},{"response_times":[633,466,625,326,1329],"keys_pressed":["leftarrow","leftarrow","leftarrow","rightarrow","rightarrow"],"horizon":5,"forced_choices":["leftarrow","leftarrow","leftarrow","rightarrow"],"right_color":"orange","left_color":"lightblue","left_mu":40,"right_mu":60,"left_numbers":[35,40,39,29,44],"right_numbers":[61,53,68,59,66],"points_earned":239,"phase":"task","trial_type":"horizons-task","trial_index":69,"time_elapsed":808933,"internal_node_id":"0.0-65.0","task_version":"0.2"},{"response_times":[366,314,528,368,352],"keys_pressed":["rightarrow","leftarrow","leftarrow","rightarrow","rightarrow"],"horizon":5,"forced_choices":["rightarrow","leftarrow","leftarrow","rightarrow"],"right_color":"orange","left_color":"lightblue","left_mu":40,"right_mu":60,"left_numbers":[33,46,48,28,26],"right_numbers":[69,71,60,60,56],"points_earned":279,"phase":"task","trial_type":"horizons-task","trial_index":70,"time_elapsed":812363,"internal_node_id":"0.0-66.0","task_version":"0.2"},{"response_times":[368,524,284,512,329,417,1010,666,637,548],"keys_pressed":["rightarrow","rightarrow","leftarrow","leftarrow","rightarrow","rightarrow","leftarrow","leftarrow","leftarrow","leftarrow"],"horizon":10,"forced_choices":["rightarrow","rightarrow","leftarrow","leftarrow"],"right_color":"orange","left_color":"lightblue","left_mu":60,"right_mu":40,"left_numbers":[71,68,60,63,72,74,41,53,58,66],"right_numbers":[46,39,40,40,37,33,42,44,42,56],"points_earned":496,"phase":"task","trial_type":"horizons-task","trial_index":71,"time_elapsed":819160,"internal_node_id":"0.0-67.0","task_version":"0.2"},{"response_times":[675,363,513,6769,542,506,504,454,234,185],"keys_pressed":["leftarrow","rightarrow","rightarrow","leftarrow","leftarrow","leftarrow","leftarrow","leftarrow","leftarrow","leftarrow"],"horizon":10,"forced_choices":["leftarrow","rightarrow","rightarrow","leftarrow"],"right_color":"lightblue","left_color":"orange","left_mu":40,"right_mu":20,"left_numbers":[41,42,50,38,40,42,45,42,49,45],"right_numbers":[18,13,31,13,13,15,10,11,18,7],"points_earned":386,"phase":"task","trial_type":"horizons-task","trial_index":72,"time_elapsed":831414,"internal_node_id":"0.0-68.0","task_version":"0.2"},{"response_times":[406,354,425,564,356],"keys_pressed":["leftarrow","rightarrow","rightarrow","rightarrow","leftarrow"],"horizon":5,"forced_choices":["leftarrow","rightarrow","rightarrow","rightarrow"],"right_color":"orange","left_color":"lightblue","left_mu":60,"right_mu":40,"left_numbers":[70,59,58,48,44],"right_numbers":[54,39,34,46,27],"points_earned":233,"phase":"task","trial_type":"horizons-task","trial_index":73,"time_elapsed":835021,"internal_node_id":"0.0-69.0","task_version":"0.2"},{"response_times":[511,345,337,409,542,352,307,270,202,162],"keys_pressed":["rightarrow","leftarrow","rightarrow","leftarrow","rightarrow","rightarrow","rightarrow","rightarrow","rightarrow","rightarrow"],"horizon":10,"forced_choices":["rightarrow","leftarrow","rightarrow","leftarrow"],"right_color":"lightblue","left_color":"orange","left_mu":40,"right_mu":70,"left_numbers":[49,42,37,23,35,34,30,39,36,38],"right_numbers":[70,57,76,98,74,55,63,79,76,74],"points_earned":632,"phase":"task","trial_type":"horizons-task","trial_index":74,"time_elapsed":839962,"internal_node_id":"0.0-70.0","task_version":"0.2"},{"response_times":[482,280,319,338,1226],"keys_pressed":["rightarrow","leftarrow","rightarrow","leftarrow","rightarrow"],"horizon":5,"forced_choices":["rightarrow","leftarrow","rightarrow","leftarrow"],"right_color":"lightblue","left_color":"orange","left_mu":40,"right_mu":70,"left_numbers":[39,40,37,41,38],"right_numbers":[81,74,68,58,80],"points_earned":310,"phase":"task","trial_type":"horizons-task","trial_index":75,"time_elapsed":844109,"internal_node_id":"0.0-71.0","task_version":"0.2"},{"response_times":[539,354,358,414,1794],"keys_pressed":["leftarrow","leftarrow","leftarrow","rightarrow","rightarrow"],"horizon":5,"forced_choices":["leftarrow","leftarrow","leftarrow","rightarrow"],"right_color":"orange","left_color":"lightblue","left_mu":60,"right_mu":64,"left_numbers":[63,61,60,48,67],"right_numbers":[65,60,76,63,66],"points_earned":313,"phase":"task","trial_type":"horizons-task","trial_index":76,"time_elapsed":849072,"internal_node_id":"0.0-72.0","task_version":"0.2"},{"response_times":[537,362,510,367,1060],"keys_pressed":["leftarrow","leftarrow","rightarrow","rightarrow","leftarrow"],"horizon":5,"forced_choices":["leftarrow","leftarrow","rightarrow","rightarrow"],"right_color":"orange","left_color":"lightblue","left_mu":40,"right_mu":36,"left_numbers":[36,49,38,45,34],"right_numbers":[50,48,34,28,35],"points_earned":181,"phase":"task","trial_type":"horizons-task","trial_index":77,"time_elapsed":853410,"internal_node_id":"0.0-73.0","task_version":"0.2"},{"response_times":[420,353,350,383,410,1320,327,356,280,208],"keys_pressed":["leftarrow","rightarrow","rightarrow","rightarrow","leftarrow","leftarrow","leftarrow","leftarrow","leftarrow","leftarrow"],"horizon":10,"forced_choices":["leftarrow","rightarrow","rightarrow","rightarrow"],"right_color":"lightblue","left_color":"orange","left_mu":40,"right_mu":32,"left_numbers":[47,42,37,30,48,49,37,46,37,40],"right_numbers":[37,15,23,27,30,27,38,27,29,13],"points_earned":369,"phase":"task","trial_type":"horizons-task","trial_index":78,"time_elapsed":859321,"internal_node_id":"0.0-74.0","task_version":"0.2"},{"response_times":[603,384,544,362,1934,887,957,602,2038,363],"keys_pressed":["leftarrow","leftarrow","rightarrow","rightarrow","leftarrow","leftarrow","rightarrow","rightarrow","rightarrow","rightarrow"],"horizon":10,"forced_choices":["leftarrow","leftarrow","rightarrow","rightarrow"],"right_color":"orange","left_color":"lightblue","left_mu":40,"right_mu":48,"left_numbers":[35,54,34,32,50,22,45,38,22,45],"right_numbers":[53,53,44,39,58,51,57,36,41,46],"points_earned":424,"phase":"task","trial_type":"horizons-task","trial_index":79,"time_elapsed":869500,"internal_node_id":"0.0-75.0","task_version":"0.2"},{"response_times":[1092,678,370,382,1124],"keys_pressed":["rightarrow","leftarrow","rightarrow","leftarrow","rightarrow"],"horizon":5,"forced_choices":["rightarrow","leftarrow","rightarrow","leftarrow"],"right_color":"orange","left_color":"lightblue","left_mu":40,"right_mu":52,"left_numbers":[40,38,51,43,48],"right_numbers":[41,44,46,44,53],"points_earned":221,"phase":"task","trial_type":"horizons-task","trial_index":80,"time_elapsed":874649,"internal_node_id":"0.0-76.0","task_version":"0.2"},{"response_times":[510,335,364,594,3554],"keys_pressed":["rightarrow","rightarrow","leftarrow","rightarrow","leftarrow"],"horizon":5,"forced_choices":["rightarrow","rightarrow","leftarrow","rightarrow"],"right_color":"lightblue","left_color":"orange","left_mu":60,"right_mu":56,"left_numbers":[61,62,54,63,63],"right_numbers":[56,41,66,47,58],"points_earned":261,"phase":"task","trial_type":"horizons-task","trial_index":81,"time_elapsed":881508,"internal_node_id":"0.0-77.0","task_version":"0.2"},{"response_times":[486,327,413,457,1010],"keys_pressed":["rightarrow","rightarrow","leftarrow","leftarrow","rightarrow"],"horizon":5,"forced_choices":["rightarrow","rightarrow","leftarrow","leftarrow"],"right_color":"orange","left_color":"lightblue","left_mu":60,"right_mu":80,"left_numbers":[63,71,59,65,71],"right_numbers":[82,81,74,83,80],"points_earned":367,"phase":"task","trial_type":"horizons-task","trial_index":82,"time_elapsed":885706,"internal_node_id":"0.0-78.0","task_version":"0.2"},{"response_times":[472,438,354,446,374,2267,1731,410,352,302],"keys_pressed":["leftarrow","leftarrow","rightarrow","leftarrow","rightarrow","leftarrow","leftarrow","leftarrow","leftarrow","leftarrow"],"horizon":10,"forced_choices":["leftarrow","leftarrow","rightarrow","leftarrow"],"right_color":"lightblue","left_color":"orange","left_mu":60,"right_mu":68,"left_numbers":[59,64,50,61,57,61,59,58,64,60],"right_numbers":[64,56,58,77,57,53,66,68,72,67],"points_earned":601,"phase":"task","trial_type":"horizons-task","trial_index":83,"time_elapsed":894357,"internal_node_id":"0.0-79.0","task_version":"0.2"},{"response_times":[477,313,354,737,1244],"keys_pressed":["leftarrow","rightarrow","leftarrow","leftarrow","rightarrow"],"horizon":5,"forced_choices":["leftarrow","rightarrow","leftarrow","leftarrow"],"right_color":"orange","left_color":"lightblue","left_mu":40,"right_mu":48,"left_numbers":[35,43,41,22,29],"right_numbers":[51,47,58,51,41],"points_earned":186,"phase":"task","trial_type":"horizons-task","trial_index":84,"time_elapsed":898986,"internal_node_id":"0.0-80.0","task_version":"0.2"},{"response_times":[516,362,484,384,921],"keys_pressed":["leftarrow","rightarrow","rightarrow","leftarrow","leftarrow"],"horizon":5,"forced_choices":["leftarrow","rightarrow","rightarrow","leftarrow"],"right_color":"lightblue","left_color":"orange","left_mu":40,"right_mu":28,"left_numbers":[40,41,48,32,40],"right_numbers":[28,15,19,32,26],"points_earned":146,"phase":"task","trial_type":"horizons-task","trial_index":85,"time_elapsed":903155,"internal_node_id":"0.0-81.0","task_version":"0.2"},{"response_times":[399,357,277,367,1356,946,1623,521,649,442],"keys_pressed":["leftarrow","rightarrow","leftarrow","rightarrow","leftarrow","rightarrow","rightarrow","leftarrow","leftarrow","leftarrow"],"horizon":10,"forced_choices":["leftarrow","rightarrow","leftarrow","rightarrow"],"right_color":"lightblue","left_color":"orange","left_mu":40,"right_mu":32,"left_numbers":[44,37,38,38,29,38,49,35,35,38],"right_numbers":[31,25,23,28,19,40,32,32,35,27],"points_earned":344,"phase":"task","trial_type":"horizons-task","trial_index":86,"time_elapsed":911593,"internal_node_id":"0.0-82.0","task_version":"0.2"},{"response_times":[600,362,330,350,924],"keys_pressed":["rightarrow","rightarrow","leftarrow","leftarrow","leftarrow"],"horizon":5,"forced_choices":["rightarrow","rightarrow","leftarrow","leftarrow"],"right_color":"orange","left_color":"lightblue","left_mu":60,"right_mu":40,"left_numbers":[54,61,56,61,69],"right_numbers":[45,44,43,54,44],"points_earned":275,"phase":"task","trial_type":"horizons-task","trial_index":87,"time_elapsed":915667,"internal_node_id":"0.0-83.0","task_version":"0.2"},{"response_times":[394,310,307,400,420,1267,335,252,254,334],"keys_pressed":["leftarrow","rightarrow","leftarrow","leftarrow","rightarrow","leftarrow","leftarrow","leftarrow","leftarrow","leftarrow"],"horizon":10,"forced_choices":["leftarrow","rightarrow","leftarrow","leftarrow"],"right_color":"orange","left_color":"lightblue","left_mu":40,"right_mu":36,"left_numbers":[51,36,35,46,29,54,42,29,30,41],"right_numbers":[27,32,35,36,36,32,34,39,34,38],"points_earned":396,"phase":"task","trial_type":"horizons-task","trial_index":88,"time_elapsed":921442,"internal_node_id":"0.0-84.0","task_version":"0.2"},{"response_times":[403,288,348,1660,1662],"keys_pressed":["leftarrow","rightarrow","leftarrow","rightarrow","leftarrow"],"horizon":5,"forced_choices":["leftarrow","rightarrow","leftarrow","rightarrow"],"right_color":"lightblue","left_color":"orange","left_mu":40,"right_mu":32,"left_numbers":[43,27,28,33,37],"right_numbers":[30,35,30,31,32],"points_earned":174,"phase":"task","trial_type":"horizons-task","trial_index":89,"time_elapsed":927310,"internal_node_id":"0.0-85.0","task_version":"0.2"},{"response_times":[471,297,526,710,496,1634,285,970,297,284],"keys_pressed":["leftarrow","rightarrow","rightarrow","leftarrow","rightarrow","leftarrow","leftarrow","leftarrow","leftarrow","leftarrow"],"horizon":10,"forced_choices":["leftarrow","rightarrow","rightarrow","leftarrow"],"right_color":"lightblue","left_color":"orange","left_mu":40,"right_mu":28,"left_numbers":[39,35,42,46,47,29,42,35,27,38],"right_numbers":[34,27,25,20,28,24,32,23,29,28],"points_earned":336,"phase":"task","trial_type":"horizons-task","trial_index":90,"time_elapsed":934786,"internal_node_id":"0.0-86.0","task_version":"0.2"},{"response_times":[600,360,336,401,2874],"keys_pressed":["leftarrow","leftarrow","rightarrow","leftarrow","leftarrow"],"horizon":5,"forced_choices":["leftarrow","leftarrow","rightarrow","leftarrow"],"right_color":"lightblue","left_color":"orange","left_mu":60,"right_mu":68,"left_numbers":[73,64,67,74,59],"right_numbers":[68,58,71,53,72],"points_earned":341,"phase":"task","trial_type":"horizons-task","trial_index":91,"time_elapsed":940858,"internal_node_id":"0.0-87.0","task_version":"0.2"},{"rt":21820,"responses":{"age":"28","gender-categorical":"Male","gender-free-response":"","ethnicity":"Not Hispanic or Latino","race":["Asian"],"language":"Yes","fluency":"Very well"},"survey":"demographics","trial_type":"survey-demo","trial_index":92,"time_elapsed":962684,"internal_node_id":"0.0-88.0","task_version":"0.2"},{"rt":12717,"responses":{"difficulty":"5","fun":"4","clarity":"5","strategy":"None","feedback":""},"survey":"debrief","trial_type":"survey-debrief","trial_index":93,"time_elapsed":975402,"internal_node_id":"0.0-89.0","task_version":"0.2","interactions":"[{\"event\":\"focus\",\"trial\":0,\"time\":0},{\"event\":\"blur\",\"trial\":3,\"time\":210184},{\"event\":\"focus\",\"trial\":3,\"time\":214275},{\"event\":\"blur\",\"trial\":3,\"time\":235644},{\"event\":\"focus\",\"trial\":3,\"time\":237010}]"}]