[{"view_history":"[{\"page_index\":0,\"viewing_time\":17508.119999954943}]","rt":17508.62999999663,"trial_type":"instructions","trial_index":0,"time_elapsed":17519,"internal_node_id":"0.0-0.0","task_version":"0.2"},{"item_order":[0,4,8,3,1,5,6,10,9,11,2,12,7],"responses":{"Q01":"1","Q05":"1","Q09":"0","Q04":"3","Q02":"2","Q06":"1","Q07":"2","Q11":"2","Q10":"2","Q12":"0","Q03":"0","Q13":"4","Q08":"1"},"radio_events":[11309.314999962226,12279.19499995187,16540.87999998592,21050.59999995865,23807.249999954365,26344.929999962915,28460.989999992307,35229.13999995217,37232.74499998661,39546.99499998242,42350.7399999653,44835.26999998139,47854.899999976624],"key_events":[],"mouse_events":[0.26000000070780516,10317.184999992605,11309.314999962226,12279.19499995187,16540.87999998592,19008.815000008326,20523.259999987204,21050.59999995865,22748.75999998767,23807.249999954365,25753.029999963474,26344.929999962915,27858.689999964554,28460.989999992307,34541.04499996174,35229.13999995217,36302.84999997821,37232.74499998661,39546.99499998242,42350.7399999653,44835.26999998139,47854.899999976624,49545.01000000164],"rt":49548.27999998815,"survey":"ius12","trial_type":"survey-template","trial_index":1,"time_elapsed":67074,"internal_node_id":"0.0-1.0","task_version":"0.2"},{"item_order":[13,15,2,10,12,4,9,11,1,14,16,5,7,8,6,0,3],"responses":{"Q14":"0","Q16":"0","Q03":"1","Q11":"0","Q13":"1","Q05":"1","Q10":"3","Q12":"0","Q02":"0","Q15":"0","Q17":"0","Q06":"2","Q08":"1","Q09":"0","Q07":"0","Q01":"1","Q04":"1"},"radio_events":[5060.200000007171,5910.265000013169,9226.224999991246,14858.245000010356,19424.18999999063,24366.24500004109,30366.110000002664,31376.21499999659,32072.66000000527,34796.11500003375,36566.44000002416,44152.33499999158,46635.814999986906,49280.079999996815,50482.105000002775,57666.614999994636,58820.400000025984],"key_events":[],"mouse_events":[4258.475000038743,5060.200000007171,5910.265000013169,8504.30500000948,9226.224999991246,14858.245000010356,18238.515000033658,19424.18999999063,24366.24500004109,29212.425000034273,30366.110000002664,31376.21499999659,32072.66000000527,34796.11500003375,36566.44000002416,44152.33499999158,46635.814999986906,49280.079999996815,50482.105000002775,56528.679999988526,57666.614999994636,58820.400000025984,59734.579999989364],"rt":59738.23000001721,"survey":"pswq","trial_type":"survey-template","trial_index":2,"time_elapsed":126819,"internal_node_id":"0.0-2.0","task_version":"0.2"},{"item_order":[14,13,3,10,2,7,6,12,0,9,5,15,4,8,1,11],"responses":{"Q15":"1","Q14":"1","Q04":"4","Q11":"1","Q03":"4","Q08":"3","Q07":"4","Q13":"4","Q01":"1","Q10":"1","Q06":"3","Q16":"5","Q05":"1","Q09":"1","Q02":"1","Q12":"4"},"radio_events":[12171.94999998901,13429.884999990463,20407.65000000829,23076.115000003483,30093.87500002049,32977.60500002187,34305.99500000244,40073.44499998726,41379.92000003578,45377.719999989495,49253.71499999892,52385.60500001768,60934.180000040215,64156.079999986105,68392.20000000205,73650.03000001889],"key_events":[],"mouse_events":[12171.94999998901,13429.884999990463,20407.65000000829,23076.115000003483,26624.164999986533,30093.87500002049,32063.96500003757,32977.60500002187,33746.27500004135,34305.99500000244,38007.71000003442,40073.44499998726,40780.21500003524,41379.92000003578,45377.719999989495,47763.855000026524,49253.71499999892,52385.60500001768,60934.180000040215,64156.079999986105,68392.20000000205,69017.87999999942,73650.03000001889,75123.84499999462],"rt":75128.17500001984,"survey":"nfc","trial_type":"survey-template","trial_index":3,"time_elapsed":201954,"internal_node_id":"0.0-3.0","task_version":"0.2"},{"view_history":"[{\"page_index\":0,\"viewing_time\":2065.5850000330247},{\"page_index\":1,\"viewing_time\":6718.215000000782},{\"page_index\":2,\"viewing_time\":4763.964999991003},{\"page_index\":3,\"viewing_time\":7920.044999977108},{\"page_index\":4,\"viewing_time\":3419.8550000437535},{\"page_index\":5,\"viewing_time\":2893.9050000044517},{\"page_index\":6,\"viewing_time\":7506.429999950342},{\"page_index\":7,\"viewing_time\":7531.995000026654},{\"page_index\":8,\"viewing_time\":4733.535000006668},{\"page_index\":9,\"viewing_time\":4744.514999969397}]","rt":52298.39000001084,"trial_type":"instructions","trial_index":4,"time_elapsed":254254,"internal_node_id":"0.0-4.0-0.0","task_version":"0.2"},{"response_times":[1120.1499999733642,1033.8050000136718,695.0399999623187,716.0700000240467,4877.669999958016],"keys_pressed":["rightarrow","leftarrow","rightarrow","rightarrow","leftarrow"],"horizon":5,"forced_choices":["rightarrow","leftarrow","rightarrow","rightarrow"],"right_color":"lightblue","left_color":"orange","left_mu":40,"right_mu":20,"left_numbers":[39,41,29,40,37],"right_numbers":[9,22,29,20,22],"points_earned":136,"phase":"practice","trial_type":"horizons-task","trial_index":5,"time_elapsed":264215,"internal_node_id":"0.0-4.0-1.0","task_version":"0.2"},{"response_times":[1474.835000000894,617.6850000047125,543.9750000368804,691.2350000347942,4250.170000013895,2221.4099999982864,1144.9649999849498,3318.955000024289,825.4200000083074,513.2949999533594],"keys_pressed":["leftarrow","leftarrow","rightarrow","rightarrow","rightarrow","rightarrow","rightarrow","rightarrow","rightarrow","rightarrow"],"horizon":10,"forced_choices":["leftarrow","leftarrow","rightarrow","rightarrow"],"right_color":"orange","left_color":"lightblue","left_mu":60,"right_mu":70,"left_numbers":[59,61,56,50,67,57,71,56,67,60],"right_numbers":[76,68,62,69,71,79,68,83,59,68],"points_earned":679,"phase":"practice","trial_type":"horizons-task","trial_index":6,"time_elapsed":281322,"internal_node_id":"0.0-4.0-2.0","task_version":"0.2"},{"view_history":"[{\"page_index\":0,\"viewing_time\":1281.2300000223331},{\"page_index\":1,\"viewing_time\":2971.7949999612756},{\"page_index\":2,\"viewing_time\":2156.1949999886565},{\"page_index\":3,\"viewing_time\":1796.0000000311993}]","rt":8205.550000013318,"trial_type":"instructions","trial_index":7,"time_elapsed":289529,"internal_node_id":"0.0-4.0-3.0","task_version":"0.2"},{"responses":["true","false","true"],"num_errors":0,"rt":7783.86500000488,"trial_type":"horizons-comprehension","trial_index":8,"time_elapsed":297316,"internal_node_id":"0.0-4.0-4.0","task_version":"0.2"},{"trial_type":"call-function","trial_index":9,"time_elapsed":297321,"internal_node_id":"0.0-5.0","task_version":"0.2"},{"view_history":"[{\"page_index\":0,\"viewing_time\":1227.6849999907427},{\"page_index\":1,\"viewing_time\":9093.664999993052}]","rt":10321.82000001194,"trial_type":"instructions","trial_index":10,"time_elapsed":307643,"internal_node_id":"0.0-6.0","task_version":"0.2"},{"response_times":[7100.440000009257,793.0199999827892,690.7050000154413,688.7049999786541,2584.3799999565817],"keys_pressed":["leftarrow","rightarrow","leftarrow","rightarrow","rightarrow"],"horizon":5,"forced_choices":["leftarrow","rightarrow","leftarrow","rightarrow"],"right_color":"lightblue","left_color":"orange","left_mu":40,"right_mu":36,"left_numbers":[29,33,38,51,34],"right_numbers":[42,33,49,36,26],"points_earned":162,"phase":"task","trial_type":"horizons-task","trial_index":11,"time_elapsed":321009,"internal_node_id":"0.0-7.0","task_version":"0.2"},{"response_times":[1325.005000049714,1041.9499999843538,526.6750000300817,586.574999964796,2501.255000010133,1423.2049999991432,2391.6599999647588,605.4700000095181,574.7649999684654,462.44999999180436],"keys_pressed":["leftarrow","leftarrow","rightarrow","rightarrow","rightarrow","rightarrow","rightarrow","rightarrow","rightarrow","rightarrow"],"horizon":10,"forced_choices":["leftarrow","leftarrow","rightarrow","rightarrow"],"right_color":"orange","left_color":"lightblue","left_mu":40,"right_mu":44,"left_numbers":[34,28,35,37,34,36,50,34,43,44],"right_numbers":[49,37,40,36,45,41,44,52,52,40],"points_earned":412,"phase":"task","trial_type":"horizons-task","trial_index":12,"time_elapsed":333953,"internal_node_id":"0.0-8.0","task_version":"0.2"},{"response_times":[1330.4850000422448,666.9849999598227,717.3799999873154,979.9150000326335,2404.7549999668263,1032.569999981206,2082.6450000167824,1101.8550000153482,551.900000020396,410.1549999904819],"keys_pressed":["rightarrow","rightarrow","rightarrow","leftarrow","leftarrow","leftarrow","leftarrow","leftarrow","leftarrow","leftarrow"],"horizon":10,"forced_choices":["rightarrow","rightarrow","rightarrow","leftarrow"],"right_color":"lightblue","left_color":"orange","left_mu":60,"right_mu":48,"left_numbers":[54,64,59,60,76,63,59,63,59,69],"right_numbers":[50,51,57,42,35,38,49,48,42,48],"points_earned":607,"phase":"task","trial_type":"horizons-task","trial_index":13,"time_elapsed":346737,"internal_node_id":"0.0-9.0","task_version":"0.2"},{"response_times":[1597.9650000226684,589.0999999828637,578.0249999952503,674.9299999792129,958.9000000269152,779.4850000063889,538.2600000011735,435.8549999888055,389.98500001616776,376.8950000521727],"keys_pressed":["leftarrow","rightarrow","rightarrow","rightarrow","rightarrow","rightarrow","rightarrow","rightarrow","rightarrow","rightarrow"],"horizon":10,"forced_choices":["leftarrow","rightarrow","rightarrow","rightarrow"],"right_color":"orange","left_color":"lightblue","left_mu":60,"right_mu":80,"left_numbers":[60,67,51,64,52,64,57,59,53,61],"right_numbers":[81,76,80,83,87,90,78,61,75,81],"points_earned":771,"phase":"task","trial_type":"horizons-task","trial_index":14,"time_elapsed":355173,"internal_node_id":"0.0-10.0","task_version":"0.2"},{"response_times":[978.9400000008754,661.870000010822,565.5649999971502,641.8000000412576,2518.8450000132434],"keys_pressed":["leftarrow","leftarrow","leftarrow","rightarrow","leftarrow"],"horizon":5,"forced_choices":["leftarrow","leftarrow","leftarrow","rightarrow"],"right_color":"lightblue","left_color":"orange","left_mu":40,"right_mu":36,"left_numbers":[47,31,38,34,47],"right_numbers":[35,40,44,35,35],"points_earned":198,"phase":"task","trial_type":"horizons-task","trial_index":15,"time_elapsed":362042,"internal_node_id":"0.0-11.0","task_version":"0.2"},{"response_times":[748.9799999748357,633.4349999669939,792.600000044331,673.0499999830499,990.4600000008941],"keys_pressed":["rightarrow","rightarrow","leftarrow","rightarrow","rightarrow"],"horizon":5,"forced_choices":["rightarrow","rightarrow","leftarrow","rightarrow"],"right_color":"lightblue","left_color":"orange","left_mu":60,"right_mu":90,"left_numbers":[57,62,50,59,62],"right_numbers":[86,85,90,94,93],"points_earned":408,"phase":"task","trial_type":"horizons-task","trial_index":16,"time_elapsed":367385,"internal_node_id":"0.0-12.0","task_version":"0.2"},{"response_times":[1111.559999990277,529.099999985192,740.15500000678,757.5949999736622,2531.734999967739,2906.105000001844,861.1899999668822,750.5900000105612,395.2549999812618,260.8750000363216],"keys_pressed":["rightarrow","leftarrow","leftarrow","rightarrow","rightarrow","rightarrow","leftarrow","rightarrow","rightarrow","rightarrow"],"horizon":10,"forced_choices":["rightarrow","leftarrow","leftarrow","rightarrow"],"right_color":"lightblue","left_color":"orange","left_mu":60,"right_mu":68,"left_numbers":[66,72,56,60,46,50,53,62,63,79],"right_numbers":[70,76,61,63,65,44,53,56,61,70],"points_earned":610,"phase":"task","trial_type":"horizons-task","trial_index":17,"time_elapsed":379733,"internal_node_id":"0.0-13.0","task_version":"0.2"},{"response_times":[729.4199999887496,493.0600000079721,679.0299999993294,1264.9650000385009,2768.1250000023283],"keys_pressed":["rightarrow","leftarrow","leftarrow","leftarrow","leftarrow"],"horizon":5,"forced_choices":["rightarrow","leftarrow","leftarrow","leftarrow"],"right_color":"lightblue","left_color":"orange","left_mu":60,"right_mu":56,"left_numbers":[58,54,49,61,63],"right_numbers":[53,63,50,61,59],"points_earned":280,"phase":"task","trial_type":"horizons-task","trial_index":18,"time_elapsed":387172,"internal_node_id":"0.0-14.0","task_version":"0.2"},{"response_times":[710.724999953527,527.9699999955483,884.5350000192411,762.9549999837764,1272.7300000260584,6581.39000000665,758.414999989327,526.1049999971874,476.23000002931803,369.56000002101064],"keys_pressed":["rightarrow","leftarrow","leftarrow","rightarrow","leftarrow","leftarrow","leftarrow","leftarrow","leftarrow","leftarrow"],"horizon":10,"forced_choices":["rightarrow","leftarrow","leftarrow","rightarrow"],"right_color":"orange","left_color":"lightblue","left_mu":60,"right_mu":72,"left_numbers":[67,63,71,56,49,69,68,63,42,51],"right_numbers":[63,81,61,62,78,71,84,76,74,74],"points_earned":601,"phase":"task","trial_type":"horizons-task","trial_index":19,"time_elapsed":401547,"internal_node_id":"0.0-15.0","task_version":"0.2"},{"response_times":[1024.135000014212,517.2599999932572,607.6500000199303,807.1299999719486,2452.419999986887,3172.5699999951757,647.5000000209548,993.4050000156276,391.39999996405095,376.7900000093505],"keys_pressed":["rightarrow","leftarrow","rightarrow","rightarrow","leftarrow","leftarrow","rightarrow","rightarrow","rightarrow","rightarrow"],"horizon":10,"forced_choices":["rightarrow","leftarrow","rightarrow","rightarrow"],"right_color":"orange","left_color":"lightblue","left_mu":40,"right_mu":52,"left_numbers":[47,52,50,40,45,42,54,33,32,55],"right_numbers":[52,36,49,44,47,53,56,70,63,44],"points_earned":517,"phase":"task","trial_type":"horizons-task","trial_index":20,"time_elapsed":414042,"internal_node_id":"0.0-16.0","task_version":"0.2"},{"response_times":[1467.1300000045449,681.4700000104494,488.81000000983477,673.4899999573827,688.2650000043213],"keys_pressed":["leftarrow","leftarrow","rightarrow","leftarrow","leftarrow"],"horizon":5,"forced_choices":["leftarrow","leftarrow","rightarrow","leftarrow"],"right_color":"orange","left_color":"lightblue","left_mu":60,"right_mu":30,"left_numbers":[50,52,62,61,56],"right_numbers":[24,19,35,29,30],"points_earned":254,"phase":"task","trial_type":"horizons-task","trial_index":21,"time_elapsed":419546,"internal_node_id":"0.0-17.0","task_version":"0.2"},{"response_times":[619.780000008177,482.0199999958277,544.9299999745563,664.0400000032969,976.749999972526,592.8600000333972,400.6150000495836,347.234999993816,301.7450000043027,277.7250000508502],"keys_pressed":["rightarrow","rightarrow","leftarrow","leftarrow","leftarrow","leftarrow","leftarrow","leftarrow","leftarrow","leftarrow"],"horizon":10,"forced_choices":["rightarrow","rightarrow","leftarrow","leftarrow"],"right_color":"lightblue","left_color":"orange","left_mu":40,"right_mu":28,"left_numbers":[42,44,38,49,49,32,30,36,42,37],"right_numbers":[39,36,28,30,46,28,35,17,18,16],"points_earned":388,"phase":"task","trial_type":"horizons-task","trial_index":22,"time_elapsed":426258,"internal_node_id":"0.0-18.0","task_version":"0.2"},{"response_times":[607.5450000353158,553.7199999671429,445.10499999159947,485.820000001695,626.3850000104867],"keys_pressed":["rightarrow","rightarrow","rightarrow","leftarrow","rightarrow"],"horizon":5,"forced_choices":["rightarrow","rightarrow","rightarrow","leftarrow"],"right_color":"lightblue","left_color":"orange","left_mu":40,"right_mu":70,"left_numbers":[39,33,32,48,55],"right_numbers":[64,81,72,76,65],"points_earned":330,"phase":"task","trial_type":"horizons-task","trial_index":23,"time_elapsed":430482,"internal_node_id":"0.0-19.0","task_version":"0.2"},{"response_times":[544.4499999866821,375.76000002445653,764.4800000125542,821.1050000390969,823.015000030864],"keys_pressed":["rightarrow","leftarrow","leftarrow","leftarrow","leftarrow"],"horizon":5,"forced_choices":["rightarrow","leftarrow","leftarrow","leftarrow"],"right_color":"orange","left_color":"lightblue","left_mu":40,"right_mu":10,"left_numbers":[41,38,52,39,37],"right_numbers":[5,10,22,4,7],"points_earned":171,"phase":"task","trial_type":"horizons-task","trial_index":24,"time_elapsed":435315,"internal_node_id":"0.0-20.0","task_version":"0.2"},{"response_times":[795.5950000323355,563.9400000218302,457.63499999884516,605.1950000110082,1101.9000000087544],"keys_pressed":["leftarrow","rightarrow","leftarrow","rightarrow","leftarrow"],"horizon":5,"forced_choices":["leftarrow","rightarrow","leftarrow","rightarrow"],"right_color":"lightblue","left_color":"orange","left_mu":60,"right_mu":40,"left_numbers":[52,63,68,56,64],"right_numbers":[40,45,38,36,38],"points_earned":265,"phase":"task","trial_type":"horizons-task","trial_index":25,"time_elapsed":440343,"internal_node_id":"0.0-21.0","task_version":"0.2"},{"response_times":[8520.069999969564,527.2699999623001,441.48000003769994,613.1900000036694,1488.0450000055134,594.9450000189245,439.3350000027567,314.5999999833293,349.480000033509,250.21500000730157],"keys_pressed":["leftarrow","rightarrow","leftarrow","leftarrow","leftarrow","leftarrow","leftarrow","leftarrow","leftarrow","leftarrow"],"horizon":10,"forced_choices":["leftarrow","rightarrow","leftarrow","leftarrow"],"right_color":"lightblue","left_color":"orange","left_mu":60,"right_mu":52,"left_numbers":[53,60,51,65,63,68,51,64,73,72],"right_numbers":[54,41,63,50,47,50,40,63,55,48],"points_earned":601,"phase":"task","trial_type":"horizons-task","trial_index":26,"time_elapsed":455387,"internal_node_id":"0.0-22.0","task_version":"0.2"},{"response_times":[699.3800000054762,545.4049999825656,514.774999988731,509.27499996032566,1027.349999989383],"keys_pressed":["rightarrow","rightarrow","leftarrow","leftarrow","leftarrow"],"horizon":5,"forced_choices":["rightarrow","rightarrow","leftarrow","leftarrow"],"right_color":"lightblue","left_color":"orange","left_mu":40,"right_mu":28,"left_numbers":[36,45,42,52,41],"right_numbers":[34,35,27,32,21],"points_earned":204,"phase":"task","trial_type":"horizons-task","trial_index":27,"time_elapsed":460192,"internal_node_id":"0.0-23.0","task_version":"0.2"},{"response_times":[644.5950000197627,447.4400000181049,578.5899999900721,423.1999999610707,767.9900000221096,490.45500002102926,406.21500002453104,301.1350000160746,223.14999997615814,154.84000003198162],"keys_pressed":["leftarrow","rightarrow","rightarrow","leftarrow","leftarrow","leftarrow","leftarrow","leftarrow","leftarrow","leftarrow"],"horizon":10,"forced_choices":["leftarrow","rightarrow","rightarrow","leftarrow"],"right_color":"orange","left_color":"lightblue","left_mu":60,"right_mu":30,"left_numbers":[45,46,66,70,53,57,59,51,64,64],"right_numbers":[25,33,15,37,25,20,30,21,47,32],"points_earned":511,"phase":"task","trial_type":"horizons-task","trial_index":28,"time_elapsed":466135,"internal_node_id":"0.0-24.0","task_version":"0.2"},{"response_times":[610.8749999548309,490.4349999851547,410.2100000018254,483.36000001290813,703.670000017155],"keys_pressed":["rightarrow","rightarrow","leftarrow","leftarrow","rightarrow"],"horizon":5,"forced_choices":["rightarrow","rightarrow","leftarrow","leftarrow"],"right_color":"orange","left_color":"lightblue","left_mu":40,"right_mu":32,"left_numbers":[40,43,34,21,26],"right_numbers":[36,43,44,30,27],"points_earned":161,"phase":"task","trial_type":"horizons-task","trial_index":29,"time_elapsed":470338,"internal_node_id":"0.0-25.0","task_version":"0.2"},{"response_times":[537.880000018049,509.7449999884702,511.4949999842793,512.2799999662675,1148.0800000135787,784.0100000030361,399.440000008326,303.7299999850802,284.990000014659,332.5400000321679],"keys_pressed":["leftarrow","leftarrow","rightarrow","leftarrow","leftarrow","leftarrow","leftarrow","leftarrow","leftarrow","leftarrow"],"horizon":10,"forced_choices":["leftarrow","leftarrow","rightarrow","leftarrow"],"right_color":"orange","left_color":"lightblue","left_mu":60,"right_mu":30,"left_numbers":[46,65,58,46,54,56,62,48,55,51],"right_numbers":[30,19,16,16,41,28,37,36,38,40],"points_earned":499,"phase":"task","trial_type":"horizons-task","trial_index":30,"time_elapsed":477167,"internal_node_id":"0.0-26.0","task_version":"0.2"},{"response_times":[510.5799999437295,387.2949999640696,384.2949999962002,540.1950000086799,1387.6799999852665],"keys_pressed":["leftarrow","rightarrow","leftarrow","rightarrow","rightarrow"],"horizon":5,"forced_choices":["leftarrow","rightarrow","leftarrow","rightarrow"],"right_color":"orange","left_color":"lightblue","left_mu":60,"right_mu":64,"left_numbers":[66,67,68,72,69],"right_numbers":[66,69,57,75,64],"points_earned":342,"phase":"task","trial_type":"horizons-task","trial_index":31,"time_elapsed":481881,"internal_node_id":"0.0-27.0","task_version":"0.2"},{"response_times":[527.0000000018626,563.7050000368617,440.6650000018999,560.6600000173785,695.5050000105985],"keys_pressed":["rightarrow","rightarrow","leftarrow","leftarrow","leftarrow"],"horizon":5,"forced_choices":["rightarrow","rightarrow","leftarrow","leftarrow"],"right_color":"orange","left_color":"lightblue","left_mu":40,"right_mu":10,"left_numbers":[33,51,31,42,46],"right_numbers":[7,4,0,7,11],"points_earned":130,"phase":"task","trial_type":"horizons-task","trial_index":32,"time_elapsed":486173,"internal_node_id":"0.0-28.0","task_version":"0.2"},{"response_times":[493.8949999632314,390.4399999883026,417.94499999377877,621.4950000285171,1312.0950000011362],"keys_pressed":["rightarrow","leftarrow","rightarrow","leftarrow","rightarrow"],"horizon":5,"forced_choices":["rightarrow","leftarrow","rightarrow","leftarrow"],"right_color":"orange","left_color":"lightblue","left_mu":40,"right_mu":60,"left_numbers":[41,40,37,51,44],"right_numbers":[53,50,61,55,63],"points_earned":268,"phase":"task","trial_type":"horizons-task","trial_index":33,"time_elapsed":490914,"internal_node_id":"0.0-29.0","task_version":"0.2"},{"response_times":[583.0499999574386,470.4649999621324,522.6600000169128,659.6799999824725,743.7049999716692],"keys_pressed":["leftarrow","rightarrow","rightarrow","rightarrow","leftarrow"],"horizon":5,"forced_choices":["leftarrow","rightarrow","rightarrow","rightarrow"],"right_color":"orange","left_color":"lightblue","left_mu":40,"right_mu":20,"left_numbers":[36,19,40,44,48],"right_numbers":[26,17,27,26,27],"points_earned":154,"phase":"task","trial_type":"horizons-task","trial_index":34,"time_elapsed":495398,"internal_node_id":"0.0-30.0","task_version":"0.2"},{"response_times":[9340.314999979455,431.2150000478141,521.2249999749474,464.6550000179559,459.5250000129454,3910.4600000428036,478.58500003349036,675.7399999769405,181.39000004157424,207.28500001132488],"keys_pressed":["leftarrow","leftarrow","rightarrow","leftarrow","rightarrow","leftarrow","leftarrow","leftarrow","leftarrow","leftarrow"],"horizon":10,"forced_choices":["leftarrow","leftarrow","rightarrow","leftarrow"],"right_color":"orange","left_color":"lightblue","left_mu":60,"right_mu":64,"left_numbers":[74,72,75,67,58,64,49,54,76,78],"right_numbers":[74,64,63,53,65,58,62,71,76,58],"points_earned":662,"phase":"task","trial_type":"horizons-task","trial_index":35,"time_elapsed":513574,"internal_node_id":"0.0-31.0","task_version":"0.2"},{"response_times":[597.1149999531917,413.27999997884035,412.465000001248,570.8600000361912,1125.3300000098534],"keys_pressed":["rightarrow","rightarrow","leftarrow","rightarrow","leftarrow"],"horizon":5,"forced_choices":["rightarrow","rightarrow","leftarrow","rightarrow"],"right_color":"lightblue","left_color":"orange","left_mu":60,"right_mu":40,"left_numbers":[60,61,61,65,55],"right_numbers":[54,48,44,36,41],"points_earned":254,"phase":"task","trial_type":"horizons-task","trial_index":36,"time_elapsed":518196,"internal_node_id":"0.0-32.0","task_version":"0.2"},{"response_times":[591.9499999727122,446.69499999145046,635.7199999620207,761.2950000329874,3505.0600000540726,615.2149999979883,392.8750000195578,250.60500000836328,310.60000002617016,224.14999996544793],"keys_pressed":["rightarrow","leftarrow","leftarrow","leftarrow","leftarrow","leftarrow","leftarrow","leftarrow","leftarrow","leftarrow"],"horizon":10,"forced_choices":["rightarrow","leftarrow","leftarrow","leftarrow"],"right_color":"orange","left_color":"lightblue","left_mu":40,"right_mu":10,"left_numbers":[44,26,31,37,42,42,44,43,46,33],"right_numbers":[19,20,11,13,5,18,10,19,0,5],"points_earned":363,"phase":"task","trial_type":"horizons-task","trial_index":37,"time_elapsed":527435,"internal_node_id":"0.0-33.0","task_version":"0.2"},{"response_times":[729.5849999645725,452.7900000102818,451.85499999206513,455.3749999613501,2341.6549999965355],"keys_pressed":["rightarrow","rightarrow","leftarrow","rightarrow","rightarrow"],"horizon":5,"forced_choices":["rightarrow","rightarrow","leftarrow","rightarrow"],"right_color":"lightblue","left_color":"orange","left_mu":40,"right_mu":28,"left_numbers":[26,43,32,34,43],"right_numbers":[22,25,29,41,14],"points_earned":134,"phase":"task","trial_type":"horizons-task","trial_index":38,"time_elapsed":533373,"internal_node_id":"0.0-34.0","task_version":"0.2"},{"response_times":[814.6100000012666,451.4949999866076,459.09000001847744,371.1949999560602,1185.1499999756925,394.9900000006892,240.48999999649823,233.6049999576062,222.5849999813363,224.0299999830313],"keys_pressed":["rightarrow","leftarrow","rightarrow","leftarrow","rightarrow","rightarrow","rightarrow","rightarrow","rightarrow","rightarrow"],"horizon":10,"forced_choices":["rightarrow","leftarrow","rightarrow","leftarrow"],"right_color":"lightblue","left_color":"orange","left_mu":60,"right_mu":90,"left_numbers":[60,73,61,63,69,51,52,74,60,67],"right_numbers":[85,77,91,83,95,83,100,98,88,77],"points_earned":853,"phase":"task","trial_type":"horizons-task","trial_index":39,"time_elapsed":539476,"internal_node_id":"0.0-35.0","task_version":"0.2"},{"response_times":[617.8499999805354,495.08000002242625,390.97000000765547,618.190000008326,1744.6900000213645],"keys_pressed":["leftarrow","leftarrow","rightarrow","leftarrow","leftarrow"],"horizon":5,"forced_choices":["leftarrow","leftarrow","rightarrow","leftarrow"],"right_color":"orange","left_color":"lightblue","left_mu":60,"right_mu":64,"left_numbers":[68,56,76,63,51],"right_numbers":[53,61,61,59,59],"points_earned":299,"phase":"task","trial_type":"horizons-task","trial_index":40,"time_elapsed":544847,"internal_node_id":"0.0-36.0","task_version":"0.2"},{"response_times":[572.2599999862723,389.1849999781698,624.1399999707937,486.3699999987148,597.7100000018254,400.75999998953193,311.3899999880232,216.054999968037,229.01000001002103,225.09500000160187],"keys_pressed":["rightarrow","leftarrow","leftarrow","rightarrow","rightarrow","rightarrow","rightarrow","rightarrow","rightarrow","rightarrow"],"horizon":10,"forced_choices":["rightarrow","leftarrow","leftarrow","rightarrow"],"right_color":"lightblue","left_color":"orange","left_mu":40,"right_mu":70,"left_numbers":[41,42,41,41,35,39,47,47,51,45],"right_numbers":[79,79,79,60,57,82,74,63,69,79],"points_earned":646,"phase":"task","trial_type":"horizons-task","trial_index":41,"time_elapsed":550403,"internal_node_id":"0.0-37.0","task_version":"0.2"},{"response_times":[626.4000000082888,378.8549999590032,519.3050000234507,753.7299999967217,2075.06000000285,2883.2200000179,1126.845000020694,813.8049999834038,1794.594999984838,235.73000001488253],"keys_pressed":["rightarrow","leftarrow","leftarrow","leftarrow","rightarrow","leftarrow","rightarrow","leftarrow","leftarrow","leftarrow"],"horizon":10,"forced_choices":["rightarrow","leftarrow","leftarrow","leftarrow"],"right_color":"lightblue","left_color":"orange","left_mu":60,"right_mu":56,"left_numbers":[64,67,47,58,53,58,70,64,60,71],"right_numbers":[64,62,50,46,48,46,55,61,66,54],"points_earned":592,"phase":"task","trial_type":"horizons-task","trial_index":42,"time_elapsed":563115,"internal_node_id":"0.0-38.0","task_version":"0.2"},{"response_times":[605.0700000487268,491.4449999923818,441.67999998899177,700.795000011567,492.9850000189617,350.45999998692423,243.76499996287748,223.14499999629334,232.40500001702458,229.7450000187382],"keys_pressed":["rightarrow","rightarrow","rightarrow","leftarrow","rightarrow","rightarrow","rightarrow","rightarrow","rightarrow","rightarrow"],"horizon":10,"forced_choices":["rightarrow","rightarrow","rightarrow","leftarrow"],"right_color":"lightblue","left_color":"orange","left_mu":40,"right_mu":70,"left_numbers":[40,37,43,31,28,23,47,33,24,37],"right_numbers":[70,61,77,70,78,70,68,71,68,62],"points_earned":656,"phase":"task","trial_type":"horizons-task","trial_index":43,"time_elapsed":568631,"internal_node_id":"0.0-39.0","task_version":"0.2"},{"response_times":[5487.484999990556,373.1699999771081,410.8450000057928,519.5999999996275,1106.9600000046194,365.0400000042282,232.07499994896352,216.80499997455627,188.1450000219047,163.02999999606982],"keys_pressed":["leftarrow","leftarrow","rightarrow","leftarrow","rightarrow","rightarrow","rightarrow","rightarrow","rightarrow","rightarrow"],"horizon":10,"forced_choices":["leftarrow","leftarrow","rightarrow","leftarrow"],"right_color":"orange","left_color":"lightblue","left_mu":40,"right_mu":60,"left_numbers":[43,39,26,48,32,33,36,24,36,36],"right_numbers":[58,72,51,56,56,75,69,72,61,49],"points_earned":563,"phase":"task","trial_type":"horizons-task","trial_index":44,"time_elapsed":579198,"internal_node_id":"0.0-40.0","task_version":"0.2"},{"response_times":[442.99500004854053,308.23500000406057,337.1649999753572,747.1800000057556,832.7900000149384],"keys_pressed":["rightarrow","leftarrow","rightarrow","rightarrow","rightarrow"],"horizon":5,"forced_choices":["rightarrow","leftarrow","rightarrow","rightarrow"],"right_color":"lightblue","left_color":"orange","left_mu":40,"right_mu":48,"left_numbers":[31,25,26,43,44],"right_numbers":[46,52,41,47,45],"points_earned":204,"phase":"task","trial_type":"horizons-task","trial_index":45,"time_elapsed":583372,"internal_node_id":"0.0-41.0","task_version":"0.2"},{"response_times":[494.7849999880418,442.7099999738857,508.7000000057742,503.2999999821186,1395.6899999757297],"keys_pressed":["leftarrow","rightarrow","rightarrow","leftarrow","rightarrow"],"horizon":5,"forced_choices":["leftarrow","rightarrow","rightarrow","leftarrow"],"right_color":"lightblue","left_color":"orange","left_mu":60,"right_mu":52,"left_numbers":[78,67,66,36,58],"right_numbers":[45,52,55,53,48],"points_earned":269,"phase":"task","trial_type":"horizons-task","trial_index":46,"time_elapsed":588223,"internal_node_id":"0.0-42.0","task_version":"0.2"},{"response_times":[825.3550000372343,431.2999999965541,406.0600000084378,655.4349999642,1366.1300000385381,529.3299999902956,358.60500001581386,207.4999999604188,204.33500001672655,210.26500000152737],"keys_pressed":["leftarrow","rightarrow","leftarrow","leftarrow","rightarrow","rightarrow","rightarrow","rightarrow","rightarrow","rightarrow"],"horizon":10,"forced_choices":["leftarrow","rightarrow","leftarrow","leftarrow"],"right_color":"orange","left_color":"lightblue","left_mu":60,"right_mu":72,"left_numbers":[56,58,59,64,55,46,47,79,34,46],"right_numbers":[64,65,79,69,65,87,65,59,76,71],"points_earned":667,"phase":"task","trial_type":"horizons-task","trial_index":47,"time_elapsed":594921,"internal_node_id":"0.0-43.0","task_version":"0.2"},{"response_times":[697.6600000052713,494.41000004298985,481.6949999658391,442.9749999544583,647.8600000264123,461.20999997947365,357.0700000273064,203.40500003658235,198.02999997045845,205.83999995142221],"keys_pressed":["leftarrow","leftarrow","leftarrow","rightarrow","rightarrow","rightarrow","rightarrow","rightarrow","rightarrow","rightarrow"],"horizon":10,"forced_choices":["leftarrow","leftarrow","leftarrow","rightarrow"],"right_color":"orange","left_color":"lightblue","left_mu":40,"right_mu":44,"left_numbers":[35,30,40,39,44,16,43,39,38,66],"right_numbers":[41,35,45,50,47,37,40,44,50,39],"points_earned":412,"phase":"task","trial_type":"horizons-task","trial_index":48,"time_elapsed":600616,"internal_node_id":"0.0-44.0","task_version":"0.2"},{"response_times":[453.0199999571778,385.065000038594,442.4800000269897,369.69999998109415,738.3649999974295,393.9949999912642,173.97000000346452,218.5400000307709,171.280000009574,513.8150000129826],"keys_pressed":["leftarrow","rightarrow","leftarrow","rightarrow","leftarrow","leftarrow","leftarrow","leftarrow","leftarrow","leftarrow"],"horizon":10,"forced_choices":["leftarrow","rightarrow","leftarrow","rightarrow"],"right_color":"orange","left_color":"lightblue","left_mu":40,"right_mu":20,"left_numbers":[39,58,44,53,48,24,29,42,44,33],"right_numbers":[10,22,17,11,28,23,26,19,11,29],"points_earned":336,"phase":"task","trial_type":"horizons-task","trial_index":49,"time_elapsed":605981,"internal_node_id":"0.0-45.0","task_version":"0.2"},{"response_times":[501.74999999580905,359.46500004502013,861.0150000313297,871.7450000112876,413.0299999960698],"keys_pressed":["leftarrow","rightarrow","rightarrow","rightarrow","rightarrow"],"horizon":5,"forced_choices":["leftarrow","rightarrow","rightarrow","rightarrow"],"right_color":"orange","left_color":"lightblue","left_mu":60,"right_mu":80,"left_numbers":[56,53,57,63,43],"right_numbers":[85,85,76,76,90],"points_earned":383,"phase":"task","trial_type":"horizons-task","trial_index":50,"time_elapsed":610493,"internal_node_id":"0.0-46.0","task_version":"0.2"},{"view_history":"[{\"page_index\":0,\"viewing_time\":16042.139999975916},{\"page_index\":1,\"viewing_time\":1658.3199999877252}]","rt":17700.949999969453,"trial_type":"instructions","trial_index":51,"time_elapsed":628196,"internal_node_id":"0.0-47.0","task_version":"0.2"},{"response_times":[1089.734999986831,454.2400000500493,471.6150000458583,594.2450000438839,528.1500000273809,389.435000019148,172.81499999808148,178.4600000246428,142.17499998630956,139.28999996278435],"keys_pressed":["leftarrow","rightarrow","rightarrow","rightarrow","leftarrow","leftarrow","leftarrow","leftarrow","leftarrow","leftarrow"],"horizon":10,"forced_choices":["leftarrow","rightarrow","rightarrow","rightarrow"],"right_color":"orange","left_color":"lightblue","left_mu":40,"right_mu":20,"left_numbers":[52,36,25,25,45,47,27,46,24,39],"right_numbers":[24,11,29,11,9,23,13,28,12,21],"points_earned":331,"phase":"task","trial_type":"horizons-task","trial_index":52,"time_elapsed":633865,"internal_node_id":"0.0-48.0","task_version":"0.2"},{"response_times":[1309.1849999618717,4173.855000000913,419.80500001227483,524.0650000050664,566.0849999985658,1444.17999999132,658.0499999690801,424.2350000422448,233.02499996498227,224.16500002145767],"keys_pressed":["rightarrow","leftarrow","leftarrow","leftarrow","leftarrow","leftarrow","leftarrow","leftarrow","leftarrow","leftarrow"],"horizon":10,"forced_choices":["rightarrow","leftarrow","leftarrow","leftarrow"],"right_color":"lightblue","left_color":"orange","left_mu":60,"right_mu":68,"left_numbers":[65,48,48,71,48,56,56,57,52,66],"right_numbers":[55,67,74,75,73,72,70,58,56,60],"points_earned":557,"phase":"task","trial_type":"horizons-task","trial_index":53,"time_elapsed":645347,"internal_node_id":"0.0-49.0","task_version":"0.2"},{"response_times":[559.3799999915063,733.4499999997206,537.015000008978,462.11999998195097,1114.2549999640323],"keys_pressed":["leftarrow","leftarrow","rightarrow","leftarrow","rightarrow"],"horizon":5,"forced_choices":["leftarrow","leftarrow","rightarrow","leftarrow"],"right_color":"orange","left_color":"lightblue","left_mu":40,"right_mu":60,"left_numbers":[35,45,49,39,34],"right_numbers":[53,59,51,55,60],"points_earned":230,"phase":"task","trial_type":"horizons-task","trial_index":54,"time_elapsed":650257,"internal_node_id":"0.0-50.0","task_version":"0.2"},{"response_times":[664.2249999567866,362.16499999864027,372.65500001376495,427.6800000225194,527.1499999798834,351.859999995213,174.41500001586974,183.25000000186265,164.36500003328547,154.0600000298582],"keys_pressed":["leftarrow","rightarrow","leftarrow","rightarrow","leftarrow","leftarrow","leftarrow","leftarrow","leftarrow","leftarrow"],"horizon":10,"forced_choices":["leftarrow","rightarrow","leftarrow","rightarrow"],"right_color":"lightblue","left_color":"orange","left_mu":60,"right_mu":40,"left_numbers":[58,68,51,61,56,62,70,51,61,65],"right_numbers":[35,35,44,42,35,32,37,48,31,29],"points_earned":551,"phase":"task","trial_type":"horizons-task","trial_index":55,"time_elapsed":655145,"internal_node_id":"0.0-51.0","task_version":"0.2"},{"response_times":[555.3599999984726,375.3499999875203,389.6999999997206,385.11999999172986,553.2949999906123,335.76999994693324,362.8550000139512,200.24999999441206,230.18999997293577,390.0950000388548],"keys_pressed":["leftarrow","rightarrow","leftarrow","rightarrow","rightarrow","rightarrow","rightarrow","rightarrow","rightarrow","rightarrow"],"horizon":10,"forced_choices":["leftarrow","rightarrow","leftarrow","rightarrow"],"right_color":"orange","left_color":"lightblue","left_mu":60,"right_mu":64,"left_numbers":[57,59,54,64,54,69,58,60,60,64],"right_numbers":[63,70,66,59,59,69,61,67,67,58],"points_earned":621,"phase":"task","trial_type":"horizons-task","trial_index":56,"time_elapsed":660428,"internal_node_id":"0.0-52.0","task_version":"0.2"},{"response_times":[622.7150000049733,557.3899999726564,412.67500002868474,424.21999998623505,711.7499999585561,469.0249999985099,836.3299999618903,247.20000004163012,234.28000003332272,289.1550000058487],"keys_pressed":["rightarrow","rightarrow","leftarrow","rightarrow","leftarrow","leftarrow","leftarrow","leftarrow","leftarrow","leftarrow"],"horizon":10,"forced_choices":["rightarrow","rightarrow","leftarrow","rightarrow"],"right_color":"lightblue","left_color":"orange","left_mu":40,"right_mu":28,"left_numbers":[35,33,53,44,45,44,39,31,51,39],"right_numbers":[31,38,19,26,25,24,27,30,35,28],"points_earned":397,"phase":"task","trial_type":"horizons-task","trial_index":57,"time_elapsed":666738,"internal_node_id":"0.0-53.0","task_version":"0.2"},{"response_times":[12465.245000028517,345.339999999851,833.3599999896251,541.1599999642931,1044.6850000298582,1293.149999983143,413.364999985788,242.73499997798353,194.79999999748543,174.10999996354803],"keys_pressed":["rightarrow","rightarrow","leftarrow","leftarrow","leftarrow","rightarrow","leftarrow","leftarrow","leftarrow","leftarrow"],"horizon":10,"forced_choices":["rightarrow","rightarrow","leftarrow","leftarrow"],"right_color":"orange","left_color":"lightblue","left_mu":40,"right_mu":32,"left_numbers":[40,52,37,35,40,41,32,66,45,25],"right_numbers":[23,26,36,39,23,22,34,40,33,41],"points_earned":351,"phase":"task","trial_type":"horizons-task","trial_index":58,"time_elapsed":685790,"internal_node_id":"0.0-54.0","task_version":"0.2"},{"response_times":[495.73500000406057,428.8500000257045,479.3400000198744,460.1600000169128,491.8000000179745,304.7700000461191,216.34500002255663,218.39499997440726,259.71000001300126,507.02000001911074],"keys_pressed":["leftarrow","leftarrow","rightarrow","rightarrow","rightarrow","rightarrow","rightarrow","rightarrow","rightarrow","rightarrow"],"horizon":10,"forced_choices":["leftarrow","leftarrow","rightarrow","rightarrow"],"right_color":"orange","left_color":"lightblue","left_mu":40,"right_mu":52,"left_numbers":[26,36,40,48,36,39,28,33,34,31],"right_numbers":[55,37,40,56,51,65,47,47,66,59],"points_earned":493,"phase":"task","trial_type":"horizons-task","trial_index":59,"time_elapsed":691157,"internal_node_id":"0.0-55.0","task_version":"0.2"},{"response_times":[675.0499999616295,346.53500001877546,510.8699999982491,432.56500002462417,879.6650000149384],"keys_pressed":["leftarrow","rightarrow","rightarrow","leftarrow","rightarrow"],"horizon":5,"forced_choices":["leftarrow","rightarrow","rightarrow","leftarrow"],"right_color":"lightblue","left_color":"orange","left_mu":40,"right_mu":48,"left_numbers":[32,42,25,43,43],"right_numbers":[54,43,49,49,59],"points_earned":226,"phase":"task","trial_type":"horizons-task","trial_index":60,"time_elapsed":695505,"internal_node_id":"0.0-56.0","task_version":"0.2"},{"response_times":[782.8500000177883,327.22999999532476,460.29999997699633,585.1700000348501,480.3599999868311,430.60500000137836,218.72499998426065,210.29999997699633,234.9899999680929,312.66499997582287],"keys_pressed":["rightarrow","rightarrow","leftarrow","leftarrow","leftarrow","leftarrow","leftarrow","leftarrow","leftarrow","leftarrow"],"horizon":10,"forced_choices":["rightarrow","rightarrow","leftarrow","leftarrow"],"right_color":"orange","left_color":"lightblue","left_mu":40,"right_mu":10,"left_numbers":[39,44,40,40,40,44,39,42,42,48],"right_numbers":[0,21,0,16,15,9,23,4,0,11],"points_earned":356,"phase":"task","trial_type":"horizons-task","trial_index":61,"time_elapsed":701062,"internal_node_id":"0.0-57.0","task_version":"0.2"},{"response_times":[534.360000048764,414.07999995863065,584.4749999814667,691.0849999985658,1494.9249999481253],"keys_pressed":["rightarrow","leftarrow","leftarrow","rightarrow","rightarrow"],"horizon":5,"forced_choices":["rightarrow","leftarrow","leftarrow","rightarrow"],"right_color":"orange","left_color":"lightblue","left_mu":60,"right_mu":72,"left_numbers":[66,50,60,65,54],"right_numbers":[74,73,81,81,58],"points_earned":323,"phase":"task","trial_type":"horizons-task","trial_index":62,"time_elapsed":706286,"internal_node_id":"0.0-58.0","task_version":"0.2"},{"response_times":[482.5849999906495,400.16999997897074,394.46000003954396,669.0100000123493,4462.4199999962],"keys_pressed":["leftarrow","rightarrow","leftarrow","leftarrow","rightarrow"],"horizon":5,"forced_choices":["leftarrow","rightarrow","leftarrow","leftarrow"],"right_color":"orange","left_color":"lightblue","left_mu":60,"right_mu":72,"left_numbers":[76,67,52,66,49],"right_numbers":[56,76,71,78,81],"points_earned":351,"phase":"task","trial_type":"horizons-task","trial_index":63,"time_elapsed":714198,"internal_node_id":"0.0-59.0","task_version":"0.2"},{"response_times":[623.1099999858998,409.2600000440143,437.755000020843,632.8649999923073,592.8449999773875],"keys_pressed":["rightarrow","leftarrow","leftarrow","leftarrow","rightarrow"],"horizon":5,"forced_choices":["rightarrow","leftarrow","leftarrow","leftarrow"],"right_color":"lightblue","left_color":"orange","left_mu":60,"right_mu":68,"left_numbers":[73,64,67,55,58],"right_numbers":[75,61,65,68,65],"points_earned":326,"phase":"task","trial_type":"horizons-task","trial_index":64,"time_elapsed":718398,"internal_node_id":"0.0-60.0","task_version":"0.2"},{"response_times":[554.6900000190362,395.59999998891726,438.1050000083633,425.99499999778345,1018.9750000135973,440.7800000044517,190.17499999608845,186.47000001510605,243.71499998960644,437.87500000325963],"keys_pressed":["leftarrow","rightarrow","rightarrow","leftarrow","leftarrow","leftarrow","leftarrow","leftarrow","leftarrow","leftarrow"],"horizon":10,"forced_choices":["leftarrow","rightarrow","rightarrow","leftarrow"],"right_color":"lightblue","left_color":"orange","left_mu":60,"right_mu":52,"left_numbers":[66,58,67,68,71,61,61,47,59,61],"right_numbers":[51,49,46,41,64,64,52,43,51,55],"points_earned":589,"phase":"task","trial_type":"horizons-task","trial_index":65,"time_elapsed":724234,"internal_node_id":"0.0-61.0","task_version":"0.2"},{"response_times":[660.0300000282004,356.7449999973178,313.9149999478832,524.619999981951,1345.3750000335276],"keys_pressed":["rightarrow","leftarrow","rightarrow","rightarrow","rightarrow"],"horizon":5,"forced_choices":["rightarrow","leftarrow","rightarrow","rightarrow"],"right_color":"orange","left_color":"lightblue","left_mu":40,"right_mu":52,"left_numbers":[43,43,37,40,23],"right_numbers":[54,50,55,58,52],"points_earned":262,"phase":"task","trial_type":"horizons-task","trial_index":66,"time_elapsed":728939,"internal_node_id":"0.0-62.0","task_version":"0.2"},{"response_times":[13935.060000047088,689.6349999587983,447.41000002250075,801.8100000335835,516.0650000325404],"keys_pressed":["rightarrow","leftarrow","leftarrow","rightarrow","rightarrow"],"horizon":5,"forced_choices":["rightarrow","leftarrow","leftarrow","rightarrow"],"right_color":"orange","left_color":"lightblue","left_mu":60,"right_mu":80,"left_numbers":[61,58,53,57,74],"right_numbers":[66,84,93,82,75],"points_earned":334,"phase":"task","trial_type":"horizons-task","trial_index":67,"time_elapsed":746833,"internal_node_id":"0.0-63.0","task_version":"0.2"},{"response_times":[537.3149999650195,388.2049999665469,448.1800000066869,555.2800000295974,2826.839999994263],"keys_pressed":["rightarrow","leftarrow","leftarrow","rightarrow","rightarrow"],"horizon":5,"forced_choices":["rightarrow","leftarrow","leftarrow","rightarrow"],"right_color":"lightblue","left_color":"orange","left_mu":60,"right_mu":68,"left_numbers":[53,63,63,59,57],"right_numbers":[49,65,70,75,59],"points_earned":309,"phase":"task","trial_type":"horizons-task","trial_index":68,"time_elapsed":753093,"internal_node_id":"0.0-64.0","task_version":"0.2"},{"response_times":[807.2499999543652,363.08999999891967,434.63500001234934,502.7249999693595,544.5750000071712],"keys_pressed":["leftarrow","rightarrow","rightarrow","leftarrow","leftarrow"],"horizon":5,"forced_choices":["leftarrow","rightarrow","rightarrow","leftarrow"],"right_color":"orange","left_color":"lightblue","left_mu":60,"right_mu":30,"left_numbers":[58,65,79,71,67],"right_numbers":[31,33,29,41,29],"points_earned":258,"phase":"task","trial_type":"horizons-task","trial_index":69,"time_elapsed":757250,"internal_node_id":"0.0-65.0","task_version":"0.2"},{"response_times":[482.045000011567,505.925000004936,418.86999999405816,513.7850000173785,878.9450000040233,332.0799999637529,333.17499997792765,210.22000000812113,181.79499998223037,202.1250000107102],"keys_pressed":["leftarrow","leftarrow","rightarrow","rightarrow","leftarrow","leftarrow","leftarrow","leftarrow","leftarrow","leftarrow"],"horizon":10,"forced_choices":["leftarrow","leftarrow","rightarrow","rightarrow"],"right_color":"lightblue","left_color":"orange","left_mu":60,"right_mu":56,"left_numbers":[64,60,57,62,43,63,57,56,62,77],"right_numbers":[66,61,50,57,47,78,52,59,51,56],"points_earned":589,"phase":"task","trial_type":"horizons-task","trial_index":70,"time_elapsed":762813,"internal_node_id":"0.0-66.0","task_version":"0.2"},{"response_times":[692.1800000127405,395.5800000112504,427.77499998919666,426.8150000134483,1119.0700000151992,1154.515000001993,488.2499999948777,258.13999999081716,216.62000002106652,289.2349999747239],"keys_pressed":["leftarrow","rightarrow","leftarrow","rightarrow","leftarrow","rightarrow","rightarrow","rightarrow","rightarrow","rightarrow"],"horizon":10,"forced_choices":["leftarrow","rightarrow","leftarrow","rightarrow"],"right_color":"lightblue","left_color":"orange","left_mu":40,"right_mu":36,"left_numbers":[32,41,33,40,20,38,53,53,36,38],"right_numbers":[30,41,16,27,38,45,48,33,20,37],"points_earned":336,"phase":"task","trial_type":"horizons-task","trial_index":71,"time_elapsed":769786,"internal_node_id":"0.0-67.0","task_version":"0.2"},{"response_times":[460.13000002130866,407.6850000419654,505.814999982249,498.8149999990128,568.5649999650195],"keys_pressed":["leftarrow","rightarrow","rightarrow","rightarrow","leftarrow"],"horizon":5,"forced_choices":["leftarrow","rightarrow","rightarrow","rightarrow"],"right_color":"orange","left_color":"lightblue","left_mu":40,"right_mu":32,"left_numbers":[53,46,49,45,37],"right_numbers":[15,42,35,31,37],"points_earned":198,"phase":"task","trial_type":"horizons-task","trial_index":72,"time_elapsed":773731,"internal_node_id":"0.0-68.0","task_version":"0.2"},{"response_times":[551.1300000362098,434.9299999885261,430.690000008326,487.5599999795668,953.8150000153109],"keys_pressed":["rightarrow","rightarrow","rightarrow","leftarrow","leftarrow"],"horizon":5,"forced_choices":["rightarrow","rightarrow","rightarrow","leftarrow"],"right_color":"lightblue","left_color":"orange","left_mu":60,"right_mu":48,"left_numbers":[63,63,57,57,74],"right_numbers":[47,56,52,57,46],"points_earned":286,"phase":"task","trial_type":"horizons-task","trial_index":73,"time_elapsed":778093,"internal_node_id":"0.0-69.0","task_version":"0.2"},{"response_times":[533.640000037849,421.7449999996461,505.50999998813495,423.4099999885075,484.79999997653067,353.34999999031425,225.9900000062771,203.62499996554106,232.3150000302121,433.69999999413267],"keys_pressed":["rightarrow","rightarrow","leftarrow","rightarrow","leftarrow","leftarrow","leftarrow","leftarrow","leftarrow","leftarrow"],"horizon":10,"forced_choices":["rightarrow","rightarrow","leftarrow","rightarrow"],"right_color":"lightblue","left_color":"orange","left_mu":60,"right_mu":40,"left_numbers":[63,63,65,47,61,58,62,62,51,62],"right_numbers":[31,33,31,39,41,38,42,47,37,42],"points_earned":524,"phase":"task","trial_type":"horizons-task","trial_index":74,"time_elapsed":783416,"internal_node_id":"0.0-70.0","task_version":"0.2"},{"response_times":[18048.745000036433,1486.914999957662,442.6300000050105,367.2099999967031,453.3349999692291,339.4049999769777,243.91000001924112,222.5099999923259,217.6399999880232,205.4900000221096],"keys_pressed":["rightarrow","rightarrow","leftarrow","rightarrow","rightarrow","rightarrow","rightarrow","rightarrow","rightarrow","rightarrow"],"horizon":10,"forced_choices":["rightarrow","rightarrow","leftarrow","rightarrow"],"right_color":"lightblue","left_color":"orange","left_mu":60,"right_mu":90,"left_numbers":[62,48,50,59,59,59,63,59,52,71],"right_numbers":[89,82,89,102,88,92,100,86,87,85],"points_earned":861,"phase":"task","trial_type":"horizons-task","trial_index":75,"time_elapsed":806948,"internal_node_id":"0.0-71.0","task_version":"0.2"},{"response_times":[438.64500004565343,384.3500000075437,382.68500001868233,366.47999996785074,449.5199999655597],"keys_pressed":["leftarrow","rightarrow","leftarrow","rightarrow","leftarrow"],"horizon":5,"forced_choices":["leftarrow","rightarrow","leftarrow","rightarrow"],"right_color":"orange","left_color":"lightblue","left_mu":40,"right_mu":20,"left_numbers":[35,53,40,44,46],"right_numbers":[25,12,14,14,14],"points_earned":147,"phase":"task","trial_type":"horizons-task","trial_index":76,"time_elapsed":810483,"internal_node_id":"0.0-72.0","task_version":"0.2"},{"response_times":[487.12000000523403,559.5400000456721,793.4349999995902,469.11000000545755,1065.9149999846704,502.61500000488013,325.71499998448417,195.0700000161305,267.56000000750646,217.26000000489876],"keys_pressed":["leftarrow","rightarrow","rightarrow","rightarrow","leftarrow","leftarrow","leftarrow","leftarrow","leftarrow","leftarrow"],"horizon":10,"forced_choices":["leftarrow","rightarrow","rightarrow","rightarrow"],"right_color":"orange","left_color":"lightblue","left_mu":40,"right_mu":32,"left_numbers":[36,35,26,43,37,53,43,41,28,45],"right_numbers":[37,37,39,10,30,24,29,32,35,38],"points_earned":369,"phase":"task","trial_type":"horizons-task","trial_index":77,"time_elapsed":816870,"internal_node_id":"0.0-73.0","task_version":"0.2"},{"response_times":[556.990000011865,383.19000002229586,329.3600000324659,404.77999998256564,770.1900000101887,434.49499999405816,210.40500001981854,498.7799999653362,201.31999999284744,201.13499998115003],"keys_pressed":["rightarrow","leftarrow","rightarrow","leftarrow","leftarrow","leftarrow","leftarrow","leftarrow","leftarrow","leftarrow"],"horizon":10,"forced_choices":["rightarrow","leftarrow","rightarrow","leftarrow"],"right_color":"lightblue","left_color":"orange","left_mu":60,"right_mu":48,"left_numbers":[58,63,60,59,53,54,61,62,59,55],"right_numbers":[42,52,38,49,46,38,58,63,44,52],"points_earned":546,"phase":"task","trial_type":"horizons-task","trial_index":78,"time_elapsed":822365,"internal_node_id":"0.0-74.0","task_version":"0.2"},{"response_times":[545.8600000129081,397.30000001145527,420.8050000015646,402.66000002156943,467.6949999993667],"keys_pressed":["leftarrow","leftarrow","rightarrow","rightarrow","rightarrow"],"horizon":5,"forced_choices":["leftarrow","leftarrow","rightarrow","rightarrow"],"right_color":"orange","left_color":"lightblue","left_mu":40,"right_mu":44,"left_numbers":[35,21,36,44,46],"right_numbers":[29,33,33,42,57],"points_earned":188,"phase":"task","trial_type":"horizons-task","trial_index":79,"time_elapsed":826104,"internal_node_id":"0.0-75.0","task_version":"0.2"},{"response_times":[528.3650000346825,390.8349999692291,353.9549999986775,446.76000002073124,558.3800000022165],"keys_pressed":["rightarrow","leftarrow","rightarrow","leftarrow","rightarrow"],"horizon":5,"forced_choices":["rightarrow","leftarrow","rightarrow","leftarrow"],"right_color":"lightblue","left_color":"orange","left_mu":60,"right_mu":90,"left_numbers":[64,70,66,67,63],"right_numbers":[61,89,103,87,91],"points_earned":392,"phase":"task","trial_type":"horizons-task","trial_index":80,"time_elapsed":829886,"internal_node_id":"0.0-76.0","task_version":"0.2"},{"response_times":[455.0499999895692,326.97499997448176,556.5300000016578,413.3799999835901,1194.6200000238605,358.5000000311993,213.15000002505258,199.55499999923632,230.84999999264255,233.23000001255423],"keys_pressed":["leftarrow","rightarrow","rightarrow","leftarrow","rightarrow","rightarrow","rightarrow","rightarrow","rightarrow","rightarrow"],"horizon":10,"forced_choices":["leftarrow","rightarrow","rightarrow","leftarrow"],"right_color":"lightblue","left_color":"orange","left_mu":40,"right_mu":48,"left_numbers":[33,40,37,32,41,49,42,35,46,33],"right_numbers":[47,44,52,48,44,61,52,43,40,47],"points_earned":448,"phase":"task","trial_type":"horizons-task","trial_index":81,"time_elapsed":835572,"internal_node_id":"0.0-77.0","task_version":"0.2"},{"response_times":[568.2249999954365,694.5100000011735,430.6450000149198,439.62000001920387,514.3699999898672],"keys_pressed":["leftarrow","leftarrow","rightarrow","rightarrow","rightarrow"],"horizon":5,"forced_choices":["leftarrow","leftarrow","rightarrow","rightarrow"],"right_color":"orange","left_color":"lightblue","left_mu":40,"right_mu":52,"left_numbers":[53,34,45,34,30],"right_numbers":[37,53,46,63,51],"points_earned":247,"phase":"task","trial_type":"horizons-task","trial_index":82,"time_elapsed":839724,"internal_node_id":"0.0-78.0","task_version":"0.2"},{"response_times":[559.9450000445358,385.1550000254065,311.0300000407733,403.6900000064634,810.9749999712221],"keys_pressed":["rightarrow","leftarrow","rightarrow","leftarrow","leftarrow"],"horizon":5,"forced_choices":["rightarrow","leftarrow","rightarrow","leftarrow"],"right_color":"lightblue","left_color":"orange","left_mu":60,"right_mu":48,"left_numbers":[60,56,69,71,52],"right_numbers":[52,50,32,44,37],"points_earned":263,"phase":"task","trial_type":"horizons-task","trial_index":83,"time_elapsed":843699,"internal_node_id":"0.0-79.0","task_version":"0.2"},{"response_times":[651.5200000139885,428.31999994814396,451.17000001482666,402.26499998243526,481.12499999115244],"keys_pressed":["rightarrow","leftarrow","leftarrow","rightarrow","rightarrow"],"horizon":5,"forced_choices":["rightarrow","leftarrow","leftarrow","rightarrow"],"right_color":"lightblue","left_color":"orange","left_mu":40,"right_mu":70,"left_numbers":[43,41,29,33,25],"right_numbers":[45,62,66,78,60],"points_earned":253,"phase":"task","trial_type":"horizons-task","trial_index":84,"time_elapsed":847618,"internal_node_id":"0.0-80.0","task_version":"0.2"},{"response_times":[543.1400000234134,462.740000046324,441.94500002777204,422.95999999623746,1668.965000018943],"keys_pressed":["leftarrow","leftarrow","leftarrow","rightarrow","rightarrow"],"horizon":5,"forced_choices":["leftarrow","leftarrow","leftarrow","rightarrow"],"right_color":"orange","left_color":"lightblue","left_mu":40,"right_mu":44,"left_numbers":[41,44,55,37,44],"right_numbers":[41,50,35,54,50],"points_earned":244,"phase":"task","trial_type":"horizons-task","trial_index":85,"time_elapsed":852663,"internal_node_id":"0.0-81.0","task_version":"0.2"},{"response_times":[546.364999958314,522.7500000037253,403.1950000207871,512.990000017453,489.2350000445731],"keys_pressed":["leftarrow","leftarrow","rightarrow","rightarrow","rightarrow"],"horizon":5,"forced_choices":["leftarrow","leftarrow","rightarrow","rightarrow"],"right_color":"lightblue","left_color":"orange","left_mu":60,"right_mu":56,"left_numbers":[56,53,60,72,59],"right_numbers":[57,53,61,69,66],"points_earned":305,"phase":"task","trial_type":"horizons-task","trial_index":86,"time_elapsed":856641,"internal_node_id":"0.0-82.0","task_version":"0.2"},{"response_times":[536.1900000134483,421.4299999875948,472.05000004032627,409.7149999579415,1694.5849999901839,2628.104999952484,508.33500002045184,483.36499999277294,281.394999998156,235.13499996624887],"keys_pressed":["leftarrow","leftarrow","leftarrow","rightarrow","rightarrow","rightarrow","leftarrow","leftarrow","leftarrow","leftarrow"],"horizon":10,"forced_choices":["leftarrow","leftarrow","leftarrow","rightarrow"],"right_color":"lightblue","left_color":"orange","left_mu":40,"right_mu":36,"left_numbers":[33,41,28,51,36,41,35,33,32,41],"right_numbers":[37,25,20,32,25,31,30,39,22,42],"points_earned":331,"phase":"task","trial_type":"horizons-task","trial_index":87,"time_elapsed":865816,"internal_node_id":"0.0-83.0","task_version":"0.2"},{"response_times":[657.3050000006333,398.55500002158806,523.1700000003912,430.9099999954924,491.1549999960698,362.0249999803491,241.18999997153878,230.0750000285916,212.25500002037734,215.57499998016283],"keys_pressed":["rightarrow","leftarrow","leftarrow","rightarrow","rightarrow","rightarrow","rightarrow","rightarrow","rightarrow","rightarrow"],"horizon":10,"forced_choices":["rightarrow","leftarrow","leftarrow","rightarrow"],"right_color":"orange","left_color":"lightblue","left_mu":60,"right_mu":80,"left_numbers":[65,69,44,56,72,56,61,51,63,55],"right_numbers":[81,72,86,85,73,84,67,82,82,79],"points_earned":746,"phase":"task","trial_type":"horizons-task","trial_index":88,"time_elapsed":871083,"internal_node_id":"0.0-84.0","task_version":"0.2"},{"response_times":[450.78999997349456,387.50000001164153,538.5550000355579,520.5999999889173,917.0849999645725],"keys_pressed":["leftarrow","rightarrow","leftarrow","leftarrow","leftarrow"],"horizon":5,"forced_choices":["leftarrow","rightarrow","leftarrow","leftarrow"],"right_color":"lightblue","left_color":"orange","left_mu":60,"right_mu":52,"left_numbers":[46,54,70,56,52],"right_numbers":[46,55,39,44,49],"points_earned":279,"phase":"task","trial_type":"horizons-task","trial_index":89,"time_elapsed":875401,"internal_node_id":"0.0-85.0","task_version":"0.2"},{"response_times":[554.1300000040792,383.7649999768473,367.6250000135042,847.5050000124611,1003.2599999685772,1225.3599999821745,292.4500000081025,231.03999998420477,213.4150000056252,353.4850000287406],"keys_pressed":["rightarrow","leftarrow","rightarrow","rightarrow","rightarrow","rightarrow","rightarrow","rightarrow","rightarrow","rightarrow"],"horizon":10,"forced_choices":["rightarrow","leftarrow","rightarrow","rightarrow"],"right_color":"lightblue","left_color":"orange","left_mu":40,"right_mu":48,"left_numbers":[44,37,40,46,48,41,33,38,42,43],"right_numbers":[55,47,58,42,46,48,43,47,51,48],"points_earned":475,"phase":"task","trial_type":"horizons-task","trial_index":90,"time_elapsed":882378,"internal_node_id":"0.0-86.0","task_version":"0.2"},{"response_times":[437.8700000233948,368.1499999947846,292.05999994883314,638.4549999493174,315.1300000026822,272.4399999715388,245.30000000959262,238.56500000692904,247.33500002184883,335.640000004787],"keys_pressed":["rightarrow","leftarrow","rightarrow","leftarrow","rightarrow","rightarrow","rightarrow","rightarrow","rightarrow","rightarrow"],"horizon":10,"forced_choices":["rightarrow","leftarrow","rightarrow","leftarrow"],"right_color":"orange","left_color":"lightblue","left_mu":40,"right_mu":60,"left_numbers":[39,24,34,35,43,47,48,41,42,37],"right_numbers":[66,51,74,67,65,55,57,62,52,67],"points_earned":557,"phase":"task","trial_type":"horizons-task","trial_index":91,"time_elapsed":887273,"internal_node_id":"0.0-87.0","task_version":"0.2"},{"rt":20494.650000007823,"responses":{"age":"18","gender-categorical":"Male","gender-free-response":"","ethnicity":"Not Hispanic or Latino","race":["Asian"],"language":"Yes","fluency":"Very well"},"survey":"demographics","trial_type":"survey-demo","trial_index":92,"time_elapsed":907774,"internal_node_id":"0.0-88.0","task_version":"0.2"},{"rt":18050.48999999417,"responses":{"difficulty":"4","fun":"4","clarity":"5","strategy":"","feedback":""},"survey":"debrief","trial_type":"survey-debrief","trial_index":93,"time_elapsed":925829,"internal_node_id":"0.0-89.0","task_version":"0.2","interactions":"[{\"event\":\"blur\",\"trial\":0,\"time\":0},{\"event\":\"focus\",\"trial\":0,\"time\":15812}]"}]