[{"view_history":"[{\"page_index\":0,\"viewing_time\":3584.000000000001}]","rt":3584.000000000001,"trial_type":"instructions","trial_index":0,"time_elapsed":3597,"internal_node_id":"0.0-0.0","task_version":"0.2"},{"item_order":[11,10,1,13,6,14,15,12,5,2,16,3,7,0,8,4,9],"responses":{"Q12":"0","Q11":"2","Q02":"2","Q14":"0","Q07":"0","Q15":"0","Q16":"1","Q13":"0","Q06":"2","Q03":"1","Q17":"0","Q04":"0","Q08":"1","Q01":"3","Q09":"0","Q05":"0","Q10":"3"},"radio_events":[3250.000000000002,8534,11625,12858,15559.000000000004,17534,18468,21083,22861,25884,30886,34979.00000000001,37537,43129,46806,49714,53286,57699],"key_events":[],"mouse_events":[0,3250.000000000002,8534,11625,12858,15559.000000000004,17534,18468,21083,22861,25884,29053,30886,34979.00000000001,37537,42087,43129,46806,49714,53286,54131.00000000001,57699,58817.00000000001],"rt":58834,"survey":"pswq","trial_type":"survey-template","trial_index":1,"time_elapsed":62432,"internal_node_id":"0.0-1.0","task_version":"0.2"},{"item_order":[1,0,3,11,7,8,5,6,4,10,9,12,2],"responses":{"Q02":"2","Q01":"0","Q04":"2","Q12":"0","Q08":"1","Q09":"0","Q06":"0","Q07":"0","Q05":"0","Q11":"1","Q10":"0","Q13":"4","Q03":"0"},"radio_events":[4905,7781,11253,13814,16339,18479,21587.000000000015,24241,26699,29424,31065,35584.000000000015,38917],"key_events":[],"mouse_events":[4905,7781,11253,13814,16339,18479,20863,21587.000000000015,24241,26699,29424,31065,35584.000000000015,38917,39692],"rt":39701,"survey":"ius12","trial_type":"survey-template","trial_index":2,"time_elapsed":102134,"internal_node_id":"0.0-2.0","task_version":"0.2"},{"item_order":[1,2,4,9,11,14,3,8,10,6,0,5,13,15,7,12],"responses":{"Q02":"2","Q03":"1","Q05":"0","Q10":"2","Q12":"3","Q15":"2","Q04":"2","Q09":"1","Q11":"2","Q07":"4","Q01":"2","Q06":"3","Q14":"0","Q16":"5","Q08":"2","Q13":"3"},"radio_events":[7841,9089,15667,20043,24385.000000000015,28727,33912,39095.00000000003,46163,51422.00000000003,54404,56973,60673,66599,71233,76308,79117],"key_events":[],"mouse_events":[7841,9089,15667,20043,24385.000000000015,28727,33912,39095.00000000003,46163,51422.00000000003,54404,56973,60673,66599,71233,76308,79117,79816],"rt":79828,"survey":"nfc","trial_type":"survey-template","trial_index":3,"time_elapsed":181962,"internal_node_id":"0.0-3.0","task_version":"0.2"},{"view_history":"[{\"page_index\":0,\"viewing_time\":4244},{\"page_index\":1,\"viewing_time\":8642},{\"page_index\":2,\"viewing_time\":9243},{\"page_index\":3,\"viewing_time\":7918},{\"page_index\":4,\"viewing_time\":6126},{\"page_index\":5,\"viewing_time\":4943},{\"page_index\":6,\"viewing_time\":7810},{\"page_index\":7,\"viewing_time\":8584},{\"page_index\":8,\"viewing_time\":10794},{\"page_index\":9,\"viewing_time\":6009}]","rt":74313,"trial_type":"instructions","trial_index":4,"time_elapsed":256272,"internal_node_id":"0.0-4.0-0.0","task_version":"0.2"},{"response_times":[2615.000000000029,791,1192.999999999971,1167.0000000000582,1574.9999999999418],"keys_pressed":["rightarrow","leftarrow","rightarrow","rightarrow","leftarrow"],"horizon":5,"forced_choices":["rightarrow","leftarrow","rightarrow","rightarrow"],"right_color":"lightblue","left_color":"orange","left_mu":40,"right_mu":20,"left_numbers":[56,34,48,42,61],"right_numbers":[15,18,2,12,18],"points_earned":124,"phase":"practice","trial_type":"horizons-task","trial_index":5,"time_elapsed":265120,"internal_node_id":"0.0-4.0-1.0","task_version":"0.2"},{"response_times":[1065,972,777,699,1999,3396,2381,767,597.0000000000582,702.9999999999418],"keys_pressed":["leftarrow","leftarrow","rightarrow","rightarrow","rightarrow","leftarrow","rightarrow","leftarrow","leftarrow","leftarrow"],"horizon":10,"forced_choices":["leftarrow","leftarrow","rightarrow","rightarrow"],"right_color":"orange","left_color":"lightblue","left_mu":60,"right_mu":70,"left_numbers":[53,57,53,46,54,75,63,70,55,78],"right_numbers":[51,79,71,76,62,71,65,61,56,76],"points_earned":662,"phase":"practice","trial_type":"horizons-task","trial_index":6,"time_elapsed":279984,"internal_node_id":"0.0-4.0-2.0","task_version":"0.2"},{"view_history":"[{\"page_index\":0,\"viewing_time\":2390},{\"page_index\":1,\"viewing_time\":6428},{\"page_index\":2,\"viewing_time\":4606},{\"page_index\":3,\"viewing_time\":2734}]","rt":16159,"trial_type":"instructions","trial_index":7,"time_elapsed":296144,"internal_node_id":"0.0-4.0-3.0","task_version":"0.2"},{"responses":["true","false","true"],"num_errors":0,"rt":9297,"trial_type":"horizons-comprehension","trial_index":8,"time_elapsed":305443,"internal_node_id":"0.0-4.0-4.0","task_version":"0.2"},{"trial_type":"call-function","trial_index":9,"time_elapsed":305446,"internal_node_id":"0.0-5.0","task_version":"0.2"},{"view_history":"[{\"page_index\":0,\"viewing_time\":1025},{\"page_index\":1,\"viewing_time\":3809}]","rt":4834,"trial_type":"instructions","trial_index":10,"time_elapsed":310280,"internal_node_id":"0.0-6.0","task_version":"0.2"},{"response_times":[932.0000000000582,752.9999999999418,631,978,1731],"keys_pressed":["leftarrow","rightarrow","leftarrow","rightarrow","leftarrow"],"horizon":5,"forced_choices":["leftarrow","rightarrow","leftarrow","rightarrow"],"right_color":"lightblue","left_color":"orange","left_mu":40,"right_mu":10,"left_numbers":[32,40,58,34,36],"right_numbers":[0,13,0,15,8],"points_earned":154,"phase":"task","trial_type":"horizons-task","trial_index":11,"time_elapsed":316812,"internal_node_id":"0.0-7.0","task_version":"0.2"},{"response_times":[944.0000000000582,712,604,1106.0000000000582,3896.999999999942],"keys_pressed":["rightarrow","leftarrow","rightarrow","leftarrow","leftarrow"],"horizon":5,"forced_choices":["rightarrow","leftarrow","rightarrow","leftarrow"],"right_color":"orange","left_color":"lightblue","left_mu":60,"right_mu":64,"left_numbers":[70,61,74,67,61],"right_numbers":[55,79,66,72,63],"points_earned":310,"phase":"task","trial_type":"horizons-task","trial_index":12,"time_elapsed":325586,"internal_node_id":"0.0-8.0","task_version":"0.2"},{"response_times":[638,413,861,545,2456,953,1425,507,489,487],"keys_pressed":["rightarrow","leftarrow","leftarrow","leftarrow","rightarrow","leftarrow","rightarrow","leftarrow","leftarrow","leftarrow"],"horizon":10,"forced_choices":["rightarrow","leftarrow","leftarrow","leftarrow"],"right_color":"lightblue","left_color":"orange","left_mu":40,"right_mu":10,"left_numbers":[22,43,47,44,49,36,34,32,30,38],"right_numbers":[9,5,12,3,10,12,12,21,16,15],"points_earned":301,"phase":"task","trial_type":"horizons-task","trial_index":13,"time_elapsed":335870,"internal_node_id":"0.0-9.0","task_version":"0.2"},{"response_times":[829,651,486,554,1116.0000000000582,1763.9999999999418,627,562,1332.0000000000582,357],"keys_pressed":["rightarrow","rightarrow","rightarrow","leftarrow","leftarrow","rightarrow","leftarrow","leftarrow","rightarrow","leftarrow"],"horizon":10,"forced_choices":["rightarrow","rightarrow","rightarrow","leftarrow"],"right_color":"lightblue","left_color":"orange","left_mu":60,"right_mu":52,"left_numbers":[62,65,63,65,58,74,67,72,64,67],"right_numbers":[42,31,57,54,47,49,69,58,44,44],"points_earned":552,"phase":"task","trial_type":"horizons-task","trial_index":14,"time_elapsed":345659,"internal_node_id":"0.0-10.0","task_version":"0.2"},{"response_times":[986,528,511,537,1416,964,1610,591,442,410],"keys_pressed":["rightarrow","rightarrow","leftarrow","leftarrow","rightarrow","leftarrow","leftarrow","leftarrow","leftarrow","leftarrow"],"horizon":10,"forced_choices":["rightarrow","rightarrow","leftarrow","leftarrow"],"right_color":"lightblue","left_color":"orange","left_mu":60,"right_mu":52,"left_numbers":[59,67,54,64,60,56,75,64,68,57],"right_numbers":[51,45,59,53,53,48,51,65,37,60],"points_earned":587,"phase":"task","trial_type":"horizons-task","trial_index":15,"time_elapsed":355166,"internal_node_id":"0.0-11.0","task_version":"0.2"},{"response_times":[624,376,346,380.9999999999418,1343,606,1417,422,622,420],"keys_pressed":["rightarrow","leftarrow","rightarrow","leftarrow","rightarrow","leftarrow","rightarrow","leftarrow","leftarrow","leftarrow"],"horizon":10,"forced_choices":["rightarrow","leftarrow","rightarrow","leftarrow"],"right_color":"orange","left_color":"lightblue","left_mu":40,"right_mu":32,"left_numbers":[56,51,34,37,36,37,43,38,41,52],"right_numbers":[38,30,23,24,7,36,22,23,23,38],"points_earned":346,"phase":"task","trial_type":"horizons-task","trial_index":16,"time_elapsed":363238,"internal_node_id":"0.0-12.0","task_version":"0.2"},{"response_times":[699,532,464,362.0000000000582,2818,635,1179,357,493,398.0000000000582],"keys_pressed":["leftarrow","leftarrow","rightarrow","leftarrow","leftarrow","rightarrow","rightarrow","leftarrow","leftarrow","leftarrow"],"horizon":10,"forced_choices":["leftarrow","leftarrow","rightarrow","leftarrow"],"right_color":"orange","left_color":"lightblue","left_mu":40,"right_mu":20,"left_numbers":[33,26,46,58,37,30,53,26,36,52],"right_numbers":[27,22,27,19,22,19,19,27,18,1],"points_earned":333,"phase":"task","trial_type":"horizons-task","trial_index":17,"time_elapsed":372686,"internal_node_id":"0.0-13.0","task_version":"0.2"},{"response_times":[442,454,694,356,909,728,786,344,504.0000000000582,411],"keys_pressed":["leftarrow","rightarrow","rightarrow","leftarrow","leftarrow","rightarrow","rightarrow","leftarrow","leftarrow","leftarrow"],"horizon":10,"forced_choices":["leftarrow","rightarrow","rightarrow","leftarrow"],"right_color":"orange","left_color":"lightblue","left_mu":60,"right_mu":40,"left_numbers":[58,54,54,68,54,51,52,69,57,65],"right_numbers":[46,36,46,48,27,37,46,38,31,46],"points_earned":536,"phase":"task","trial_type":"horizons-task","trial_index":18,"time_elapsed":379823,"internal_node_id":"0.0-14.0","task_version":"0.2"},{"response_times":[519.0000000000582,368.9999999999418,429.0000000000582,334,2425.999999999942,647,607,798,747,390],"keys_pressed":["rightarrow","leftarrow","leftarrow","rightarrow","leftarrow","rightarrow","leftarrow","leftarrow","rightarrow","leftarrow"],"horizon":10,"forced_choices":["rightarrow","leftarrow","leftarrow","rightarrow"],"right_color":"orange","left_color":"lightblue","left_mu":40,"right_mu":20,"left_numbers":[39,59,36,46,43,43,53,30,53,45],"right_numbers":[21,26,15,31,4,20,13,19,10,28],"points_earned":348,"phase":"task","trial_type":"horizons-task","trial_index":19,"time_elapsed":388598,"internal_node_id":"0.0-15.0","task_version":"0.2"},{"response_times":[546,482,613,1174.0000000000582,2072.999999999942],"keys_pressed":["leftarrow","rightarrow","rightarrow","rightarrow","rightarrow"],"horizon":5,"forced_choices":["leftarrow","rightarrow","rightarrow","rightarrow"],"right_color":"lightblue","left_color":"orange","left_mu":40,"right_mu":52,"left_numbers":[39,41,22,47,46],"right_numbers":[47,53,39,51,52],"points_earned":234,"phase":"task","trial_type":"horizons-task","trial_index":20,"time_elapsed":394996,"internal_node_id":"0.0-16.0","task_version":"0.2"},{"response_times":[558,408,487.0000000000582,533.9999999999418,3254],"keys_pressed":["rightarrow","rightarrow","rightarrow","leftarrow","leftarrow"],"horizon":5,"forced_choices":["rightarrow","rightarrow","rightarrow","leftarrow"],"right_color":"lightblue","left_color":"orange","left_mu":60,"right_mu":52,"left_numbers":[66,72,51,55,68],"right_numbers":[53,51,65,48,51],"points_earned":292,"phase":"task","trial_type":"horizons-task","trial_index":21,"time_elapsed":401746,"internal_node_id":"0.0-17.0","task_version":"0.2"},{"response_times":[743,680.0000000000582,422.0000000000582,412.9999999999418,2796],"keys_pressed":["leftarrow","leftarrow","leftarrow","rightarrow","rightarrow"],"horizon":5,"forced_choices":["leftarrow","leftarrow","leftarrow","rightarrow"],"right_color":"orange","left_color":"lightblue","left_mu":60,"right_mu":40,"left_numbers":[49,68,56,60,64],"right_numbers":[44,54,41,42,49],"points_earned":264,"phase":"task","trial_type":"horizons-task","trial_index":22,"time_elapsed":408310,"internal_node_id":"0.0-18.0","task_version":"0.2"},{"response_times":[667.0000000000582,483.9999999999418,408,435.0000000000582,1038.9999999999418,946,487,597,1235.0000000000582,356.9999999999418],"keys_pressed":["leftarrow","rightarrow","rightarrow","leftarrow","rightarrow","leftarrow","rightarrow","rightarrow","leftarrow","rightarrow"],"horizon":10,"forced_choices":["leftarrow","rightarrow","rightarrow","leftarrow"],"right_color":"lightblue","left_color":"orange","left_mu":60,"right_mu":68,"left_numbers":[64,52,56,65,54,52,59,55,51,58],"right_numbers":[73,73,57,64,73,70,78,69,65,60],"points_earned":642,"phase":"task","trial_type":"horizons-task","trial_index":23,"time_elapsed":416476,"internal_node_id":"0.0-19.0","task_version":"0.2"},{"response_times":[558.9999999999418,307,620,680,1496,434,1018,457.0000000000582,524.9999999999418,424],"keys_pressed":["leftarrow","rightarrow","rightarrow","rightarrow","rightarrow","leftarrow","leftarrow","rightarrow","rightarrow","rightarrow"],"horizon":10,"forced_choices":["leftarrow","rightarrow","rightarrow","rightarrow"],"right_color":"lightblue","left_color":"orange","left_mu":40,"right_mu":52,"left_numbers":[28,29,40,39,40,36,38,46,41,27],"right_numbers":[53,55,48,50,64,65,59,45,50,50],"points_earned":464,"phase":"task","trial_type":"horizons-task","trial_index":24,"time_elapsed":424508,"internal_node_id":"0.0-20.0","task_version":"0.2"},{"response_times":[785,430,396,566.0000000000582,1143.9999999999418],"keys_pressed":["rightarrow","rightarrow","rightarrow","leftarrow","leftarrow"],"horizon":5,"forced_choices":["rightarrow","rightarrow","rightarrow","leftarrow"],"right_color":"orange","left_color":"lightblue","left_mu":40,"right_mu":32,"left_numbers":[31,45,52,42,45],"right_numbers":[28,36,27,23,48],"points_earned":178,"phase":"task","trial_type":"horizons-task","trial_index":25,"time_elapsed":429339,"internal_node_id":"0.0-21.0","task_version":"0.2"},{"response_times":[782.0000000000582,654,596,1361.9999999999418,3057],"keys_pressed":["rightarrow","leftarrow","rightarrow","rightarrow","rightarrow"],"horizon":5,"forced_choices":["rightarrow","leftarrow","rightarrow","rightarrow"],"right_color":"lightblue","left_color":"orange","left_mu":60,"right_mu":68,"left_numbers":[80,62,71,65,64],"right_numbers":[75,64,85,60,62],"points_earned":344,"phase":"task","trial_type":"horizons-task","trial_index":26,"time_elapsed":437300,"internal_node_id":"0.0-22.0","task_version":"0.2"},{"response_times":[566,437,496.0000000000582,515.9999999999418,2795],"keys_pressed":["rightarrow","leftarrow","leftarrow","leftarrow","rightarrow"],"horizon":5,"forced_choices":["rightarrow","leftarrow","leftarrow","leftarrow"],"right_color":"lightblue","left_color":"orange","left_mu":60,"right_mu":48,"left_numbers":[69,70,65,65,60],"right_numbers":[51,41,44,41,42],"points_earned":293,"phase":"task","trial_type":"horizons-task","trial_index":27,"time_elapsed":443618,"internal_node_id":"0.0-23.0","task_version":"0.2"},{"response_times":[427,353.0000000000582,343.9999999999418,309,1779],"keys_pressed":["leftarrow","rightarrow","leftarrow","rightarrow","rightarrow"],"horizon":5,"forced_choices":["leftarrow","rightarrow","leftarrow","rightarrow"],"right_color":"lightblue","left_color":"orange","left_mu":60,"right_mu":80,"left_numbers":[61,52,59,60,54],"right_numbers":[86,71,82,72,65],"points_earned":328,"phase":"task","trial_type":"horizons-task","trial_index":28,"time_elapsed":448339,"internal_node_id":"0.0-24.0","task_version":"0.2"},{"response_times":[432,437.0000000000582,659.9999999999418,471,1281,487.0000000000582,845,342,385,390],"keys_pressed":["rightarrow","leftarrow","leftarrow","leftarrow","leftarrow","rightarrow","rightarrow","leftarrow","leftarrow","leftarrow"],"horizon":10,"forced_choices":["rightarrow","leftarrow","leftarrow","leftarrow"],"right_color":"lightblue","left_color":"orange","left_mu":60,"right_mu":48,"left_numbers":[47,71,80,66,71,59,51,62,64,52],"right_numbers":[50,40,52,48,47,41,40,59,61,46],"points_earned":597,"phase":"task","trial_type":"horizons-task","trial_index":29,"time_elapsed":455580,"internal_node_id":"0.0-25.0","task_version":"0.2"},{"response_times":[498,488,464,594,2390],"keys_pressed":["leftarrow","leftarrow","leftarrow","rightarrow","leftarrow"],"horizon":5,"forced_choices":["leftarrow","leftarrow","leftarrow","rightarrow"],"right_color":"orange","left_color":"lightblue","left_mu":60,"right_mu":30,"left_numbers":[63,49,58,61,40],"right_numbers":[29,31,21,28,28],"points_earned":238,"phase":"task","trial_type":"horizons-task","trial_index":30,"time_elapsed":461522,"internal_node_id":"0.0-26.0","task_version":"0.2"},{"response_times":[625,417.0000000000582,399,930.9999999999418,482],"keys_pressed":["leftarrow","rightarrow","leftarrow","leftarrow","rightarrow"],"horizon":5,"forced_choices":["leftarrow","rightarrow","leftarrow","leftarrow"],"right_color":"orange","left_color":"lightblue","left_mu":60,"right_mu":90,"left_numbers":[77,59,53,59,63],"right_numbers":[75,92,86,89,102],"points_earned":383,"phase":"task","trial_type":"horizons-task","trial_index":31,"time_elapsed":465884,"internal_node_id":"0.0-27.0","task_version":"0.2"},{"response_times":[527,372.0000000000582,436.9999999999418,396,3952],"keys_pressed":["rightarrow","leftarrow","leftarrow","rightarrow","leftarrow"],"horizon":5,"forced_choices":["rightarrow","leftarrow","leftarrow","rightarrow"],"right_color":"orange","left_color":"lightblue","left_mu":40,"right_mu":36,"left_numbers":[35,51,34,37,45],"right_numbers":[42,22,32,34,32],"points_earned":206,"phase":"task","trial_type":"horizons-task","trial_index":32,"time_elapsed":473078,"internal_node_id":"0.0-28.0","task_version":"0.2"},{"response_times":[551.0000000000582,332.9999999999418,363,317,1252,752,583.0000000000582,954.9999999999418,460,190],"keys_pressed":["leftarrow","rightarrow","rightarrow","leftarrow","rightarrow","leftarrow","rightarrow","rightarrow","rightarrow","rightarrow"],"horizon":10,"forced_choices":["leftarrow","rightarrow","rightarrow","leftarrow"],"right_color":"lightblue","left_color":"orange","left_mu":60,"right_mu":72,"left_numbers":[46,62,68,49,57,49,58,61,57,57],"right_numbers":[76,82,62,73,51,69,62,75,84,67],"points_earned":627,"phase":"task","trial_type":"horizons-task","trial_index":33,"time_elapsed":480345,"internal_node_id":"0.0-29.0","task_version":"0.2"},{"response_times":[477,321,312,623,1380,530,831.0000000000582,596.9999999999418,506,290],"keys_pressed":["rightarrow","leftarrow","rightarrow","rightarrow","rightarrow","leftarrow","rightarrow","rightarrow","rightarrow","rightarrow"],"horizon":10,"forced_choices":["rightarrow","leftarrow","rightarrow","rightarrow"],"right_color":"orange","left_color":"lightblue","left_mu":40,"right_mu":70,"left_numbers":[45,39,34,38,32,49,46,23,32,20],"right_numbers":[69,64,79,63,62,74,78,58,72,66],"points_earned":635,"phase":"task","trial_type":"horizons-task","trial_index":34,"time_elapsed":487722,"internal_node_id":"0.0-30.0","task_version":"0.2"},{"response_times":[429,383,427.0000000000582,686.9999999999418,1928],"keys_pressed":["rightarrow","rightarrow","leftarrow","leftarrow","leftarrow"],"horizon":5,"forced_choices":["rightarrow","rightarrow","leftarrow","leftarrow"],"right_color":"lightblue","left_color":"orange","left_mu":60,"right_mu":52,"left_numbers":[71,58,65,66,62],"right_numbers":[72,56,57,58,56],"points_earned":321,"phase":"task","trial_type":"horizons-task","trial_index":35,"time_elapsed":493086,"internal_node_id":"0.0-31.0","task_version":"0.2"},{"response_times":[690.9999999999418,380,432,429,1956],"keys_pressed":["rightarrow","leftarrow","leftarrow","leftarrow","rightarrow"],"horizon":5,"forced_choices":["rightarrow","leftarrow","leftarrow","leftarrow"],"right_color":"lightblue","left_color":"orange","left_mu":60,"right_mu":56,"left_numbers":[64,49,43,63,54],"right_numbers":[52,48,52,63,47],"points_earned":254,"phase":"task","trial_type":"horizons-task","trial_index":36,"time_elapsed":498483,"internal_node_id":"0.0-32.0","task_version":"0.2"},{"response_times":[507,360,441.9999999999418,771,525.0000000000582],"keys_pressed":["leftarrow","leftarrow","rightarrow","leftarrow","rightarrow"],"horizon":5,"forced_choices":["leftarrow","leftarrow","rightarrow","leftarrow"],"right_color":"lightblue","left_color":"orange","left_mu":60,"right_mu":72,"left_numbers":[48,43,57,66,61],"right_numbers":[51,91,71,57,64],"points_earned":292,"phase":"task","trial_type":"horizons-task","trial_index":37,"time_elapsed":502602,"internal_node_id":"0.0-33.0","task_version":"0.2"},{"response_times":[529,418,412,575.0000000000582,723.9999999999418,1017,1652,664,270,386],"keys_pressed":["rightarrow","rightarrow","leftarrow","rightarrow","leftarrow","rightarrow","leftarrow","rightarrow","rightarrow","rightarrow"],"horizon":10,"forced_choices":["rightarrow","rightarrow","leftarrow","rightarrow"],"right_color":"orange","left_color":"lightblue","left_mu":40,"right_mu":36,"left_numbers":[37,46,36,38,38,37,32,30,21,45],"right_numbers":[40,37,26,34,40,40,40,36,28,25],"points_earned":346,"phase":"task","trial_type":"horizons-task","trial_index":38,"time_elapsed":510759,"internal_node_id":"0.0-34.0","task_version":"0.2"},{"response_times":[511,390,414.9999999999418,570.0000000000582,3089.000000000058],"keys_pressed":["rightarrow","rightarrow","leftarrow","leftarrow","rightarrow"],"horizon":5,"forced_choices":["rightarrow","rightarrow","leftarrow","leftarrow"],"right_color":"orange","left_color":"lightblue","left_mu":40,"right_mu":44,"left_numbers":[47,30,21,49,42],"right_numbers":[37,40,45,34,41],"points_earned":188,"phase":"task","trial_type":"horizons-task","trial_index":39,"time_elapsed":517243,"internal_node_id":"0.0-35.0","task_version":"0.2"},{"response_times":[538.0000000000582,412,362.9999999999418,433.0000000001164,2357.999999999942,957,587,276,485,383],"keys_pressed":["leftarrow","leftarrow","leftarrow","rightarrow","leftarrow","rightarrow","leftarrow","leftarrow","leftarrow","leftarrow"],"horizon":10,"forced_choices":["leftarrow","leftarrow","leftarrow","rightarrow"],"right_color":"orange","left_color":"lightblue","left_mu":60,"right_mu":40,"left_numbers":[76,45,49,70,60,61,68,67,68,50],"right_numbers":[38,41,29,35,34,32,40,35,54,19],"points_earned":550,"phase":"task","trial_type":"horizons-task","trial_index":40,"time_elapsed":525543,"internal_node_id":"0.0-36.0","task_version":"0.2"},{"response_times":[735,423,357,499,1332,775,785,457,715,375],"keys_pressed":["leftarrow","leftarrow","rightarrow","leftarrow","rightarrow","leftarrow","leftarrow","rightarrow","rightarrow","rightarrow"],"horizon":10,"forced_choices":["leftarrow","leftarrow","rightarrow","leftarrow"],"right_color":"lightblue","left_color":"orange","left_mu":60,"right_mu":72,"left_numbers":[53,64,69,40,48,54,61,58,48,63],"right_numbers":[72,66,61,79,57,78,77,78,74,66],"points_earned":608,"phase":"task","trial_type":"horizons-task","trial_index":41,"time_elapsed":533508,"internal_node_id":"0.0-37.0","task_version":"0.2"},{"response_times":[497,335,328,366,910,1769.0000000001164,601.9999999998836,1920,465,402],"keys_pressed":["leftarrow","leftarrow","rightarrow","leftarrow","rightarrow","rightarrow","rightarrow","leftarrow","rightarrow","rightarrow"],"horizon":10,"forced_choices":["leftarrow","leftarrow","rightarrow","leftarrow"],"right_color":"orange","left_color":"lightblue","left_mu":60,"right_mu":64,"left_numbers":[54,69,64,59,58,67,70,56,46,72],"right_numbers":[72,65,70,63,73,80,65,65,61,42],"points_earned":629,"phase":"task","trial_type":"horizons-task","trial_index":42,"time_elapsed":542612,"internal_node_id":"0.0-38.0","task_version":"0.2"},{"response_times":[438,470,365,333,4171,1598,391,496,1558,2669],"keys_pressed":["rightarrow","rightarrow","leftarrow","rightarrow","leftarrow","leftarrow","rightarrow","rightarrow","rightarrow","rightarrow"],"horizon":10,"forced_choices":["rightarrow","rightarrow","leftarrow","rightarrow"],"right_color":"lightblue","left_color":"orange","left_mu":40,"right_mu":48,"left_numbers":[34,50,41,45,50,48,38,46,28,53],"right_numbers":[63,54,43,42,42,45,54,43,46,37],"points_earned":478,"phase":"task","trial_type":"horizons-task","trial_index":43,"time_elapsed":556614,"internal_node_id":"0.0-39.0","task_version":"0.2"},{"response_times":[509,538,549,525.0000000001164,2210.9999999998836],"keys_pressed":["leftarrow","rightarrow","rightarrow","leftarrow","rightarrow"],"horizon":5,"forced_choices":["leftarrow","rightarrow","rightarrow","leftarrow"],"right_color":"lightblue","left_color":"orange","left_mu":60,"right_mu":72,"left_numbers":[54,59,41,76,71],"right_numbers":[75,71,74,71,76],"points_earned":351,"phase":"task","trial_type":"horizons-task","trial_index":44,"time_elapsed":562457,"internal_node_id":"0.0-40.0","task_version":"0.2"},{"response_times":[460.9999999998836,430,334,485,1470],"keys_pressed":["leftarrow","leftarrow","rightarrow","leftarrow","leftarrow"],"horizon":5,"forced_choices":["leftarrow","leftarrow","rightarrow","leftarrow"],"right_color":"orange","left_color":"lightblue","left_mu":60,"right_mu":64,"left_numbers":[65,57,68,56,64],"right_numbers":[68,65,66,67,55],"points_earned":308,"phase":"task","trial_type":"horizons-task","trial_index":45,"time_elapsed":567147,"internal_node_id":"0.0-41.0","task_version":"0.2"},{"response_times":[712.0000000001164,362,394,541,1145,1290,133,146,133,128.00000000011642],"keys_pressed":["leftarrow","rightarrow","leftarrow","rightarrow","leftarrow","leftarrow","leftarrow","leftarrow","leftarrow","leftarrow"],"horizon":10,"forced_choices":["leftarrow","rightarrow","leftarrow","rightarrow"],"right_color":"lightblue","left_color":"orange","left_mu":40,"right_mu":10,"left_numbers":[37,20,43,40,27,43,48,28,39,44],"right_numbers":[0,4,10,2,17,11,2,12,10,14],"points_earned":315,"phase":"task","trial_type":"horizons-task","trial_index":46,"time_elapsed":573644,"internal_node_id":"0.0-42.0","task_version":"0.2"},{"response_times":[491.0000000001164,306.9999999998836,251,297,3225],"keys_pressed":["leftarrow","rightarrow","leftarrow","rightarrow","rightarrow"],"horizon":5,"forced_choices":["leftarrow","rightarrow","leftarrow","rightarrow"],"right_color":"orange","left_color":"lightblue","left_mu":40,"right_mu":60,"left_numbers":[44,45,45,43,38],"right_numbers":[58,60,62,60,55],"points_earned":264,"phase":"task","trial_type":"horizons-task","trial_index":47,"time_elapsed":579724,"internal_node_id":"0.0-43.0","task_version":"0.2"},{"response_times":[505,653,385,544,2153],"keys_pressed":["rightarrow","rightarrow","leftarrow","leftarrow","leftarrow"],"horizon":5,"forced_choices":["rightarrow","rightarrow","leftarrow","leftarrow"],"right_color":"lightblue","left_color":"orange","left_mu":60,"right_mu":48,"left_numbers":[61,68,46,53,66],"right_numbers":[46,48,53,54,34],"points_earned":259,"phase":"task","trial_type":"horizons-task","trial_index":48,"time_elapsed":585472,"internal_node_id":"0.0-44.0","task_version":"0.2"},{"response_times":[444,389,382,433,1495,528,861,426,415,423],"keys_pressed":["leftarrow","leftarrow","leftarrow","rightarrow","leftarrow","rightarrow","rightarrow","leftarrow","leftarrow","leftarrow"],"horizon":10,"forced_choices":["leftarrow","leftarrow","leftarrow","rightarrow"],"right_color":"orange","left_color":"lightblue","left_mu":60,"right_mu":30,"left_numbers":[70,50,54,61,48,56,59,52,70,64],"right_numbers":[30,36,37,26,42,38,15,36,21,28],"points_earned":487,"phase":"task","trial_type":"horizons-task","trial_index":49,"time_elapsed":592777,"internal_node_id":"0.0-45.0","task_version":"0.2"},{"response_times":[574.9999999998836,416,409,435,1196,2042,467,541,825,381],"keys_pressed":["rightarrow","rightarrow","leftarrow","leftarrow","leftarrow","rightarrow","leftarrow","leftarrow","leftarrow","leftarrow"],"horizon":10,"forced_choices":["rightarrow","rightarrow","leftarrow","leftarrow"],"right_color":"lightblue","left_color":"orange","left_mu":60,"right_mu":48,"left_numbers":[60,36,70,69,70,60,64,69,71,65],"right_numbers":[41,50,50,45,65,39,52,45,36,54],"points_earned":608,"phase":"task","trial_type":"horizons-task","trial_index":50,"time_elapsed":601571,"internal_node_id":"0.0-46.0","task_version":"0.2"},{"view_history":"[{\"page_index\":0,\"viewing_time\":3193},{\"page_index\":1,\"viewing_time\":2226}]","rt":5419,"trial_type":"instructions","trial_index":51,"time_elapsed":606993,"internal_node_id":"0.0-47.0","task_version":"0.2"},{"response_times":[672,334,350,1663,2039],"keys_pressed":["rightarrow","leftarrow","rightarrow","leftarrow","rightarrow"],"horizon":5,"forced_choices":["rightarrow","leftarrow","rightarrow","leftarrow"],"right_color":"orange","left_color":"lightblue","left_mu":60,"right_mu":90,"left_numbers":[59,69,49,59,64],"right_numbers":[89,101,94,87,92],"points_earned":403,"phase":"task","trial_type":"horizons-task","trial_index":52,"time_elapsed":613556,"internal_node_id":"0.0-48.0","task_version":"0.2"},{"response_times":[604,325,663,372,1972],"keys_pressed":["rightarrow","leftarrow","leftarrow","rightarrow","leftarrow"],"horizon":5,"forced_choices":["rightarrow","leftarrow","leftarrow","rightarrow"],"right_color":"lightblue","left_color":"orange","left_mu":40,"right_mu":28,"left_numbers":[38,35,48,36,30],"right_numbers":[30,13,30,26,25],"points_earned":169,"phase":"task","trial_type":"horizons-task","trial_index":53,"time_elapsed":619002,"internal_node_id":"0.0-49.0","task_version":"0.2"},{"response_times":[610,350,268,294.9999999998836,1418],"keys_pressed":["leftarrow","rightarrow","leftarrow","rightarrow","rightarrow"],"horizon":5,"forced_choices":["leftarrow","rightarrow","leftarrow","rightarrow"],"right_color":"lightblue","left_color":"orange","left_mu":40,"right_mu":48,"left_numbers":[41,42,30,49,38],"right_numbers":[48,48,47,43,40],"points_earned":202,"phase":"task","trial_type":"horizons-task","trial_index":54,"time_elapsed":623453,"internal_node_id":"0.0-50.0","task_version":"0.2"},{"response_times":[569.9999999998836,243,272,282,2021],"keys_pressed":["rightarrow","leftarrow","rightarrow","leftarrow","leftarrow"],"horizon":5,"forced_choices":["rightarrow","leftarrow","rightarrow","leftarrow"],"right_color":"orange","left_color":"lightblue","left_mu":40,"right_mu":32,"left_numbers":[53,41,52,47,37],"right_numbers":[40,37,23,28,29],"points_earned":188,"phase":"task","trial_type":"horizons-task","trial_index":55,"time_elapsed":628350,"internal_node_id":"0.0-51.0","task_version":"0.2"},{"response_times":[534,278,624,313,1315,742,706,1350,903,1331.0000000001164],"keys_pressed":["rightarrow","leftarrow","leftarrow","rightarrow","rightarrow","leftarrow","rightarrow","leftarrow","rightarrow","rightarrow"],"horizon":10,"forced_choices":["rightarrow","leftarrow","leftarrow","rightarrow"],"right_color":"lightblue","left_color":"orange","left_mu":40,"right_mu":52,"left_numbers":[37,35,42,44,43,36,48,47,56,34],"right_numbers":[50,58,62,47,53,65,45,55,55,59],"points_earned":469,"phase":"task","trial_type":"horizons-task","trial_index":56,"time_elapsed":637955,"internal_node_id":"0.0-52.0","task_version":"0.2"},{"response_times":[497.0000000001164,300.9999999998836,387,309,1386,715,544,437,395,287],"keys_pressed":["rightarrow","leftarrow","leftarrow","rightarrow","leftarrow","rightarrow","rightarrow","leftarrow","leftarrow","leftarrow"],"horizon":10,"forced_choices":["rightarrow","leftarrow","leftarrow","rightarrow"],"right_color":"lightblue","left_color":"orange","left_mu":40,"right_mu":28,"left_numbers":[38,36,42,38,38,40,36,53,42,40],"right_numbers":[41,24,21,29,4,24,19,38,23,30],"points_earned":364,"phase":"task","trial_type":"horizons-task","trial_index":57,"time_elapsed":644722,"internal_node_id":"0.0-53.0","task_version":"0.2"},{"response_times":[449.0000000001164,325.9999999998836,369,484,865,800,411,441.0000000001164,130.99999999988358,128],"keys_pressed":["leftarrow","leftarrow","rightarrow","rightarrow","rightarrow","leftarrow","rightarrow","rightarrow","rightarrow","rightarrow"],"horizon":10,"forced_choices":["leftarrow","leftarrow","rightarrow","rightarrow"],"right_color":"orange","left_color":"lightblue","left_mu":40,"right_mu":70,"left_numbers":[47,35,34,37,47,43,56,34,47,38],"right_numbers":[74,73,62,62,64,69,79,72,58,71],"points_earned":593,"phase":"task","trial_type":"horizons-task","trial_index":58,"time_elapsed":650642,"internal_node_id":"0.0-54.0","task_version":"0.2"},{"response_times":[448,315,530,649,1568,621.0000000001164,412,983,1157.0000000001164,402.9999999998836],"keys_pressed":["rightarrow","leftarrow","leftarrow","leftarrow","rightarrow","rightarrow","leftarrow","rightarrow","leftarrow","leftarrow"],"horizon":10,"forced_choices":["rightarrow","leftarrow","leftarrow","leftarrow"],"right_color":"lightblue","left_color":"orange","left_mu":60,"right_mu":56,"left_numbers":[54,62,41,66,75,60,63,63,70,56],"right_numbers":[45,60,64,67,59,62,53,53,51,57],"points_earned":577,"phase":"task","trial_type":"horizons-task","trial_index":59,"time_elapsed":659237,"internal_node_id":"0.0-55.0","task_version":"0.2"},{"response_times":[454,436,353,513,3050],"keys_pressed":["leftarrow","leftarrow","rightarrow","rightarrow","rightarrow"],"horizon":5,"forced_choices":["leftarrow","leftarrow","rightarrow","rightarrow"],"right_color":"lightblue","left_color":"orange","left_mu":60,"right_mu":56,"left_numbers":[58,51,49,70,69],"right_numbers":[61,50,58,54,60],"points_earned":281,"phase":"task","trial_type":"horizons-task","trial_index":60,"time_elapsed":665552,"internal_node_id":"0.0-56.0","task_version":"0.2"},{"response_times":[437.9999999998836,318,542.0000000001164,293.9999999998836,1310],"keys_pressed":["leftarrow","rightarrow","rightarrow","leftarrow","leftarrow"],"horizon":5,"forced_choices":["leftarrow","rightarrow","rightarrow","leftarrow"],"right_color":"orange","left_color":"lightblue","left_mu":60,"right_mu":40,"left_numbers":[65,55,56,64,75],"right_numbers":[50,29,42,29,38],"points_earned":275,"phase":"task","trial_type":"horizons-task","trial_index":61,"time_elapsed":669961,"internal_node_id":"0.0-57.0","task_version":"0.2"},{"response_times":[447,426,367,443,1112],"keys_pressed":["leftarrow","leftarrow","rightarrow","rightarrow","leftarrow"],"horizon":5,"forced_choices":["leftarrow","leftarrow","rightarrow","rightarrow"],"right_color":"orange","left_color":"lightblue","left_mu":60,"right_mu":30,"left_numbers":[43,61,51,59,56],"right_numbers":[39,30,37,27,31],"points_earned":224,"phase":"task","trial_type":"horizons-task","trial_index":62,"time_elapsed":674267,"internal_node_id":"0.0-58.0","task_version":"0.2"},{"response_times":[660,378,438,698,1618],"keys_pressed":["leftarrow","rightarrow","rightarrow","rightarrow","rightarrow"],"horizon":5,"forced_choices":["leftarrow","rightarrow","rightarrow","rightarrow"],"right_color":"lightblue","left_color":"orange","left_mu":60,"right_mu":80,"left_numbers":[65,62,50,65,69],"right_numbers":[76,70,93,79,64],"points_earned":371,"phase":"task","trial_type":"horizons-task","trial_index":63,"time_elapsed":679570,"internal_node_id":"0.0-59.0","task_version":"0.2"},{"response_times":[814,390.0000000001164,384.9999999998836,444,836,469,1142,347,376,315],"keys_pressed":["leftarrow","rightarrow","leftarrow","leftarrow","rightarrow","leftarrow","leftarrow","rightarrow","rightarrow","rightarrow"],"horizon":10,"forced_choices":["leftarrow","rightarrow","leftarrow","leftarrow"],"right_color":"orange","left_color":"lightblue","left_mu":60,"right_mu":90,"left_numbers":[75,62,56,52,63,66,54,47,51,58],"right_numbers":[79,86,102,87,78,90,101,87,83,103],"points_earned":740,"phase":"task","trial_type":"horizons-task","trial_index":64,"time_elapsed":686598,"internal_node_id":"0.0-60.0","task_version":"0.2"},{"response_times":[876,346,305,429.0000000001164,1096.9999999998836,956,648,427,277,299],"keys_pressed":["leftarrow","rightarrow","leftarrow","leftarrow","rightarrow","leftarrow","rightarrow","leftarrow","leftarrow","leftarrow"],"horizon":10,"forced_choices":["leftarrow","rightarrow","leftarrow","leftarrow"],"right_color":"lightblue","left_color":"orange","left_mu":40,"right_mu":28,"left_numbers":[48,42,34,48,32,45,52,42,25,37],"right_numbers":[25,22,18,8,40,26,29,25,28,26],"points_earned":370,"phase":"task","trial_type":"horizons-task","trial_index":65,"time_elapsed":693767,"internal_node_id":"0.0-61.0","task_version":"0.2"},{"response_times":[599,455,417,447,1215,373,1186,418,413,262],"keys_pressed":["leftarrow","leftarrow","rightarrow","rightarrow","leftarrow","rightarrow","leftarrow","leftarrow","rightarrow","leftarrow"],"horizon":10,"forced_choices":["leftarrow","leftarrow","rightarrow","rightarrow"],"right_color":"orange","left_color":"lightblue","left_mu":60,"right_mu":30,"left_numbers":[50,60,70,53,58,56,63,50,53,69],"right_numbers":[29,42,24,23,39,30,32,24,21,27],"points_earned":448,"phase":"task","trial_type":"horizons-task","trial_index":66,"time_elapsed":701058,"internal_node_id":"0.0-62.0","task_version":"0.2"},{"response_times":[701,456,384,396.0000000001164,484.9999999998836,3372,2088,1150,776,236],"keys_pressed":["rightarrow","rightarrow","leftarrow","rightarrow","leftarrow","rightarrow","rightarrow","leftarrow","rightarrow","rightarrow"],"horizon":10,"forced_choices":["rightarrow","rightarrow","leftarrow","rightarrow"],"right_color":"orange","left_color":"lightblue","left_mu":40,"right_mu":60,"left_numbers":[24,35,43,46,54,28,46,32,52,35],"right_numbers":[48,67,58,54,53,68,50,69,71,56],"points_earned":543,"phase":"task","trial_type":"horizons-task","trial_index":67,"time_elapsed":712611,"internal_node_id":"0.0-63.0","task_version":"0.2"},{"response_times":[460,442,389,495,2649],"keys_pressed":["rightarrow","rightarrow","leftarrow","rightarrow","rightarrow"],"horizon":5,"forced_choices":["rightarrow","rightarrow","leftarrow","rightarrow"],"right_color":"lightblue","left_color":"orange","left_mu":40,"right_mu":48,"left_numbers":[36,30,27,35,48],"right_numbers":[67,44,49,47,48],"points_earned":233,"phase":"task","trial_type":"horizons-task","trial_index":68,"time_elapsed":718554,"internal_node_id":"0.0-64.0","task_version":"0.2"},{"response_times":[715,446,424,425,1912.9999999998836],"keys_pressed":["rightarrow","rightarrow","leftarrow","rightarrow","leftarrow"],"horizon":5,"forced_choices":["rightarrow","rightarrow","leftarrow","rightarrow"],"right_color":"orange","left_color":"lightblue","left_mu":40,"right_mu":36,"left_numbers":[34,45,46,37,44],"right_numbers":[34,32,31,34,41],"points_earned":190,"phase":"task","trial_type":"horizons-task","trial_index":69,"time_elapsed":723988,"internal_node_id":"0.0-65.0","task_version":"0.2"},{"response_times":[608.0000000001164,354,437,410.0000000001164,724.9999999998836],"keys_pressed":["rightarrow","leftarrow","leftarrow","rightarrow","leftarrow"],"horizon":5,"forced_choices":["rightarrow","leftarrow","leftarrow","rightarrow"],"right_color":"orange","left_color":"lightblue","left_mu":40,"right_mu":20,"left_numbers":[40,38,35,42,42],"right_numbers":[12,16,13,3,14],"points_earned":130,"phase":"task","trial_type":"horizons-task","trial_index":70,"time_elapsed":728031,"internal_node_id":"0.0-66.0","task_version":"0.2"},{"response_times":[639,383,417.0000000001164,473.9999999998836,1157],"keys_pressed":["rightarrow","leftarrow","leftarrow","rightarrow","rightarrow"],"horizon":5,"forced_choices":["rightarrow","leftarrow","leftarrow","rightarrow"],"right_color":"lightblue","left_color":"orange","left_mu":40,"right_mu":52,"left_numbers":[49,33,37,53,31],"right_numbers":[65,47,64,40,49],"points_earned":224,"phase":"task","trial_type":"horizons-task","trial_index":71,"time_elapsed":732610,"internal_node_id":"0.0-67.0","task_version":"0.2"},{"response_times":[557,358,398,381,1478,716,465,196,629.0000000001164,538.9999999998836],"keys_pressed":["leftarrow","rightarrow","leftarrow","rightarrow","rightarrow","leftarrow","rightarrow","rightarrow","rightarrow","rightarrow"],"horizon":10,"forced_choices":["leftarrow","rightarrow","leftarrow","rightarrow"],"right_color":"lightblue","left_color":"orange","left_mu":40,"right_mu":48,"left_numbers":[36,54,44,41,42,23,37,46,33,37],"right_numbers":[45,60,51,47,50,48,38,47,45,45],"points_earned":435,"phase":"task","trial_type":"horizons-task","trial_index":72,"time_elapsed":739839,"internal_node_id":"0.0-68.0","task_version":"0.2"},{"response_times":[540.9999999998836,446,419,490,990,660,895,485,456,199.00000000011642],"keys_pressed":["rightarrow","rightarrow","leftarrow","leftarrow","rightarrow","leftarrow","leftarrow","rightarrow","leftarrow","leftarrow"],"horizon":10,"forced_choices":["rightarrow","rightarrow","leftarrow","leftarrow"],"right_color":"orange","left_color":"lightblue","left_mu":40,"right_mu":44,"left_numbers":[49,20,39,31,34,47,35,42,42,40],"right_numbers":[28,61,41,45,32,46,51,27,54,44],"points_earned":382,"phase":"task","trial_type":"horizons-task","trial_index":73,"time_elapsed":746930,"internal_node_id":"0.0-69.0","task_version":"0.2"},{"response_times":[436,407,318,482,1231],"keys_pressed":["rightarrow","rightarrow","leftarrow","rightarrow","rightarrow"],"horizon":5,"forced_choices":["rightarrow","rightarrow","leftarrow","rightarrow"],"right_color":"orange","left_color":"lightblue","left_mu":40,"right_mu":60,"left_numbers":[44,42,34,36,33],"right_numbers":[52,50,51,63,74],"points_earned":273,"phase":"task","trial_type":"horizons-task","trial_index":74,"time_elapsed":751313,"internal_node_id":"0.0-70.0","task_version":"0.2"},{"response_times":[855,298,408,300,2278],"keys_pressed":["leftarrow","rightarrow","rightarrow","leftarrow","rightarrow"],"horizon":5,"forced_choices":["leftarrow","rightarrow","rightarrow","leftarrow"],"right_color":"lightblue","left_color":"orange","left_mu":60,"right_mu":68,"left_numbers":[67,61,60,53,70],"right_numbers":[75,78,59,67,74],"points_earned":331,"phase":"task","trial_type":"horizons-task","trial_index":75,"time_elapsed":756960,"internal_node_id":"0.0-71.0","task_version":"0.2"},{"response_times":[917,329,414,898,1387],"keys_pressed":["rightarrow","leftarrow","leftarrow","leftarrow","leftarrow"],"horizon":5,"forced_choices":["rightarrow","leftarrow","leftarrow","leftarrow"],"right_color":"lightblue","left_color":"orange","left_mu":40,"right_mu":10,"left_numbers":[42,46,38,42,43],"right_numbers":[10,20,1,3,0],"points_earned":179,"phase":"task","trial_type":"horizons-task","trial_index":76,"time_elapsed":762413,"internal_node_id":"0.0-72.0","task_version":"0.2"},{"response_times":[435,466,294,466,1185],"keys_pressed":["leftarrow","rightarrow","leftarrow","leftarrow","leftarrow"],"horizon":5,"forced_choices":["leftarrow","rightarrow","leftarrow","leftarrow"],"right_color":"lightblue","left_color":"orange","left_mu":40,"right_mu":28,"left_numbers":[48,43,39,31,29],"right_numbers":[21,23,29,25,30],"points_earned":170,"phase":"task","trial_type":"horizons-task","trial_index":77,"time_elapsed":766767,"internal_node_id":"0.0-73.0","task_version":"0.2"},{"response_times":[411,359,385,421.0000000001164,825.9999999998836,380.9999999998836,498,525.0000000001164,154.99999999988358,351],"keys_pressed":["leftarrow","leftarrow","rightarrow","rightarrow","leftarrow","rightarrow","leftarrow","leftarrow","leftarrow","leftarrow"],"horizon":10,"forced_choices":["leftarrow","leftarrow","rightarrow","rightarrow"],"right_color":"lightblue","left_color":"orange","left_mu":60,"right_mu":56,"left_numbers":[67,66,75,64,62,67,65,62,65,59],"right_numbers":[64,53,59,54,52,53,58,54,60,70],"points_earned":612,"phase":"task","trial_type":"horizons-task","trial_index":78,"time_elapsed":772589,"internal_node_id":"0.0-74.0","task_version":"0.2"},{"response_times":[445,350,421,345,1129],"keys_pressed":["leftarrow","leftarrow","rightarrow","leftarrow","leftarrow"],"horizon":5,"forced_choices":["leftarrow","leftarrow","rightarrow","leftarrow"],"right_color":"orange","left_color":"lightblue","left_mu":40,"right_mu":20,"left_numbers":[54,28,43,40,50],"right_numbers":[21,27,19,13,19],"points_earned":191,"phase":"task","trial_type":"horizons-task","trial_index":79,"time_elapsed":776788,"internal_node_id":"0.0-75.0","task_version":"0.2"},{"response_times":[497.0000000001164,324.9999999998836,417,823,1006],"keys_pressed":["leftarrow","rightarrow","rightarrow","rightarrow","rightarrow"],"horizon":5,"forced_choices":["leftarrow","rightarrow","rightarrow","rightarrow"],"right_color":"orange","left_color":"lightblue","left_mu":40,"right_mu":44,"left_numbers":[42,38,19,38,36],"right_numbers":[38,33,36,48,42],"points_earned":201,"phase":"task","trial_type":"horizons-task","trial_index":80,"time_elapsed":781364,"internal_node_id":"0.0-76.0","task_version":"0.2"},{"response_times":[553,325,373.0000000001164,341.9999999998836,2393,623,676,685,387.0000000001164,574.9999999998836],"keys_pressed":["rightarrow","leftarrow","leftarrow","rightarrow","rightarrow","leftarrow","leftarrow","rightarrow","leftarrow","leftarrow"],"horizon":10,"forced_choices":["rightarrow","leftarrow","leftarrow","rightarrow"],"right_color":"orange","left_color":"lightblue","left_mu":40,"right_mu":36,"left_numbers":[34,39,31,38,38,47,44,30,51,42],"right_numbers":[34,27,40,34,39,29,52,42,28,25],"points_earned":403,"phase":"task","trial_type":"horizons-task","trial_index":81,"time_elapsed":789805,"internal_node_id":"0.0-77.0","task_version":"0.2"},{"response_times":[392,319,316,331,2467,392,154,152,127,121],"keys_pressed":["leftarrow","rightarrow","leftarrow","rightarrow","rightarrow","rightarrow","rightarrow","rightarrow","rightarrow","rightarrow"],"horizon":10,"forced_choices":["leftarrow","rightarrow","leftarrow","rightarrow"],"right_color":"lightblue","left_color":"orange","left_mu":60,"right_mu":80,"left_numbers":[53,51,50,66,67,69,43,59,57,68],"right_numbers":[81,75,75,72,88,77,89,80,66,84],"points_earned":734,"phase":"task","trial_type":"horizons-task","trial_index":82,"time_elapsed":796084,"internal_node_id":"0.0-78.0","task_version":"0.2"},{"response_times":[442,420.0000000001164,357.9999999998836,582,505],"keys_pressed":["leftarrow","leftarrow","rightarrow","rightarrow","rightarrow"],"horizon":5,"forced_choices":["leftarrow","leftarrow","rightarrow","rightarrow"],"right_color":"orange","left_color":"lightblue","left_mu":40,"right_mu":70,"left_numbers":[36,31,36,35,45],"right_numbers":[80,81,69,74,68],"points_earned":278,"phase":"task","trial_type":"horizons-task","trial_index":83,"time_elapsed":799901,"internal_node_id":"0.0-79.0","task_version":"0.2"},{"response_times":[521,302,328,422,559.0000000001164],"keys_pressed":["rightarrow","leftarrow","rightarrow","rightarrow","rightarrow"],"horizon":5,"forced_choices":["rightarrow","leftarrow","rightarrow","rightarrow"],"right_color":"orange","left_color":"lightblue","left_mu":40,"right_mu":70,"left_numbers":[45,31,50,45,24],"right_numbers":[64,69,88,65,92],"points_earned":340,"phase":"task","trial_type":"horizons-task","trial_index":84,"time_elapsed":803544,"internal_node_id":"0.0-80.0","task_version":"0.2"},{"response_times":[445.0000000001164,271,296,478,1057,1667,637,734,192,767],"keys_pressed":["rightarrow","leftarrow","rightarrow","rightarrow","leftarrow","leftarrow","rightarrow","rightarrow","rightarrow","rightarrow"],"horizon":10,"forced_choices":["rightarrow","leftarrow","rightarrow","rightarrow"],"right_color":"lightblue","left_color":"orange","left_mu":60,"right_mu":68,"left_numbers":[48,59,55,63,69,66,59,56,54,51],"right_numbers":[66,68,73,55,63,78,73,68,78,79],"points_earned":686,"phase":"task","trial_type":"horizons-task","trial_index":85,"time_elapsed":811600,"internal_node_id":"0.0-81.0","task_version":"0.2"},{"response_times":[609,344,361,416,2735.0000000001164,2061.9999999998836,497,936.0000000001164,488.9999999998836,300],"keys_pressed":["rightarrow","rightarrow","rightarrow","leftarrow","leftarrow","rightarrow","leftarrow","rightarrow","leftarrow","leftarrow"],"horizon":10,"forced_choices":["rightarrow","rightarrow","rightarrow","leftarrow"],"right_color":"orange","left_color":"lightblue","left_mu":40,"right_mu":32,"left_numbers":[38,37,23,53,42,36,41,37,24,44],"right_numbers":[18,39,19,30,38,33,0,35,22,29],"points_earned":348,"phase":"task","trial_type":"horizons-task","trial_index":86,"time_elapsed":821858,"internal_node_id":"0.0-82.0","task_version":"0.2"},{"response_times":[458.9999999998836,280,301,266.0000000001164,1679.9999999998836,564.0000000001164,774.9999999998836,435,488,326.0000000001164],"keys_pressed":["rightarrow","leftarrow","rightarrow","leftarrow","leftarrow","rightarrow","rightarrow","leftarrow","rightarrow","rightarrow"],"horizon":10,"forced_choices":["rightarrow","leftarrow","rightarrow","leftarrow"],"right_color":"orange","left_color":"lightblue","left_mu":60,"right_mu":64,"left_numbers":[59,57,63,71,55,65,67,48,44,62],"right_numbers":[52,63,54,54,51,65,65,45,48,68],"points_earned":583,"phase":"task","trial_type":"horizons-task","trial_index":87,"time_elapsed":828943,"internal_node_id":"0.0-83.0","task_version":"0.2"},{"response_times":[504,296.0000000001164,389,626.9999999998836,867,1482.0000000001164,507.9999999998836,172,160,158],"keys_pressed":["rightarrow","leftarrow","rightarrow","leftarrow","rightarrow","leftarrow","rightarrow","rightarrow","rightarrow","rightarrow"],"horizon":10,"forced_choices":["rightarrow","leftarrow","rightarrow","leftarrow"],"right_color":"orange","left_color":"lightblue","left_mu":60,"right_mu":90,"left_numbers":[45,69,59,52,60,53,53,64,46,57],"right_numbers":[100,96,98,89,83,79,85,101,91,86],"points_earned":818,"phase":"task","trial_type":"horizons-task","trial_index":88,"time_elapsed":835614,"internal_node_id":"0.0-84.0","task_version":"0.2"},{"response_times":[827,354.0000000001164,606.9999999998836,517,695,1518,450,258,310,364],"keys_pressed":["leftarrow","rightarrow","rightarrow","rightarrow","leftarrow","leftarrow","rightarrow","rightarrow","rightarrow","rightarrow"],"horizon":10,"forced_choices":["leftarrow","rightarrow","rightarrow","rightarrow"],"right_color":"lightblue","left_color":"orange","left_mu":60,"right_mu":80,"left_numbers":[61,68,59,58,53,58,63,49,63,70],"right_numbers":[76,74,85,93,79,64,69,83,77,71],"points_earned":724,"phase":"task","trial_type":"horizons-task","trial_index":89,"time_elapsed":843022,"internal_node_id":"0.0-85.0","task_version":"0.2"},{"response_times":[513,355.9999999998836,352,301,1058.0000000001164,1370.9999999998836,445,260,368,157],"keys_pressed":["leftarrow","rightarrow","leftarrow","rightarrow","rightarrow","leftarrow","rightarrow","rightarrow","rightarrow","rightarrow"],"horizon":10,"forced_choices":["leftarrow","rightarrow","leftarrow","rightarrow"],"right_color":"orange","left_color":"lightblue","left_mu":40,"right_mu":60,"left_numbers":[35,37,49,49,37,35,37,44,42,50],"right_numbers":[61,54,40,66,65,60,68,60,53,47],"points_earned":532,"phase":"task","trial_type":"horizons-task","trial_index":90,"time_elapsed":849718,"internal_node_id":"0.0-86.0","task_version":"0.2"},{"response_times":[505.9999999998836,313,390,549,864,1091,834,1656.9999999998836,411,441],"keys_pressed":["leftarrow","rightarrow","rightarrow","rightarrow","leftarrow","rightarrow","rightarrow","leftarrow","rightarrow","rightarrow"],"horizon":10,"forced_choices":["leftarrow","rightarrow","rightarrow","rightarrow"],"right_color":"orange","left_color":"lightblue","left_mu":40,"right_mu":44,"left_numbers":[32,26,43,56,39,48,52,39,28,44],"right_numbers":[41,35,46,45,44,58,46,51,49,42],"points_earned":431,"phase":"task","trial_type":"horizons-task","trial_index":91,"time_elapsed":858283,"internal_node_id":"0.0-87.0","task_version":"0.2"},{"rt":13292.000000000116,"responses":{"age":"28","gender-categorical":"Female","gender-free-response":"","ethnicity":"Not Hispanic or Latino","race":["White"],"language":"Yes","fluency":"Very well"},"survey":"demographics","trial_type":"survey-demo","trial_index":92,"time_elapsed":871584,"internal_node_id":"0.0-88.0","task_version":"0.2"},{"rt":34260,"responses":{"difficulty":"2","fun":"4","clarity":"5","strategy":"I tried to keep a calculation in my head","feedback":"None"},"survey":"debrief","trial_type":"survey-debrief","trial_index":93,"time_elapsed":905843,"internal_node_id":"0.0-89.0","task_version":"0.2","interactions":"[]"}]