[{"view_history":"[{\"page_index\":0,\"viewing_time\":5673.234999994747}]","rt":5674.364999984391,"trial_type":"instructions","trial_index":0,"time_elapsed":5684,"internal_node_id":"0.0-0.0","task_version":"0.2"},{"item_order":[6,4,16,8,7,5,13,3,9,1,15,0,11,14,2,12,10],"responses":{"Q07":"2","Q05":"3","Q17":"0","Q09":"2","Q08":"3","Q06":"2","Q14":"2","Q04":"3","Q10":"3","Q02":"2","Q16":"2","Q01":"3","Q12":"3","Q15":"2","Q03":"3","Q13":"3","Q11":"3"},"radio_events":[7154.569999955129,12065.454999974463,15942.309999954887,27047.864999971353,37084.019999951124,41766.34499995271,47019.22999997623,49519.669999950565,52325.35999995889,61608.27500000596,65359.73500000546,67979.2899999884,77246.33499997435,80004.59999998566,84818.47999995807,88232.84499999136,92640.56499995058,103365.16499996651,103793.79999998491],"key_events":[],"mouse_events":[0.09499996667727828,7154.569999955129,12065.454999974463,15942.309999954887,25677.63999995077,27047.864999971353,37084.019999951124,40708.4249999607,41766.34499995271,45888.639999961015,47019.22999997623,49519.669999950565,52325.35999995889,61608.27500000596,65359.73500000546,67979.2899999884,76016.39499998419,77246.33499997435,80004.59999998566,84818.47999995807,88232.84499999136,91553.68499999167,92640.56499995058,98074.38000000548,99032.08499995526,100208.36499996949,101543.79500000505,103365.16499996651,103793.79999998491,108731.48499999661],"rt":108734.24999997951,"survey":"pswq","trial_type":"survey-template","trial_index":1,"time_elapsed":114426,"internal_node_id":"0.0-1.0","task_version":"0.2"},{"item_order":[5,8,2,4,11,7,9,0,3,10,6,1,12],"responses":{"Q06":"3","Q09":"2","Q03":"2","Q05":"2","Q12":"0","Q08":"0","Q10":"2","Q01":"1","Q04":"2","Q11":"2","Q07":"1","Q02":"2","Q13":"4"},"radio_events":[6174.560000014026,15665.604999987409,28353.134999983013,37920.89000000851,43017.08000001963,47640.75000002049,54774.399999994785,59269.27499996964,65852.14500001166,68962.01000001747,73995.76999997953,80943.54000000749,85459.68999998877,89363.68999996921],"key_events":[],"mouse_events":[6174.560000014026,14090.555000002496,15665.604999987409,28353.134999983013,37920.89000000851,43017.08000001963,47640.75000002049,53840.12000000803,54774.399999994785,59269.27499996964,65852.14500001166,68962.01000001747,73995.76999997953,80943.54000000749,84247.4499999662,85459.68999998877,89363.68999996921,96255.42499998119,97764.23999998951],"rt":97766.0550000146,"survey":"ius12","trial_type":"survey-template","trial_index":2,"time_elapsed":212201,"internal_node_id":"0.0-2.0","task_version":"0.2"},{"item_order":[4,15,10,6,7,13,8,1,9,12,3,2,11,14,5,0],"responses":{"Q05":"2","Q16":"4","Q11":"2","Q07":"3","Q08":"2","Q14":"1","Q09":"2","Q02":"3","Q10":"1","Q13":"3","Q04":"2","Q03":"3","Q12":"3","Q15":"2","Q06":"2","Q01":"1"},"radio_events":[15721.949999977369,19352.249999996275,26131.794999993872,32456.584999978077,39994.64499996975,47766.01500000106,55275.714999996126,64623.58499999391,72545.80999998143,77405.93000000808,83581.78000000771,90396.16499998374,95176.13999999594,98291.02499998407,104207.01999997254,108949.88999998895,113941.9099999941],"key_events":[],"mouse_events":[15721.949999977369,19352.249999996275,26131.794999993872,30815.83999999566,32456.584999978077,39994.64499996975,47766.01500000106,53486.80000001332,55275.714999996126,64623.58499999391,71483.43999998178,72545.80999998143,77405.93000000808,83581.78000000771,90396.16499998374,95176.13999999594,98291.02499998407,104207.01999997254,108949.88999998895,112212.52000000095,113941.9099999941,118256.3749999972],"rt":118259.4950000057,"survey":"nfc","trial_type":"survey-template","trial_index":3,"time_elapsed":330469,"internal_node_id":"0.0-3.0","task_version":"0.2"},{"view_history":"[{\"page_index\":0,\"viewing_time\":6029.425000015181},{\"page_index\":1,\"viewing_time\":5357.075000007171},{\"page_index\":2,\"viewing_time\":9277.004999981727},{\"page_index\":3,\"viewing_time\":9590.75999999186},{\"page_index\":4,\"viewing_time\":6325.360000017099},{\"page_index\":5,\"viewing_time\":3484.185000008438},{\"page_index\":6,\"viewing_time\":5797.879999969155},{\"page_index\":7,\"viewing_time\":11114.78000000352},{\"page_index\":8,\"viewing_time\":4970.030000025872},{\"page_index\":9,\"viewing_time\":9622.150000010151}]","rt":71568.96499998402,"trial_type":"instructions","trial_index":4,"time_elapsed":402042,"internal_node_id":"0.0-4.0-0.0","task_version":"0.2"},{"response_times":[887.0349999633618,713.0550000001676,546.5349999722093,654.5349999796599,4180.640000035055],"keys_pressed":["rightarrow","leftarrow","rightarrow","rightarrow","leftarrow"],"horizon":5,"forced_choices":["rightarrow","leftarrow","rightarrow","rightarrow"],"right_color":"lightblue","left_color":"orange","left_mu":40,"right_mu":20,"left_numbers":[47,52,37,38,43],"right_numbers":[25,16,14,36,16],"points_earned":170,"phase":"practice","trial_type":"horizons-task","trial_index":5,"time_elapsed":410535,"internal_node_id":"0.0-4.0-1.0","task_version":"0.2"},{"response_times":[1196.2799999746494,993.784999998752,700.3350000013597,726.3899999670684,2737.0999999693595,3486.139999993611,4224.419999984093,1767.1400000108406,2631.6750000114553,1208.6750000016764],"keys_pressed":["leftarrow","leftarrow","rightarrow","rightarrow","rightarrow","rightarrow","rightarrow","rightarrow","rightarrow","rightarrow"],"horizon":10,"forced_choices":["leftarrow","leftarrow","rightarrow","rightarrow"],"right_color":"orange","left_color":"lightblue","left_mu":60,"right_mu":70,"left_numbers":[58,63,55,67,61,64,59,63,53,68],"right_numbers":[62,58,79,68,73,80,63,64,60,78],"points_earned":686,"phase":"practice","trial_type":"horizons-task","trial_index":6,"time_elapsed":431712,"internal_node_id":"0.0-4.0-2.0","task_version":"0.2"},{"view_history":"[{\"page_index\":0,\"viewing_time\":3123.8000000012107},{\"page_index\":1,\"viewing_time\":2786.1099999863654},{\"page_index\":2,\"viewing_time\":4118.964999972377},{\"page_index\":3,\"viewing_time\":2469.145000039134}]","rt":12498.169999977108,"trial_type":"instructions","trial_index":7,"time_elapsed":444211,"internal_node_id":"0.0-4.0-3.0","task_version":"0.2"},{"responses":["true","false","true"],"num_errors":0,"rt":17681.040000054054,"trial_type":"horizons-comprehension","trial_index":8,"time_elapsed":461894,"internal_node_id":"0.0-4.0-4.0","task_version":"0.2"},{"trial_type":"call-function","trial_index":9,"time_elapsed":461901,"internal_node_id":"0.0-5.0","task_version":"0.2"},{"view_history":"[{\"page_index\":0,\"viewing_time\":3098.5750000108965},{\"page_index\":1,\"viewing_time\":4404.529999999795}]","rt":7503.285000042524,"trial_type":"instructions","trial_index":10,"time_elapsed":469405,"internal_node_id":"0.0-6.0","task_version":"0.2"},{"response_times":[2987.970000016503,1561.3050000392832,1409.3649999704212,997.1749999676831,2636.8950000032783],"keys_pressed":["rightarrow","rightarrow","rightarrow","leftarrow","rightarrow"],"horizon":5,"forced_choices":["rightarrow","rightarrow","rightarrow","leftarrow"],"right_color":"lightblue","left_color":"orange","left_mu":40,"right_mu":52,"left_numbers":[48,37,41,44,42],"right_numbers":[54,48,50,54,47],"points_earned":243,"phase":"task","trial_type":"horizons-task","trial_index":11,"time_elapsed":480505,"internal_node_id":"0.0-7.0","task_version":"0.2"},{"response_times":[1062.13499995647,796.2299999780953,939.7100000060163,755.4949999903329,2098.404999997001,4836.489999957848,4617.94500000542,3168.969999998808,5755.8699999935925,2478.590000013355],"keys_pressed":["leftarrow","leftarrow","rightarrow","rightarrow","leftarrow","leftarrow","rightarrow","rightarrow","rightarrow","rightarrow"],"horizon":10,"forced_choices":["leftarrow","leftarrow","rightarrow","rightarrow"],"right_color":"orange","left_color":"lightblue","left_mu":40,"right_mu":32,"left_numbers":[37,41,41,41,32,26,35,50,36,31],"right_numbers":[33,40,26,33,26,26,40,31,35,42],"points_earned":343,"phase":"task","trial_type":"horizons-task","trial_index":12,"time_elapsed":508521,"internal_node_id":"0.0-8.0","task_version":"0.2"},{"response_times":[968.0199999711476,706.3450000132434,785.2899999707006,1713.6300000129268,1141.5299999644049],"keys_pressed":["leftarrow","leftarrow","rightarrow","leftarrow","leftarrow"],"horizon":5,"forced_choices":["leftarrow","leftarrow","rightarrow","leftarrow"],"right_color":"orange","left_color":"lightblue","left_mu":60,"right_mu":40,"left_numbers":[63,51,56,57,68],"right_numbers":[36,42,34,31,40],"points_earned":273,"phase":"task","trial_type":"horizons-task","trial_index":13,"time_elapsed":515341,"internal_node_id":"0.0-9.0","task_version":"0.2"},{"response_times":[807.7500000363216,661.1699999775738,841.8100000126287,738.9799999655224,4638.45000002766,3515.880000020843,3597.0500000403263,2719.37499998603,3443.4800000162795,1087.8600000287406],"keys_pressed":["leftarrow","rightarrow","leftarrow","leftarrow","rightarrow","leftarrow","rightarrow","rightarrow","rightarrow","rightarrow"],"horizon":10,"forced_choices":["leftarrow","rightarrow","leftarrow","leftarrow"],"right_color":"lightblue","left_color":"orange","left_mu":40,"right_mu":48,"left_numbers":[37,43,40,39,38,41,48,25,34,34],"right_numbers":[38,60,51,57,34,50,57,42,49,48],"points_earned":447,"phase":"task","trial_type":"horizons-task","trial_index":14,"time_elapsed":538897,"internal_node_id":"0.0-10.0","task_version":"0.2"},{"response_times":[985.6450000079349,835.9099999652244,814.1499999910593,918.8699999940582,2920.1049999683164],"keys_pressed":["leftarrow","rightarrow","leftarrow","leftarrow","leftarrow"],"horizon":5,"forced_choices":["leftarrow","rightarrow","leftarrow","leftarrow"],"right_color":"lightblue","left_color":"orange","left_mu":40,"right_mu":48,"left_numbers":[40,42,31,32,47],"right_numbers":[36,46,37,54,62],"points_earned":196,"phase":"task","trial_type":"horizons-task","trial_index":15,"time_elapsed":546888,"internal_node_id":"0.0-11.0","task_version":"0.2"},{"response_times":[806.4849999500439,861.4999999990687,773.3049999806099,573.3100000070408,2485.240000009071,3160.0049999542534,2479.0350000257604,2488.3300000219606,1774.4799999636598,1654.5599999953993],"keys_pressed":["rightarrow","leftarrow","leftarrow","leftarrow","leftarrow","leftarrow","leftarrow","rightarrow","leftarrow","leftarrow"],"horizon":10,"forced_choices":["rightarrow","leftarrow","leftarrow","leftarrow"],"right_color":"lightblue","left_color":"orange","left_mu":60,"right_mu":68,"left_numbers":[52,67,66,58,67,58,52,60,59,47],"right_numbers":[62,71,68,72,63,66,78,60,63,61],"points_earned":596,"phase":"task","trial_type":"horizons-task","trial_index":16,"time_elapsed":565452,"internal_node_id":"0.0-12.0","task_version":"0.2"},{"response_times":[750.934999960009,622.2750000306405,910.5199999758042,594.8949999874458,2154.430000053253,1373.9649999770336,1921.0450000246055,2288.150000036694,1239.1550000174902,747.5299999932759],"keys_pressed":["rightarrow","leftarrow","leftarrow","rightarrow","leftarrow","leftarrow","leftarrow","leftarrow","leftarrow","leftarrow"],"horizon":10,"forced_choices":["rightarrow","leftarrow","leftarrow","rightarrow"],"right_color":"lightblue","left_color":"orange","left_mu":40,"right_mu":10,"left_numbers":[50,41,36,34,42,50,39,45,37,31],"right_numbers":[15,0,8,23,19,4,0,18,16,17],"points_earned":359,"phase":"task","trial_type":"horizons-task","trial_index":17,"time_elapsed":579572,"internal_node_id":"0.0-13.0","task_version":"0.2"},{"response_times":[723.1000000028871,576.2199999880977,784.1699999989942,1008.8049999903888,3754.545000032522,1642.8399999858811,640.285000030417,576.5200000023469,1282.2099999757484,552.7049999800511],"keys_pressed":["leftarrow","rightarrow","leftarrow","rightarrow","leftarrow","leftarrow","leftarrow","leftarrow","leftarrow","leftarrow"],"horizon":10,"forced_choices":["leftarrow","rightarrow","leftarrow","rightarrow"],"right_color":"orange","left_color":"lightblue","left_mu":40,"right_mu":20,"left_numbers":[52,27,36,41,34,39,37,30,41,30],"right_numbers":[13,6,32,15,38,24,15,15,23,30],"points_earned":320,"phase":"task","trial_type":"horizons-task","trial_index":18,"time_elapsed":592620,"internal_node_id":"0.0-14.0","task_version":"0.2"},{"response_times":[721.480000007432,565.729999972973,603.255000023637,1417.7749999798834,1597.7900000289083,1336.8849999969825,1114.545000018552,795.0999999884516,647.4750000052154,476.5950000146404],"keys_pressed":["rightarrow","leftarrow","rightarrow","rightarrow","leftarrow","leftarrow","leftarrow","leftarrow","leftarrow","leftarrow"],"horizon":10,"forced_choices":["rightarrow","leftarrow","rightarrow","rightarrow"],"right_color":"lightblue","left_color":"orange","left_mu":60,"right_mu":30,"left_numbers":[54,59,60,66,51,52,56,70,58,59],"right_numbers":[18,24,27,31,35,33,29,37,37,16],"points_earned":481,"phase":"task","trial_type":"horizons-task","trial_index":19,"time_elapsed":603403,"internal_node_id":"0.0-15.0","task_version":"0.2"},{"response_times":[985.1799999596551,717.9849999956787,845.2199999592267,429.7800000058487,2549.7249999898486,2430.4250000277534,1328.200000047218,1188.625000009779,1670.1649999595247,725.6300000008196],"keys_pressed":["leftarrow","leftarrow","rightarrow","leftarrow","rightarrow","rightarrow","rightarrow","rightarrow","rightarrow","rightarrow"],"horizon":10,"forced_choices":["leftarrow","leftarrow","rightarrow","leftarrow"],"right_color":"lightblue","left_color":"orange","left_mu":60,"right_mu":80,"left_numbers":[54,57,59,72,66,55,53,68,50,62],"right_numbers":[97,81,84,74,70,84,91,77,86,80],"points_earned":755,"phase":"task","trial_type":"horizons-task","trial_index":20,"time_elapsed":617779,"internal_node_id":"0.0-16.0","task_version":"0.2"},{"response_times":[686.6550000268035,601.9300000043586,526.6999999876134,546.1950000026263,3409.555000020191,2546.2549999938346,2246.9400000409223,1215.5250000068918,688.2650000043213,1045.589999994263],"keys_pressed":["leftarrow","rightarrow","leftarrow","rightarrow","leftarrow","leftarrow","leftarrow","rightarrow","leftarrow","leftarrow"],"horizon":10,"forced_choices":["leftarrow","rightarrow","leftarrow","rightarrow"],"right_color":"lightblue","left_color":"orange","left_mu":60,"right_mu":52,"left_numbers":[60,67,43,52,53,63,51,48,55,58],"right_numbers":[62,60,53,40,59,35,52,54,60,58],"points_earned":537,"phase":"task","trial_type":"horizons-task","trial_index":21,"time_elapsed":632797,"internal_node_id":"0.0-17.0","task_version":"0.2"},{"response_times":[725.4850000026636,544.2250000196509,907.7549999929033,1104.9650000059046,1708.5849999566562],"keys_pressed":["leftarrow","rightarrow","rightarrow","leftarrow","rightarrow"],"horizon":5,"forced_choices":["leftarrow","rightarrow","rightarrow","leftarrow"],"right_color":"lightblue","left_color":"orange","left_mu":60,"right_mu":68,"left_numbers":[47,50,53,70,74],"right_numbers":[61,70,65,68,53],"points_earned":305,"phase":"task","trial_type":"horizons-task","trial_index":22,"time_elapsed":639291,"internal_node_id":"0.0-18.0","task_version":"0.2"},{"response_times":[682.1999999810942,505.10499998927116,500.8749999688007,852.8700000024401,1666.594999958761],"keys_pressed":["rightarrow","leftarrow","rightarrow","leftarrow","rightarrow"],"horizon":5,"forced_choices":["rightarrow","leftarrow","rightarrow","leftarrow"],"right_color":"lightblue","left_color":"orange","left_mu":60,"right_mu":80,"left_numbers":[65,52,42,54,62],"right_numbers":[70,83,84,74,69],"points_earned":329,"phase":"task","trial_type":"horizons-task","trial_index":23,"time_elapsed":645002,"internal_node_id":"0.0-19.0","task_version":"0.2"},{"response_times":[602.8649999643676,545.0049999635667,635.3050000034273,782.9599999822676,1356.2099999981],"keys_pressed":["rightarrow","leftarrow","leftarrow","rightarrow","rightarrow"],"horizon":5,"forced_choices":["rightarrow","leftarrow","leftarrow","rightarrow"],"right_color":"orange","left_color":"lightblue","left_mu":60,"right_mu":72,"left_numbers":[52,57,59,63,75],"right_numbers":[56,83,68,78,60],"points_earned":310,"phase":"task","trial_type":"horizons-task","trial_index":24,"time_elapsed":650431,"internal_node_id":"0.0-20.0","task_version":"0.2"},{"response_times":[644.8749999981374,554.0749999927357,509.79999999981374,607.6949999551289,3812.964999990072],"keys_pressed":["leftarrow","rightarrow","leftarrow","rightarrow","rightarrow"],"horizon":5,"forced_choices":["leftarrow","rightarrow","leftarrow","rightarrow"],"right_color":"orange","left_color":"lightblue","left_mu":40,"right_mu":44,"left_numbers":[44,41,30,38,52],"right_numbers":[48,41,48,46,46],"points_earned":207,"phase":"task","trial_type":"horizons-task","trial_index":25,"time_elapsed":658065,"internal_node_id":"0.0-21.0","task_version":"0.2"},{"response_times":[540.244999981951,640.9400000120513,527.074999990873,464.5400000154041,5679.6399999875575,2555.6899999501184,1006.8050000118092,1428.9799999678507,2653.4250000258908,550.9150000289083],"keys_pressed":["leftarrow","leftarrow","leftarrow","rightarrow","rightarrow","leftarrow","leftarrow","leftarrow","rightarrow","leftarrow"],"horizon":10,"forced_choices":["leftarrow","leftarrow","leftarrow","rightarrow"],"right_color":"orange","left_color":"lightblue","left_mu":60,"right_mu":56,"left_numbers":[54,58,65,65,52,74,61,62,62,71],"right_numbers":[59,47,69,62,58,55,56,63,60,60],"points_earned":625,"phase":"task","trial_type":"horizons-task","trial_index":26,"time_elapsed":675616,"internal_node_id":"0.0-22.0","task_version":"0.2"},{"response_times":[622.3699999973178,408.01999997347593,611.304999969434,625.960000033956,2391.6850000387058],"keys_pressed":["rightarrow","leftarrow","leftarrow","leftarrow","leftarrow"],"horizon":5,"forced_choices":["rightarrow","leftarrow","leftarrow","leftarrow"],"right_color":"lightblue","left_color":"orange","left_mu":60,"right_mu":68,"left_numbers":[68,59,65,64,69],"right_numbers":[73,63,71,78,73],"points_earned":330,"phase":"task","trial_type":"horizons-task","trial_index":27,"time_elapsed":681778,"internal_node_id":"0.0-23.0","task_version":"0.2"},{"response_times":[593.2899999897927,574.7749999864027,644.9450000072829,745.7799999974668,1603.7949999445118],"keys_pressed":["leftarrow","leftarrow","rightarrow","rightarrow","rightarrow"],"horizon":5,"forced_choices":["leftarrow","leftarrow","rightarrow","rightarrow"],"right_color":"orange","left_color":"lightblue","left_mu":40,"right_mu":70,"left_numbers":[47,41,51,53,50],"right_numbers":[81,67,64,59,78],"points_earned":289,"phase":"task","trial_type":"horizons-task","trial_index":28,"time_elapsed":687443,"internal_node_id":"0.0-24.0","task_version":"0.2"},{"response_times":[666.7950000264682,484.0499999700114,701.3200000510551,882.5400000205263,1660.6850000098348],"keys_pressed":["leftarrow","rightarrow","rightarrow","rightarrow","leftarrow"],"horizon":5,"forced_choices":["leftarrow","rightarrow","rightarrow","rightarrow"],"right_color":"orange","left_color":"lightblue","left_mu":60,"right_mu":48,"left_numbers":[66,56,42,71,63],"right_numbers":[50,60,42,53,40],"points_earned":284,"phase":"task","trial_type":"horizons-task","trial_index":29,"time_elapsed":693342,"internal_node_id":"0.0-25.0","task_version":"0.2"},{"response_times":[566.9749999651685,677.2850000415929,626.3150000013411,680.7849999750033,2394.2999999853782,2073.834999988321,2427.4200000218116,940.6350000062957,870.3500000410713,659.4899999909103],"keys_pressed":["leftarrow","leftarrow","rightarrow","leftarrow","leftarrow","leftarrow","leftarrow","leftarrow","leftarrow","leftarrow"],"horizon":10,"forced_choices":["leftarrow","leftarrow","rightarrow","leftarrow"],"right_color":"orange","left_color":"lightblue","left_mu":60,"right_mu":40,"left_numbers":[61,64,71,62,62,45,55,62,70,65],"right_numbers":[32,47,56,44,49,50,51,37,43,52],"points_earned":602,"phase":"task","trial_type":"horizons-task","trial_index":30,"time_elapsed":706766,"internal_node_id":"0.0-26.0","task_version":"0.2"},{"response_times":[629.9349999753758,416.11999995075166,549.4150000158697,520.9950000280514,1488.1700000260025,3149.5749999885447,931.685000017751,857.2849999764003,883.8300000061281,537.2400000342168],"keys_pressed":["rightarrow","leftarrow","leftarrow","rightarrow","leftarrow","leftarrow","rightarrow","leftarrow","leftarrow","leftarrow"],"horizon":10,"forced_choices":["rightarrow","leftarrow","leftarrow","rightarrow"],"right_color":"lightblue","left_color":"orange","left_mu":40,"right_mu":36,"left_numbers":[36,43,40,35,47,20,44,37,38,56],"right_numbers":[47,31,38,35,44,37,32,24,59,34],"points_earned":395,"phase":"task","trial_type":"horizons-task","trial_index":31,"time_elapsed":718233,"internal_node_id":"0.0-27.0","task_version":"0.2"},{"response_times":[602.5899999658577,676.7349999863654,549.39999995986,961.7200000211596,1717.6500000059605,986.3350000232458,1507.2650000220165,1198.0099999927916,730.0549999927171,568.8499999814667],"keys_pressed":["rightarrow","leftarrow","leftarrow","leftarrow","leftarrow","rightarrow","rightarrow","rightarrow","rightarrow","rightarrow"],"horizon":10,"forced_choices":["rightarrow","leftarrow","leftarrow","leftarrow"],"right_color":"lightblue","left_color":"orange","left_mu":60,"right_mu":90,"left_numbers":[60,69,69,57,63,58,53,62,88,82],"right_numbers":[84,94,73,80,89,74,80,76,97,95],"points_earned":764,"phase":"task","trial_type":"horizons-task","trial_index":32,"time_elapsed":729237,"internal_node_id":"0.0-28.0","task_version":"0.2"},{"response_times":[627.8249999741092,523.7099999794737,508.2449999754317,725.4449999891222,1794.1050000372343,1601.0900000110269,1997.10999999661,1411.2699999823235,1115.6600000103936,711.6900000255555],"keys_pressed":["leftarrow","leftarrow","leftarrow","rightarrow","rightarrow","rightarrow","rightarrow","rightarrow","rightarrow","rightarrow"],"horizon":10,"forced_choices":["leftarrow","leftarrow","leftarrow","rightarrow"],"right_color":"orange","left_color":"lightblue","left_mu":60,"right_mu":72,"left_numbers":[63,58,64,55,49,64,50,58,55,62],"right_numbers":[81,79,66,83,73,65,60,69,61,70],"points_earned":666,"phase":"task","trial_type":"horizons-task","trial_index":33,"time_elapsed":741757,"internal_node_id":"0.0-29.0","task_version":"0.2"},{"response_times":[606.5050000324845,475.53999995579943,506.23499997891486,604.239999956917,1949.9200000427663,1427.075000014156,956.6950000007637,888.3999999961816,877.7349999872968,546.6100000194274],"keys_pressed":["leftarrow","rightarrow","rightarrow","rightarrow","rightarrow","rightarrow","rightarrow","rightarrow","rightarrow","rightarrow"],"horizon":10,"forced_choices":["leftarrow","rightarrow","rightarrow","rightarrow"],"right_color":"lightblue","left_color":"orange","left_mu":40,"right_mu":60,"left_numbers":[40,32,42,32,55,26,48,48,37,50],"right_numbers":[65,48,62,45,63,68,62,52,70,73],"points_earned":583,"phase":"task","trial_type":"horizons-task","trial_index":34,"time_elapsed":752101,"internal_node_id":"0.0-30.0","task_version":"0.2"},{"response_times":[621.5049999882467,433.44500003149733,806.1799999559298,1203.9550000336021,1601.9199999864213],"keys_pressed":["rightarrow","leftarrow","leftarrow","rightarrow","rightarrow"],"horizon":5,"forced_choices":["rightarrow","leftarrow","leftarrow","rightarrow"],"right_color":"lightblue","left_color":"orange","left_mu":40,"right_mu":52,"left_numbers":[36,33,40,25,44],"right_numbers":[57,58,48,46,44],"points_earned":220,"phase":"task","trial_type":"horizons-task","trial_index":35,"time_elapsed":758273,"internal_node_id":"0.0-31.0","task_version":"0.2"},{"response_times":[556.8800000473857,458.89499998884276,685.7349999481812,470.2050000196323,2015.190000005532,1735.7300000148825,1672.9150000028312,1616.5449999971315,873.0900000082329,591.5050000185147],"keys_pressed":["leftarrow","rightarrow","leftarrow","rightarrow","leftarrow","leftarrow","leftarrow","leftarrow","leftarrow","leftarrow"],"horizon":10,"forced_choices":["leftarrow","rightarrow","leftarrow","rightarrow"],"right_color":"orange","left_color":"lightblue","left_mu":40,"right_mu":44,"left_numbers":[45,30,45,31,46,33,46,34,40,55],"right_numbers":[43,34,35,43,40,27,28,34,60,33],"points_earned":421,"phase":"task","trial_type":"horizons-task","trial_index":36,"time_elapsed":770453,"internal_node_id":"0.0-32.0","task_version":"0.2"},{"response_times":[554.7850000439212,498.32499999320135,564.7400000016205,639.4399999990128,2495.2749999938533],"keys_pressed":["rightarrow","leftarrow","leftarrow","rightarrow","leftarrow"],"horizon":5,"forced_choices":["rightarrow","leftarrow","leftarrow","rightarrow"],"right_color":"lightblue","left_color":"orange","left_mu":40,"right_mu":36,"left_numbers":[22,38,44,34,41],"right_numbers":[29,25,32,38,30],"points_earned":190,"phase":"task","trial_type":"horizons-task","trial_index":37,"time_elapsed":776711,"internal_node_id":"0.0-33.0","task_version":"0.2"},{"response_times":[565.2899999986403,542.3750000190921,578.0299999751151,1308.7149999919347,1362.1500000008382],"keys_pressed":["rightarrow","rightarrow","leftarrow","leftarrow","rightarrow"],"horizon":5,"forced_choices":["rightarrow","rightarrow","leftarrow","leftarrow"],"right_color":"lightblue","left_color":"orange","left_mu":40,"right_mu":60,"left_numbers":[40,42,32,41,44],"right_numbers":[56,56,61,55,57],"points_earned":242,"phase":"task","trial_type":"horizons-task","trial_index":38,"time_elapsed":782573,"internal_node_id":"0.0-34.0","task_version":"0.2"},{"response_times":[540.4900000430644,549.1150000016205,496.4850000105798,575.7100000046194,2698.249999957625,3126.734999998007,1237.699999997858,594.1299999831244,988.4600000223145,642.630000016652],"keys_pressed":["leftarrow","leftarrow","rightarrow","rightarrow","leftarrow","leftarrow","rightarrow","leftarrow","leftarrow","leftarrow"],"horizon":10,"forced_choices":["leftarrow","leftarrow","rightarrow","rightarrow"],"right_color":"orange","left_color":"lightblue","left_mu":60,"right_mu":48,"left_numbers":[53,62,59,44,61,59,64,56,63,53],"right_numbers":[37,40,58,51,59,51,50,50,60,49],"points_earned":566,"phase":"task","trial_type":"horizons-task","trial_index":39,"time_elapsed":795528,"internal_node_id":"0.0-35.0","task_version":"0.2"},{"response_times":[732.9499999759719,429.2799999821,610.9949999954551,525.3699999884702,1798.4050000086427,1282.0250000222586,561.7150000180118,453.3899999805726,427.2150000324473,407.5249999877997],"keys_pressed":["leftarrow","rightarrow","rightarrow","leftarrow","leftarrow","leftarrow","leftarrow","leftarrow","leftarrow","leftarrow"],"horizon":10,"forced_choices":["leftarrow","rightarrow","rightarrow","leftarrow"],"right_color":"lightblue","left_color":"orange","left_mu":60,"right_mu":30,"left_numbers":[69,56,50,58,59,65,69,52,51,64],"right_numbers":[26,37,15,33,23,39,28,25,14,23],"points_earned":539,"phase":"task","trial_type":"horizons-task","trial_index":40,"time_elapsed":804263,"internal_node_id":"0.0-36.0","task_version":"0.2"},{"response_times":[826.9449999788776,538.8349999557249,561.8350000004284,624.9400000087917,1855.1600000355393],"keys_pressed":["leftarrow","leftarrow","rightarrow","rightarrow","leftarrow"],"horizon":5,"forced_choices":["leftarrow","leftarrow","rightarrow","rightarrow"],"right_color":"orange","left_color":"lightblue","left_mu":60,"right_mu":48,"left_numbers":[56,68,55,56,50],"right_numbers":[54,60,51,49,36],"points_earned":274,"phase":"task","trial_type":"horizons-task","trial_index":41,"time_elapsed":810176,"internal_node_id":"0.0-37.0","task_version":"0.2"},{"response_times":[663.3600000059232,539.3150000018068,496.6349999886006,513.9499999932013,2360.2649999666028,1518.530000001192,971.4099999982864,874.1750000044703,1190.264999982901,918.1499999831431],"keys_pressed":["rightarrow","rightarrow","leftarrow","rightarrow","leftarrow","rightarrow","leftarrow","leftarrow","leftarrow","leftarrow"],"horizon":10,"forced_choices":["rightarrow","rightarrow","leftarrow","rightarrow"],"right_color":"orange","left_color":"lightblue","left_mu":60,"right_mu":64,"left_numbers":[76,56,58,60,65,53,69,59,70,64],"right_numbers":[59,64,60,60,75,53,74,56,56,56],"points_earned":621,"phase":"task","trial_type":"horizons-task","trial_index":42,"time_elapsed":821726,"internal_node_id":"0.0-38.0","task_version":"0.2"},{"response_times":[683.6299999849871,429.67500002123415,681.1800000141375,1217.0650000334717,1193.6599999899045,682.4199999682605,799.84999995213,655.9300000080839,975.1999999862164,1104.9750000238419],"keys_pressed":["rightarrow","leftarrow","leftarrow","rightarrow","rightarrow","rightarrow","leftarrow","rightarrow","rightarrow","leftarrow"],"horizon":10,"forced_choices":["rightarrow","leftarrow","leftarrow","rightarrow"],"right_color":"lightblue","left_color":"orange","left_mu":40,"right_mu":52,"left_numbers":[32,42,41,48,44,48,45,43,50,40],"right_numbers":[65,52,47,60,57,31,73,62,52,54],"points_earned":495,"phase":"task","trial_type":"horizons-task","trial_index":43,"time_elapsed":831653,"internal_node_id":"0.0-39.0","task_version":"0.2"},{"response_times":[654.244999983348,503.4899999736808,657.8199999639764,691.2550000124611,1717.2300000092946,1022.5099999806844,1284.925000043586,683.3899999619462,1163.364999985788,552.2750000236556],"keys_pressed":["leftarrow","rightarrow","rightarrow","leftarrow","rightarrow","rightarrow","leftarrow","rightarrow","rightarrow","rightarrow"],"horizon":10,"forced_choices":["leftarrow","rightarrow","rightarrow","leftarrow"],"right_color":"lightblue","left_color":"orange","left_mu":60,"right_mu":68,"left_numbers":[58,41,63,56,61,58,47,67,66,77],"right_numbers":[69,77,69,57,68,59,87,53,72,56],"points_earned":615,"phase":"task","trial_type":"horizons-task","trial_index":44,"time_elapsed":842086,"internal_node_id":"0.0-40.0","task_version":"0.2"},{"response_times":[623.2300000265241,465.14000004390255,531.8400000105612,486.30000004777685,525.6950000184588],"keys_pressed":["leftarrow","rightarrow","leftarrow","rightarrow","leftarrow"],"horizon":5,"forced_choices":["leftarrow","rightarrow","leftarrow","rightarrow"],"right_color":"orange","left_color":"lightblue","left_mu":40,"right_mu":20,"left_numbers":[54,38,41,29,42],"right_numbers":[21,14,21,12,15],"points_earned":163,"phase":"task","trial_type":"horizons-task","trial_index":45,"time_elapsed":846224,"internal_node_id":"0.0-41.0","task_version":"0.2"},{"response_times":[720.595000020694,494.22500003129244,573.69499997003,547.8250000160187,2290.500000002794,1157.8449999797158,1196.9149999786168,554.0049999835901,448.5100000165403,439.9649999686517],"keys_pressed":["rightarrow","leftarrow","leftarrow","leftarrow","leftarrow","leftarrow","leftarrow","leftarrow","leftarrow","leftarrow"],"horizon":10,"forced_choices":["rightarrow","leftarrow","leftarrow","leftarrow"],"right_color":"lightblue","left_color":"orange","left_mu":40,"right_mu":10,"left_numbers":[35,35,41,35,39,37,42,29,26,40],"right_numbers":[0,15,0,10,10,18,4,7,12,10],"points_earned":324,"phase":"task","trial_type":"horizons-task","trial_index":46,"time_elapsed":856153,"internal_node_id":"0.0-42.0","task_version":"0.2"},{"response_times":[713.3500000345521,393.9249999821186,621.5749999973923,519.7449999977835,4011.599999968894,1644.4450000417419,729.0299999876879,1388.6550000170246,833.8600000133738,648.6700000241399],"keys_pressed":["leftarrow","rightarrow","rightarrow","leftarrow","leftarrow","rightarrow","leftarrow","rightarrow","leftarrow","rightarrow"],"horizon":10,"forced_choices":["leftarrow","rightarrow","rightarrow","leftarrow"],"right_color":"orange","left_color":"lightblue","left_mu":60,"right_mu":64,"left_numbers":[53,76,67,70,63,56,40,56,58,52],"right_numbers":[62,63,58,66,75,58,65,59,71,57],"points_earned":579,"phase":"task","trial_type":"horizons-task","trial_index":47,"time_elapsed":869162,"internal_node_id":"0.0-43.0","task_version":"0.2"},{"response_times":[585.6850000564009,469.0249999985099,408.13499997602776,408.2449999987148,1677.5699999998324,1456.5300000249408,994.0599999972619,804.4400000362657,789.0500000212342,557.9550000256859],"keys_pressed":["leftarrow","rightarrow","leftarrow","rightarrow","rightarrow","rightarrow","rightarrow","rightarrow","rightarrow","rightarrow"],"horizon":10,"forced_choices":["leftarrow","rightarrow","leftarrow","rightarrow"],"right_color":"lightblue","left_color":"orange","left_mu":40,"right_mu":48,"left_numbers":[21,39,42,36,44,47,48,47,34,29],"right_numbers":[43,45,49,44,42,49,48,60,49,62],"points_earned":462,"phase":"task","trial_type":"horizons-task","trial_index":48,"time_elapsed":878817,"internal_node_id":"0.0-44.0","task_version":"0.2"},{"response_times":[652.2499999846332,483.36499999277294,466.6399999987334,669.9299999745563,1939.8500000243075,1927.330000034999,679.1599999996834,546.0500000044703,444.04500001110137,469.11999996518716],"keys_pressed":["rightarrow","rightarrow","leftarrow","leftarrow","leftarrow","leftarrow","leftarrow","leftarrow","leftarrow","leftarrow"],"horizon":10,"forced_choices":["rightarrow","rightarrow","leftarrow","leftarrow"],"right_color":"orange","left_color":"lightblue","left_mu":60,"right_mu":40,"left_numbers":[62,65,65,51,62,59,54,59,51,58],"right_numbers":[36,43,26,41,42,41,34,27,48,39],"points_earned":538,"phase":"task","trial_type":"horizons-task","trial_index":49,"time_elapsed":888605,"internal_node_id":"0.0-45.0","task_version":"0.2"},{"response_times":[529.854999971576,393.5200000414625,664.3049999838695,694.8599999886937,1043.3349999948405],"keys_pressed":["leftarrow","rightarrow","leftarrow","rightarrow","rightarrow"],"horizon":5,"forced_choices":["leftarrow","rightarrow","leftarrow","rightarrow"],"right_color":"lightblue","left_color":"orange","left_mu":60,"right_mu":52,"left_numbers":[39,70,56,61,70],"right_numbers":[58,53,43,51,59],"points_earned":258,"phase":"task","trial_type":"horizons-task","trial_index":50,"time_elapsed":893436,"internal_node_id":"0.0-46.0","task_version":"0.2"},{"view_history":"[{\"page_index\":0,\"viewing_time\":9037.45499998331},{\"page_index\":1,\"viewing_time\":18177.88999999175}]","rt":27215.639999951236,"trial_type":"instructions","trial_index":51,"time_elapsed":920655,"internal_node_id":"0.0-47.0","task_version":"0.2"},{"response_times":[709.195000003092,413.8249999959953,480.550000036601,945.7750000292435,1014.8999999510124,803.9449999923818,605.7349999900907,985.0950000109151,817.574999993667,494.3349999957718],"keys_pressed":["rightarrow","leftarrow","rightarrow","rightarrow","rightarrow","leftarrow","rightarrow","rightarrow","leftarrow","rightarrow"],"horizon":10,"forced_choices":["rightarrow","leftarrow","rightarrow","rightarrow"],"right_color":"orange","left_color":"lightblue","left_mu":40,"right_mu":44,"left_numbers":[42,38,42,24,41,36,36,25,43,38],"right_numbers":[34,43,48,48,29,34,42,53,35,35],"points_earned":406,"phase":"task","trial_type":"horizons-task","trial_index":52,"time_elapsed":929434,"internal_node_id":"0.0-48.0","task_version":"0.2"},{"response_times":[543.0400000186637,439.94000001112,456.44000003812835,482.18999995151535,1787.5050000147894],"keys_pressed":["leftarrow","rightarrow","rightarrow","rightarrow","rightarrow"],"horizon":5,"forced_choices":["leftarrow","rightarrow","rightarrow","rightarrow"],"right_color":"lightblue","left_color":"orange","left_mu":40,"right_mu":60,"left_numbers":[50,42,32,53,48],"right_numbers":[64,60,66,57,43],"points_earned":276,"phase":"task","trial_type":"horizons-task","trial_index":53,"time_elapsed":934648,"internal_node_id":"0.0-49.0","task_version":"0.2"},{"response_times":[634.9000000045635,460.19500005058944,501.9600000232458,521.2249999749474,1521.965000021737],"keys_pressed":["leftarrow","rightarrow","rightarrow","leftarrow","leftarrow"],"horizon":5,"forced_choices":["leftarrow","rightarrow","rightarrow","leftarrow"],"right_color":"lightblue","left_color":"orange","left_mu":60,"right_mu":30,"left_numbers":[60,72,66,56,59],"right_numbers":[35,35,34,28,29],"points_earned":244,"phase":"task","trial_type":"horizons-task","trial_index":54,"time_elapsed":939794,"internal_node_id":"0.0-50.0","task_version":"0.2"},{"response_times":[582.7099999878556,399.15000001201406,500.02500001573935,523.9599999622442,665.4299999936484],"keys_pressed":["rightarrow","leftarrow","leftarrow","leftarrow","leftarrow"],"horizon":5,"forced_choices":["rightarrow","leftarrow","leftarrow","leftarrow"],"right_color":"lightblue","left_color":"orange","left_mu":40,"right_mu":10,"left_numbers":[34,46,54,33,41],"right_numbers":[5,8,12,9,12],"points_earned":179,"phase":"task","trial_type":"horizons-task","trial_index":55,"time_elapsed":943968,"internal_node_id":"0.0-51.0","task_version":"0.2"},{"response_times":[540.7899999991059,673.3050000038929,489.56499999621883,559.9650000222027,1693.444999982603,2433.489999966696,2682.1950000012293,580.3949999972247,1065.3399999719113,494.0150000038557],"keys_pressed":["rightarrow","rightarrow","leftarrow","leftarrow","leftarrow","leftarrow","leftarrow","leftarrow","leftarrow","leftarrow"],"horizon":10,"forced_choices":["rightarrow","rightarrow","leftarrow","leftarrow"],"right_color":"orange","left_color":"lightblue","left_mu":40,"right_mu":28,"left_numbers":[57,39,54,21,45,34,47,33,31,29],"right_numbers":[34,20,43,25,11,39,32,37,23,23],"points_earned":348,"phase":"task","trial_type":"horizons-task","trial_index":56,"time_elapsed":956684,"internal_node_id":"0.0-52.0","task_version":"0.2"},{"response_times":[720.7249999628402,475.57499998947605,452.3300000000745,494.08999999286607,970.3200000221841],"keys_pressed":["leftarrow","leftarrow","leftarrow","rightarrow","leftarrow"],"horizon":5,"forced_choices":["leftarrow","leftarrow","leftarrow","rightarrow"],"right_color":"orange","left_color":"lightblue","left_mu":60,"right_mu":56,"left_numbers":[56,65,65,53,56],"right_numbers":[48,43,55,58,72],"points_earned":300,"phase":"task","trial_type":"horizons-task","trial_index":57,"time_elapsed":961300,"internal_node_id":"0.0-53.0","task_version":"0.2"},{"response_times":[580.0300000119023,458.6199999903329,464.4599999883212,1127.6749999960884,1020.5849999911152],"keys_pressed":["rightarrow","rightarrow","rightarrow","leftarrow","rightarrow"],"horizon":5,"forced_choices":["rightarrow","rightarrow","rightarrow","leftarrow"],"right_color":"orange","left_color":"lightblue","left_mu":40,"right_mu":32,"left_numbers":[47,46,28,30,40],"right_numbers":[28,34,24,40,42],"points_earned":158,"phase":"task","trial_type":"horizons-task","trial_index":58,"time_elapsed":966454,"internal_node_id":"0.0-54.0","task_version":"0.2"},{"response_times":[692.3400000086986,479.9549999879673,435.5850000283681,555.6050000013784,2118.755000003148],"keys_pressed":["rightarrow","leftarrow","rightarrow","leftarrow","leftarrow"],"horizon":5,"forced_choices":["rightarrow","leftarrow","rightarrow","leftarrow"],"right_color":"orange","left_color":"lightblue","left_mu":60,"right_mu":56,"left_numbers":[57,52,60,67,65],"right_numbers":[63,44,53,61,45],"points_earned":300,"phase":"task","trial_type":"horizons-task","trial_index":59,"time_elapsed":972242,"internal_node_id":"0.0-55.0","task_version":"0.2"},{"response_times":[596.0099999792874,460.4399999952875,370.86000002454966,417.95000003185123,1886.9149999809451,2294.7300000232644,665.2800000156276,902.765000006184,535.3499999619089,429.01000002166256],"keys_pressed":["rightarrow","leftarrow","rightarrow","leftarrow","rightarrow","leftarrow","rightarrow","rightarrow","rightarrow","rightarrow"],"horizon":10,"forced_choices":["rightarrow","leftarrow","rightarrow","leftarrow"],"right_color":"lightblue","left_color":"orange","left_mu":60,"right_mu":80,"left_numbers":[72,76,63,44,46,69,62,47,62,54],"right_numbers":[80,80,77,89,93,76,72,83,87,72],"points_earned":753,"phase":"task","trial_type":"horizons-task","trial_index":60,"time_elapsed":982317,"internal_node_id":"0.0-56.0","task_version":"0.2"},{"response_times":[799.0350000327453,497.8100000298582,469.4149999995716,498.78000002354383,2039.8549999808893,2372.655000013765,1272.0749999862164,773.2899999828078,650.1849999767728,713.2950000232086],"keys_pressed":["rightarrow","rightarrow","leftarrow","rightarrow","rightarrow","rightarrow","rightarrow","leftarrow","rightarrow","rightarrow"],"horizon":10,"forced_choices":["rightarrow","rightarrow","leftarrow","rightarrow"],"right_color":"orange","left_color":"lightblue","left_mu":40,"right_mu":70,"left_numbers":[34,48,39,36,23,49,44,52,50,41],"right_numbers":[65,77,67,69,61,77,46,73,72,71],"points_earned":629,"phase":"task","trial_type":"horizons-task","trial_index":61,"time_elapsed":993916,"internal_node_id":"0.0-57.0","task_version":"0.2"},{"response_times":[809.3750000116415,451.65000000270084,573.949999990873,432.91500001214445,1869.3050000001676,1604.425000026822,1488.9649999677204,654.4899999862537,523.4049999853596,434.3599999556318],"keys_pressed":["rightarrow","leftarrow","leftarrow","rightarrow","rightarrow","rightarrow","rightarrow","rightarrow","rightarrow","rightarrow"],"horizon":10,"forced_choices":["rightarrow","leftarrow","leftarrow","rightarrow"],"right_color":"orange","left_color":"lightblue","left_mu":60,"right_mu":72,"left_numbers":[65,59,48,68,62,53,44,57,59,56],"right_numbers":[64,63,68,77,71,64,68,80,78,79],"points_earned":688,"phase":"task","trial_type":"horizons-task","trial_index":62,"time_elapsed":1004269,"internal_node_id":"0.0-58.0","task_version":"0.2"},{"response_times":[633.6749999900348,521.3100000401028,531.7350000259466,463.03500002250075,869.8050000239164],"keys_pressed":["leftarrow","leftarrow","leftarrow","rightarrow","rightarrow"],"horizon":5,"forced_choices":["leftarrow","leftarrow","leftarrow","rightarrow"],"right_color":"orange","left_color":"lightblue","left_mu":60,"right_mu":72,"left_numbers":[65,59,73,57,52],"right_numbers":[52,68,75,80,78],"points_earned":355,"phase":"task","trial_type":"horizons-task","trial_index":63,"time_elapsed":1008793,"internal_node_id":"0.0-59.0","task_version":"0.2"},{"response_times":[548.0349999852479,541.0649999976158,392.56499998737127,615.6699999701232,1264.1350000048988],"keys_pressed":["rightarrow","leftarrow","rightarrow","rightarrow","leftarrow"],"horizon":5,"forced_choices":["rightarrow","leftarrow","rightarrow","rightarrow"],"right_color":"orange","left_color":"lightblue","left_mu":40,"right_mu":44,"left_numbers":[33,50,42,58,52],"right_numbers":[40,46,33,38,40],"points_earned":213,"phase":"task","trial_type":"horizons-task","trial_index":64,"time_elapsed":1013656,"internal_node_id":"0.0-60.0","task_version":"0.2"},{"response_times":[578.4800000255927,449.59999999264255,600.1999999862164,585.6450000428595,1480.7049999944866,1418.7349999556318,2060.605000006035,990.7099999836646,1405.5500000249594,1020.0349999940954],"keys_pressed":["leftarrow","rightarrow","rightarrow","rightarrow","leftarrow","leftarrow","leftarrow","leftarrow","leftarrow","rightarrow"],"horizon":10,"forced_choices":["leftarrow","rightarrow","rightarrow","rightarrow"],"right_color":"orange","left_color":"lightblue","left_mu":60,"right_mu":48,"left_numbers":[63,63,68,55,65,55,62,53,50,58],"right_numbers":[41,45,55,49,48,44,44,55,57,50],"points_earned":547,"phase":"task","trial_type":"horizons-task","trial_index":65,"time_elapsed":1025752,"internal_node_id":"0.0-61.0","task_version":"0.2"},{"response_times":[549.2399999639019,468.5549999703653,474.70500000054017,499.3900000117719,1400.8650000323541],"keys_pressed":["leftarrow","leftarrow","rightarrow","leftarrow","leftarrow"],"horizon":5,"forced_choices":["leftarrow","leftarrow","rightarrow","leftarrow"],"right_color":"lightblue","left_color":"orange","left_mu":60,"right_mu":52,"left_numbers":[62,55,76,62,60],"right_numbers":[47,54,46,54,46],"points_earned":285,"phase":"task","trial_type":"horizons-task","trial_index":66,"time_elapsed":1030650,"internal_node_id":"0.0-62.0","task_version":"0.2"},{"response_times":[588.7250000378117,440.17499999608845,474.64000002946705,462.37500000279397,1726.0799999930896],"keys_pressed":["leftarrow","rightarrow","leftarrow","rightarrow","rightarrow"],"horizon":5,"forced_choices":["leftarrow","rightarrow","leftarrow","rightarrow"],"right_color":"lightblue","left_color":"orange","left_mu":40,"right_mu":48,"left_numbers":[46,40,55,44,40],"right_numbers":[39,58,56,41,52],"points_earned":252,"phase":"task","trial_type":"horizons-task","trial_index":67,"time_elapsed":1035845,"internal_node_id":"0.0-63.0","task_version":"0.2"},{"response_times":[623.3099999953993,473.53000001749024,420.7499999902211,562.5899999868125,1452.739999978803],"keys_pressed":["leftarrow","leftarrow","rightarrow","rightarrow","leftarrow"],"horizon":5,"forced_choices":["leftarrow","leftarrow","rightarrow","rightarrow"],"right_color":"orange","left_color":"lightblue","left_mu":40,"right_mu":32,"left_numbers":[33,37,31,48,38],"right_numbers":[36,42,24,35,38],"points_earned":167,"phase":"task","trial_type":"horizons-task","trial_index":68,"time_elapsed":1040881,"internal_node_id":"0.0-64.0","task_version":"0.2"},{"response_times":[448.5700000077486,520.1299999607727,463.0650000181049,477.794999955222,1020.6300000427291],"keys_pressed":["rightarrow","rightarrow","leftarrow","rightarrow","rightarrow"],"horizon":5,"forced_choices":["rightarrow","rightarrow","leftarrow","rightarrow"],"right_color":"orange","left_color":"lightblue","left_mu":40,"right_mu":70,"left_numbers":[41,47,56,33,50],"right_numbers":[63,68,56,71,82],"points_earned":340,"phase":"task","trial_type":"horizons-task","trial_index":69,"time_elapsed":1045315,"internal_node_id":"0.0-65.0","task_version":"0.2"},{"response_times":[604.894999996759,443.6149999964982,510.8699999982491,501.20500003686175,1340.1849999791011],"keys_pressed":["leftarrow","leftarrow","rightarrow","leftarrow","rightarrow"],"horizon":5,"forced_choices":["leftarrow","leftarrow","rightarrow","leftarrow"],"right_color":"lightblue","left_color":"orange","left_mu":60,"right_mu":80,"left_numbers":[55,70,61,56,66],"right_numbers":[69,92,67,94,76],"points_earned":324,"phase":"task","trial_type":"horizons-task","trial_index":70,"time_elapsed":1050221,"internal_node_id":"0.0-66.0","task_version":"0.2"},{"response_times":[513.9949999866076,610.2050000336021,596.72499995213,633.0550000420772,2396.58000000054],"keys_pressed":["rightarrow","rightarrow","leftarrow","leftarrow","rightarrow"],"horizon":5,"forced_choices":["rightarrow","rightarrow","leftarrow","leftarrow"],"right_color":"orange","left_color":"lightblue","left_mu":40,"right_mu":28,"left_numbers":[31,41,41,32,56],"right_numbers":[44,32,26,22,28],"points_earned":177,"phase":"task","trial_type":"horizons-task","trial_index":71,"time_elapsed":1056476,"internal_node_id":"0.0-67.0","task_version":"0.2"},{"response_times":[573.2350000180304,455.6400000001304,469.24999996554106,495.3899999964051,1341.4999999804422],"keys_pressed":["rightarrow","leftarrow","rightarrow","rightarrow","leftarrow"],"horizon":5,"forced_choices":["rightarrow","leftarrow","rightarrow","rightarrow"],"right_color":"lightblue","left_color":"orange","left_mu":60,"right_mu":30,"left_numbers":[67,52,62,65,69],"right_numbers":[18,22,21,42,27],"points_earned":202,"phase":"task","trial_type":"horizons-task","trial_index":72,"time_elapsed":1061313,"internal_node_id":"0.0-68.0","task_version":"0.2"},{"response_times":[640.0900000007823,474.36500003095716,475.64499999862164,474.99499999685213,2866.9499999959953,715.299999981653,690.4000000213273,1198.7850000150502,467.65000000596046,465.1949999970384],"keys_pressed":["rightarrow","rightarrow","rightarrow","leftarrow","leftarrow","leftarrow","leftarrow","leftarrow","leftarrow","leftarrow"],"horizon":10,"forced_choices":["rightarrow","rightarrow","rightarrow","leftarrow"],"right_color":"orange","left_color":"lightblue","left_mu":40,"right_mu":32,"left_numbers":[32,25,25,37,42,51,44,44,42,28],"right_numbers":[30,41,31,18,34,40,17,38,32,35],"points_earned":390,"phase":"task","trial_type":"horizons-task","trial_index":73,"time_elapsed":1071287,"internal_node_id":"0.0-69.0","task_version":"0.2"},{"response_times":[837.5399999786168,510.24000003235415,521.6750000254251,459.9850000231527,1180.724999983795],"keys_pressed":["rightarrow","leftarrow","leftarrow","rightarrow","leftarrow"],"horizon":5,"forced_choices":["rightarrow","leftarrow","leftarrow","rightarrow"],"right_color":"lightblue","left_color":"orange","left_mu":40,"right_mu":10,"left_numbers":[34,46,40,43,55],"right_numbers":[17,9,12,13,7],"points_earned":171,"phase":"task","trial_type":"horizons-task","trial_index":74,"time_elapsed":1076302,"internal_node_id":"0.0-70.0","task_version":"0.2"},{"response_times":[502.8950000414625,509.020000055898,422.38000000361353,458.3299999940209,448.74500000150874,3232.365000003483,1298.6350000137463,1317.6949999760836,507.2900000377558,636.7949999985285],"keys_pressed":["rightarrow","rightarrow","rightarrow","leftarrow","rightarrow","rightarrow","rightarrow","leftarrow","rightarrow","rightarrow"],"horizon":10,"forced_choices":["rightarrow","rightarrow","rightarrow","leftarrow"],"right_color":"lightblue","left_color":"orange","left_mu":40,"right_mu":52,"left_numbers":[53,44,38,41,45,43,39,42,42,38],"right_numbers":[42,66,58,43,53,43,54,54,56,43],"points_earned":498,"phase":"task","trial_type":"horizons-task","trial_index":75,"time_elapsed":1087142,"internal_node_id":"0.0-71.0","task_version":"0.2"},{"response_times":[695.9649999625981,460.6299999868497,565.9200000227429,872.8550000232644,479.5350000495091],"keys_pressed":["rightarrow","leftarrow","leftarrow","leftarrow","rightarrow"],"horizon":5,"forced_choices":["rightarrow","leftarrow","leftarrow","leftarrow"],"right_color":"lightblue","left_color":"orange","left_mu":60,"right_mu":90,"left_numbers":[53,67,66,63,69],"right_numbers":[103,82,100,86,91],"points_earned":390,"phase":"task","trial_type":"horizons-task","trial_index":76,"time_elapsed":1091721,"internal_node_id":"0.0-72.0","task_version":"0.2"},{"response_times":[541.8599999975413,508.2449999754317,445.17500000074506,508.52999999187887,1719.0950000076555],"keys_pressed":["rightarrow","rightarrow","leftarrow","rightarrow","leftarrow"],"horizon":5,"forced_choices":["rightarrow","rightarrow","leftarrow","rightarrow"],"right_color":"orange","left_color":"lightblue","left_mu":40,"right_mu":28,"left_numbers":[34,45,27,14,27],"right_numbers":[27,29,26,24,21],"points_earned":134,"phase":"task","trial_type":"horizons-task","trial_index":77,"time_elapsed":1096947,"internal_node_id":"0.0-73.0","task_version":"0.2"},{"response_times":[476.12999996636063,448.87500000186265,451.24999998370185,549.9249999993481,1457.3550000204705,1177.1799999987707,1158.6000000243075,1598.2699999585748,648.2200000318699,557.5950000202283],"keys_pressed":["leftarrow","leftarrow","rightarrow","rightarrow","rightarrow","rightarrow","rightarrow","leftarrow","rightarrow","rightarrow"],"horizon":10,"forced_choices":["leftarrow","leftarrow","rightarrow","rightarrow"],"right_color":"orange","left_color":"lightblue","left_mu":40,"right_mu":70,"left_numbers":[32,39,30,43,34,40,41,44,48,37],"right_numbers":[78,80,69,62,71,75,59,53,87,63],"points_earned":601,"phase":"task","trial_type":"horizons-task","trial_index":78,"time_elapsed":1106973,"internal_node_id":"0.0-74.0","task_version":"0.2"},{"response_times":[556.6150000086054,435.8350000111386,576.5150000224821,1072.8249999810942,1339.0099999960512,907.0599999977276,610.2700000046752,954.6500000287779,627.4949999642558,843.4099999722093],"keys_pressed":["leftarrow","rightarrow","rightarrow","rightarrow","leftarrow","leftarrow","leftarrow","leftarrow","leftarrow","leftarrow"],"horizon":10,"forced_choices":["leftarrow","rightarrow","rightarrow","rightarrow"],"right_color":"orange","left_color":"lightblue","left_mu":40,"right_mu":20,"left_numbers":[44,31,40,42,43,49,38,43,35,30],"right_numbers":[17,28,20,18,12,16,21,20,30,18],"points_earned":348,"phase":"task","trial_type":"horizons-task","trial_index":79,"time_elapsed":1116402,"internal_node_id":"0.0-75.0","task_version":"0.2"},{"response_times":[736.9799999869429,461.1699999659322,443.3100000023842,573.4899999806657,1244.5149999693967,1245.0949999620207,736.7000000085682,531.7250000080094,830.9400000143796,894.7750000515953],"keys_pressed":["leftarrow","rightarrow","leftarrow","leftarrow","leftarrow","rightarrow","leftarrow","leftarrow","leftarrow","leftarrow"],"horizon":10,"forced_choices":["leftarrow","rightarrow","leftarrow","leftarrow"],"right_color":"lightblue","left_color":"orange","left_mu":40,"right_mu":36,"left_numbers":[43,45,45,45,35,38,44,36,40,42],"right_numbers":[43,38,35,41,27,28,25,43,27,27],"points_earned":396,"phase":"task","trial_type":"horizons-task","trial_index":80,"time_elapsed":1125603,"internal_node_id":"0.0-76.0","task_version":"0.2"},{"response_times":[602.0450000069104,429.88999997032806,500.4600000102073,769.7850000113249,556.4499999745749],"keys_pressed":["leftarrow","rightarrow","rightarrow","leftarrow","rightarrow"],"horizon":5,"forced_choices":["leftarrow","rightarrow","rightarrow","leftarrow"],"right_color":"orange","left_color":"lightblue","left_mu":60,"right_mu":64,"left_numbers":[55,59,53,62,68],"right_numbers":[67,73,70,74,47],"points_earned":307,"phase":"task","trial_type":"horizons-task","trial_index":81,"time_elapsed":1129967,"internal_node_id":"0.0-77.0","task_version":"0.2"},{"response_times":[516.7550000478514,474.64500000933185,418.3000000193715,438.21499997284263,1405.2349999547005],"keys_pressed":["rightarrow","rightarrow","leftarrow","rightarrow","rightarrow"],"horizon":5,"forced_choices":["rightarrow","rightarrow","leftarrow","rightarrow"],"right_color":"orange","left_color":"lightblue","left_mu":60,"right_mu":64,"left_numbers":[60,59,48,75,60],"right_numbers":[64,73,52,63,88],"points_earned":336,"phase":"task","trial_type":"horizons-task","trial_index":82,"time_elapsed":1134726,"internal_node_id":"0.0-78.0","task_version":"0.2"},{"response_times":[651.8100000103004,413.7800000025891,420.52500002318993,542.2099999850616,1166.4449999807402],"keys_pressed":["leftarrow","rightarrow","leftarrow","leftarrow","leftarrow"],"horizon":5,"forced_choices":["leftarrow","rightarrow","leftarrow","leftarrow"],"right_color":"lightblue","left_color":"orange","left_mu":40,"right_mu":36,"left_numbers":[44,26,47,45,35],"right_numbers":[33,31,39,37,34],"points_earned":202,"phase":"task","trial_type":"horizons-task","trial_index":83,"time_elapsed":1139424,"internal_node_id":"0.0-79.0","task_version":"0.2"},{"response_times":[545.6100000301376,418.8950000097975,425.2850000048056,437.08000000333413,1528.340000018943,990.8300000242889,1306.6450000042096,1055.4600000032224,1062.5100000179373,434.30500000249594],"keys_pressed":["rightarrow","leftarrow","rightarrow","leftarrow","leftarrow","leftarrow","leftarrow","leftarrow","leftarrow","leftarrow"],"horizon":10,"forced_choices":["rightarrow","leftarrow","rightarrow","leftarrow"],"right_color":"orange","left_color":"lightblue","left_mu":60,"right_mu":56,"left_numbers":[69,58,67,64,68,54,60,81,55,56],"right_numbers":[51,56,53,52,63,57,49,52,46,51],"points_earned":600,"phase":"task","trial_type":"horizons-task","trial_index":84,"time_elapsed":1149133,"internal_node_id":"0.0-80.0","task_version":"0.2"},{"response_times":[496.88999995123595,444.0399999730289,550.5200000479817,592.7699999883771,849.6949999826029],"keys_pressed":["leftarrow","rightarrow","rightarrow","rightarrow","leftarrow"],"horizon":5,"forced_choices":["leftarrow","rightarrow","rightarrow","rightarrow"],"right_color":"orange","left_color":"lightblue","left_mu":40,"right_mu":20,"left_numbers":[36,49,33,32,43],"right_numbers":[17,25,10,14,13],"points_earned":128,"phase":"task","trial_type":"horizons-task","trial_index":85,"time_elapsed":1153570,"internal_node_id":"0.0-81.0","task_version":"0.2"},{"response_times":[511.4550000289455,467.05500001553446,451.2199999880977,523.6649999860674,455.65499999793246,1143.2500000228174,1165.134999959264,838.4049999876879,471.2300000246614,412.8250000067055],"keys_pressed":["rightarrow","rightarrow","leftarrow","leftarrow","rightarrow","rightarrow","rightarrow","rightarrow","rightarrow","rightarrow"],"horizon":10,"forced_choices":["rightarrow","rightarrow","leftarrow","leftarrow"],"right_color":"lightblue","left_color":"orange","left_mu":40,"right_mu":60,"left_numbers":[37,49,37,38,38,27,44,35,41,34],"right_numbers":[61,59,64,60,75,58,66,59,71,52],"points_earned":576,"phase":"task","trial_type":"horizons-task","trial_index":86,"time_elapsed":1161514,"internal_node_id":"0.0-82.0","task_version":"0.2"},{"response_times":[601.0400000377558,445.69000002229586,417.5850000465289,511.85999996960163,748.3950000023469],"keys_pressed":["rightarrow","rightarrow","leftarrow","leftarrow","leftarrow"],"horizon":5,"forced_choices":["rightarrow","rightarrow","leftarrow","leftarrow"],"right_color":"orange","left_color":"lightblue","left_mu":60,"right_mu":40,"left_numbers":[45,61,58,45,63],"right_numbers":[28,35,39,31,36],"points_earned":229,"phase":"task","trial_type":"horizons-task","trial_index":87,"time_elapsed":1165745,"internal_node_id":"0.0-83.0","task_version":"0.2"},{"response_times":[484.119999979157,432.25499999243766,555.9000000357628,700.455000041984,1519.5700000040233],"keys_pressed":["rightarrow","leftarrow","rightarrow","leftarrow","rightarrow"],"horizon":5,"forced_choices":["rightarrow","leftarrow","rightarrow","leftarrow"],"right_color":"lightblue","left_color":"orange","left_mu":60,"right_mu":90,"left_numbers":[68,50,57,74,63],"right_numbers":[81,99,93,95,78],"points_earned":376,"phase":"task","trial_type":"horizons-task","trial_index":88,"time_elapsed":1170942,"internal_node_id":"0.0-84.0","task_version":"0.2"},{"response_times":[721.5199999627657,425.21499999566004,526.9950000219978,457.7399999834597,1458.954999980051,905.3499999572523,715.4749999754131,1226.2599999667145,443.8300000037998,562.450000026729],"keys_pressed":["rightarrow","leftarrow","rightarrow","leftarrow","rightarrow","rightarrow","rightarrow","rightarrow","rightarrow","rightarrow"],"horizon":10,"forced_choices":["rightarrow","leftarrow","rightarrow","leftarrow"],"right_color":"lightblue","left_color":"orange","left_mu":60,"right_mu":90,"left_numbers":[65,51,50,68,57,65,52,70,46,65],"right_numbers":[94,96,84,98,93,102,85,86,78,85],"points_earned":826,"phase":"task","trial_type":"horizons-task","trial_index":89,"time_elapsed":1179891,"internal_node_id":"0.0-85.0","task_version":"0.2"},{"response_times":[632.8349999967031,475.4749999847263,406.9749999907799,414.8750000167638,1932.9000000143424,589.5050000399351,836.2550000310875,931.2999999965541,690.2700000209734,468.2899999897927],"keys_pressed":["leftarrow","leftarrow","rightarrow","leftarrow","rightarrow","leftarrow","leftarrow","rightarrow","leftarrow","leftarrow"],"horizon":10,"forced_choices":["leftarrow","leftarrow","rightarrow","leftarrow"],"right_color":"lightblue","left_color":"orange","left_mu":60,"right_mu":52,"left_numbers":[67,60,64,63,53,56,66,70,49,60],"right_numbers":[51,53,61,54,60,44,56,49,65,65],"points_earned":591,"phase":"task","trial_type":"horizons-task","trial_index":90,"time_elapsed":1188774,"internal_node_id":"0.0-86.0","task_version":"0.2"},{"response_times":[677.3599999723956,467.9400000022724,449.19499999377877,483.3900000085123,1595.3600000357255,644.3500000168569,1473.1999999494292,635.6750000268221,888.7999999569729,603.6549999844283],"keys_pressed":["rightarrow","rightarrow","leftarrow","rightarrow","leftarrow","leftarrow","leftarrow","leftarrow","rightarrow","leftarrow"],"horizon":10,"forced_choices":["rightarrow","rightarrow","leftarrow","rightarrow"],"right_color":"orange","left_color":"lightblue","left_mu":40,"right_mu":28,"left_numbers":[37,44,45,54,45,23,57,32,52,26],"right_numbers":[28,25,23,27,24,20,29,21,23,37],"points_earned":331,"phase":"task","trial_type":"horizons-task","trial_index":91,"time_elapsed":1198203,"internal_node_id":"0.0-87.0","task_version":"0.2"},{"rt":26328.269999998156,"responses":{"age":"19","gender-categorical":"Male","gender-free-response":"","ethnicity":"Not Hispanic or Latino","race":["Asian"],"language":"No","fluency":"Very well"},"survey":"demographics","trial_type":"survey-demo","trial_index":92,"time_elapsed":1224534,"internal_node_id":"0.0-88.0","task_version":"0.2"},{"rt":43412.375000014435,"responses":{"difficulty":"4","fun":"4","clarity":"5","strategy":"Nope","feedback":"No comment, interesting study!"},"survey":"debrief","trial_type":"survey-debrief","trial_index":93,"time_elapsed":1267955,"internal_node_id":"0.0-89.0","task_version":"0.2","interactions":"[]"}]