[{"view_history":"[{\"page_index\":0,\"viewing_time\":1502.0000000000005}]","rt":1502.0000000000005,"trial_type":"instructions","trial_index":0,"time_elapsed":1520,"internal_node_id":"0.0-0.0","task_version":"0.2"},{"item_order":[2,9,7,3,10,5,0,6,8,12,11,1,4],"responses":{"Q03":"0","Q10":"0","Q08":"4","Q04":"3","Q11":"4","Q06":"0","Q01":"0","Q07":"0","Q09":"0","Q13":"4","Q12":"0","Q02":"3","Q05":"1"},"radio_events":[2463,3528,5340,13481.000000000002,17563.000000000004,18008.000000000004,20818,21645,23248,26308,27947.000000000004,29719,34136],"key_events":[],"mouse_events":[1.0000000000004547,2463,3528,5340,7804,11527,13017,13481.000000000002,14289,16136,16728,17125,17563.000000000004,18008.000000000004,19270,20276,20818,21645,23248,25257,26308,27947.000000000004,29719,31008,34136,35309.00000000001],"rt":35324,"survey":"ius12","trial_type":"survey-template","trial_index":1,"time_elapsed":36852,"internal_node_id":"0.0-1.0","task_version":"0.2"},{"item_order":[11,10,9,6,3,0,8,13,14,5,12,7,4,15,1,2],"responses":{"Q12":"4","Q11":"2","Q10":"3","Q07":"3","Q04":"3","Q01":"4","Q09":"4","Q14":"4","Q15":"3","Q06":"4","Q13":"5","Q08":"5","Q05":"4","Q16":"5","Q02":"4","Q03":"4"},"radio_events":[3920,6034,9299,10003,10985,13024,13560,14167,21224.000000000007,21848,22665,25380,28004.999999999993,30061,32192.000000000015,33750],"key_events":[],"mouse_events":[3920,6034,7508,9299,10003,10985,13024,13560,14167,19014,20082,20641,21224.000000000007,21848,22665,23638,25380,26604,27576.000000000007,28004.999999999993,30061,32192.000000000015,33750,35012],"rt":35021,"survey":"nfc","trial_type":"survey-template","trial_index":2,"time_elapsed":71877,"internal_node_id":"0.0-2.0","task_version":"0.2"},{"item_order":[13,6,7,16,5,2,10,15,12,4,11,3,0,1,8,9,14],"responses":{"Q14":"3","Q07":"3","Q08":"3","Q17":"0","Q06":"2","Q03":"3","Q11":"3","Q16":"3","Q13":"4","Q05":"3","Q12":"4","Q04":"4","Q01":"3","Q02":"2","Q09":"2","Q10":"4","Q15":"2"},"radio_events":[4029,5577,9149,11595,13278,14768,16479,18431,20634,23655,24934,25956.000000000015,28262,29544,31098,33221,35282],"key_events":[],"mouse_events":[2513,4029,4629,5577,7609,9149,11595,13278,14768,16479,18431,20634,23655,24934,25956.000000000015,28262,29544,31098,33221,35282,36617],"rt":36625,"survey":"pswq","trial_type":"survey-template","trial_index":3,"time_elapsed":108506,"internal_node_id":"0.0-3.0","task_version":"0.2"},{"view_history":"[{\"page_index\":0,\"viewing_time\":1995},{\"page_index\":1,\"viewing_time\":2671.0000000000146},{\"page_index\":2,\"viewing_time\":3336.9999999999854},{\"page_index\":3,\"viewing_time\":1656},{\"page_index\":4,\"viewing_time\":1401},{\"page_index\":5,\"viewing_time\":1692},{\"page_index\":6,\"viewing_time\":3479},{\"page_index\":7,\"viewing_time\":4932},{\"page_index\":8,\"viewing_time\":122287},{\"page_index\":9,\"viewing_time\":10331}]","rt":153782,"trial_type":"instructions","trial_index":4,"time_elapsed":262292,"internal_node_id":"0.0-4.0-0.0","task_version":"0.2"},{"response_times":[1532,600,419,820,922],"keys_pressed":["rightarrow","leftarrow","rightarrow","rightarrow","rightarrow"],"horizon":5,"forced_choices":["rightarrow","leftarrow","rightarrow","rightarrow"],"right_color":"lightblue","left_color":"orange","left_mu":40,"right_mu":20,"left_numbers":[47,46,53,40,51],"right_numbers":[21,17,14,22,14],"points_earned":117,"phase":"practice","trial_type":"horizons-task","trial_index":5,"time_elapsed":268102,"internal_node_id":"0.0-4.0-1.0","task_version":"0.2"},{"response_times":[1435,605.0000000000582,494.9999999999418,590,902,649,632.9999999999418,532,519,435],"keys_pressed":["leftarrow","leftarrow","rightarrow","rightarrow","leftarrow","leftarrow","leftarrow","rightarrow","rightarrow","rightarrow"],"horizon":10,"forced_choices":["leftarrow","leftarrow","rightarrow","rightarrow"],"right_color":"orange","left_color":"lightblue","left_mu":60,"right_mu":70,"left_numbers":[62,60,65,50,59,54,76,68,53,52],"right_numbers":[76,65,59,80,79,67,72,61,79,65],"points_earned":655,"phase":"practice","trial_type":"horizons-task","trial_index":6,"time_elapsed":276402,"internal_node_id":"0.0-4.0-2.0","task_version":"0.2"},{"view_history":"[{\"page_index\":0,\"viewing_time\":1063},{\"page_index\":1,\"viewing_time\":5125},{\"page_index\":2,\"viewing_time\":927},{\"page_index\":3,\"viewing_time\":823}]","rt":7938,"trial_type":"instructions","trial_index":7,"time_elapsed":284340,"internal_node_id":"0.0-4.0-3.0","task_version":"0.2"},{"responses":["true","false","true"],"num_errors":0,"rt":7380.999999999942,"trial_type":"horizons-comprehension","trial_index":8,"time_elapsed":291723,"internal_node_id":"0.0-4.0-4.0","task_version":"0.2"},{"trial_type":"call-function","trial_index":9,"time_elapsed":291726,"internal_node_id":"0.0-5.0","task_version":"0.2"},{"view_history":"[{\"page_index\":0,\"viewing_time\":1308},{\"page_index\":1,\"viewing_time\":5840}]","rt":7148,"trial_type":"instructions","trial_index":10,"time_elapsed":298875,"internal_node_id":"0.0-6.0","task_version":"0.2"},{"response_times":[1296,444,475,691,1731],"keys_pressed":["leftarrow","rightarrow","leftarrow","rightarrow","rightarrow"],"horizon":5,"forced_choices":["leftarrow","rightarrow","leftarrow","rightarrow"],"right_color":"orange","left_color":"lightblue","left_mu":60,"right_mu":68,"left_numbers":[65,62,57,59,73],"right_numbers":[71,65,59,81,66],"points_earned":334,"phase":"task","trial_type":"horizons-task","trial_index":11,"time_elapsed":305020,"internal_node_id":"0.0-7.0","task_version":"0.2"},{"response_times":[764,452,683,553,1969],"keys_pressed":["leftarrow","rightarrow","rightarrow","rightarrow","rightarrow"],"horizon":5,"forced_choices":["leftarrow","rightarrow","rightarrow","rightarrow"],"right_color":"orange","left_color":"lightblue","left_mu":40,"right_mu":36,"left_numbers":[38,37,38,54,40],"right_numbers":[33,30,49,45,33],"points_earned":195,"phase":"task","trial_type":"horizons-task","trial_index":12,"time_elapsed":310943,"internal_node_id":"0.0-8.0","task_version":"0.2"},{"response_times":[810,595,724,761,820],"keys_pressed":["leftarrow","leftarrow","rightarrow","leftarrow","leftarrow"],"horizon":5,"forced_choices":["leftarrow","leftarrow","rightarrow","leftarrow"],"right_color":"orange","left_color":"lightblue","left_mu":60,"right_mu":56,"left_numbers":[67,47,56,64,69],"right_numbers":[76,42,46,65,55],"points_earned":293,"phase":"task","trial_type":"horizons-task","trial_index":13,"time_elapsed":316158,"internal_node_id":"0.0-9.0","task_version":"0.2"},{"response_times":[6050,1050,1209,1122.0000000000582,877.9999999999418],"keys_pressed":["rightarrow","leftarrow","rightarrow","rightarrow","leftarrow"],"horizon":5,"forced_choices":["rightarrow","leftarrow","rightarrow","rightarrow"],"right_color":"lightblue","left_color":"orange","left_mu":40,"right_mu":20,"left_numbers":[45,38,36,25,40],"right_numbers":[30,4,5,24,19],"points_earned":137,"phase":"task","trial_type":"horizons-task","trial_index":14,"time_elapsed":327972,"internal_node_id":"0.0-10.0","task_version":"0.2"},{"response_times":[511,637,974,462,804,972,978,674,986,817],"keys_pressed":["rightarrow","rightarrow","leftarrow","leftarrow","rightarrow","rightarrow","leftarrow","leftarrow","leftarrow","leftarrow"],"horizon":10,"forced_choices":["rightarrow","rightarrow","leftarrow","leftarrow"],"right_color":"orange","left_color":"lightblue","left_mu":40,"right_mu":44,"left_numbers":[27,36,38,73,47,50,35,43,36,53],"right_numbers":[33,31,47,40,48,37,48,49,47,48],"points_earned":427,"phase":"task","trial_type":"horizons-task","trial_index":15,"time_elapsed":337290,"internal_node_id":"0.0-11.0","task_version":"0.2"},{"response_times":[6293,524,745,548,537],"keys_pressed":["leftarrow","rightarrow","leftarrow","rightarrow","rightarrow"],"horizon":5,"forced_choices":["leftarrow","rightarrow","leftarrow","rightarrow"],"right_color":"orange","left_color":"lightblue","left_mu":60,"right_mu":90,"left_numbers":[57,36,55,62,51],"right_numbers":[89,92,92,87,86],"points_earned":377,"phase":"task","trial_type":"horizons-task","trial_index":16,"time_elapsed":347441,"internal_node_id":"0.0-12.0","task_version":"0.2"},{"response_times":[3465.000000000058,1050.9999999999418,506,572,527],"keys_pressed":["rightarrow","leftarrow","rightarrow","leftarrow","leftarrow"],"horizon":5,"forced_choices":["rightarrow","leftarrow","rightarrow","leftarrow"],"right_color":"orange","left_color":"lightblue","left_mu":60,"right_mu":40,"left_numbers":[67,62,56,58,55],"right_numbers":[31,29,35,38,32],"points_earned":241,"phase":"task","trial_type":"horizons-task","trial_index":17,"time_elapsed":355065,"internal_node_id":"0.0-13.0","task_version":"0.2"},{"response_times":[644,556.0000000000582,493,537.9999999999418,685],"keys_pressed":["leftarrow","leftarrow","rightarrow","leftarrow","leftarrow"],"horizon":5,"forced_choices":["leftarrow","leftarrow","rightarrow","leftarrow"],"right_color":"lightblue","left_color":"orange","left_mu":40,"right_mu":10,"left_numbers":[52,38,43,38,39],"right_numbers":[7,11,5,4,0],"points_earned":172,"phase":"task","trial_type":"horizons-task","trial_index":18,"time_elapsed":359484,"internal_node_id":"0.0-14.0","task_version":"0.2"},{"response_times":[5806,933,543,669,492],"keys_pressed":["rightarrow","leftarrow","leftarrow","rightarrow","rightarrow"],"horizon":5,"forced_choices":["rightarrow","leftarrow","leftarrow","rightarrow"],"right_color":"lightblue","left_color":"orange","left_mu":40,"right_mu":60,"left_numbers":[35,28,39,40,35],"right_numbers":[59,64,64,49,64],"points_earned":239,"phase":"task","trial_type":"horizons-task","trial_index":19,"time_elapsed":369430,"internal_node_id":"0.0-15.0","task_version":"0.2"},{"response_times":[3211.999999999942,748,597,538,602.0000000000582],"keys_pressed":["rightarrow","leftarrow","leftarrow","leftarrow","leftarrow"],"horizon":5,"forced_choices":["rightarrow","leftarrow","leftarrow","leftarrow"],"right_color":"lightblue","left_color":"orange","left_mu":60,"right_mu":48,"left_numbers":[56,53,62,68,59],"right_numbers":[56,56,40,52,57],"points_earned":298,"phase":"task","trial_type":"horizons-task","trial_index":20,"time_elapsed":376631,"internal_node_id":"0.0-16.0","task_version":"0.2"},{"response_times":[9426,478,527.0000000000582,678,515.9999999999418],"keys_pressed":["rightarrow","leftarrow","rightarrow","leftarrow","rightarrow"],"horizon":5,"forced_choices":["rightarrow","leftarrow","rightarrow","leftarrow"],"right_color":"lightblue","left_color":"orange","left_mu":60,"right_mu":72,"left_numbers":[51,48,68,57,65],"right_numbers":[79,62,84,71,80],"points_earned":348,"phase":"task","trial_type":"horizons-task","trial_index":21,"time_elapsed":389760,"internal_node_id":"0.0-17.0","task_version":"0.2"},{"response_times":[1260.0000000000582,1024.9999999999418,582,585,667,809.0000000000582,1098.9999999999418,782,692,575],"keys_pressed":["rightarrow","leftarrow","leftarrow","rightarrow","rightarrow","rightarrow","leftarrow","rightarrow","rightarrow","rightarrow"],"horizon":10,"forced_choices":["rightarrow","leftarrow","leftarrow","rightarrow"],"right_color":"lightblue","left_color":"orange","left_mu":40,"right_mu":60,"left_numbers":[27,31,51,40,47,35,33,30,32,51],"right_numbers":[43,51,44,59,52,56,58,39,54,50],"points_earned":468,"phase":"task","trial_type":"horizons-task","trial_index":22,"time_elapsed":399339,"internal_node_id":"0.0-18.0","task_version":"0.2"},{"response_times":[1766,1893,552,520,1132,611,643,653,809,726],"keys_pressed":["leftarrow","leftarrow","leftarrow","rightarrow","rightarrow","rightarrow","rightarrow","rightarrow","rightarrow","rightarrow"],"horizon":10,"forced_choices":["leftarrow","leftarrow","leftarrow","rightarrow"],"right_color":"orange","left_color":"lightblue","left_mu":60,"right_mu":68,"left_numbers":[79,60,46,71,65,67,70,54,55,70],"right_numbers":[68,66,71,65,76,70,67,68,78,58],"points_earned":667,"phase":"task","trial_type":"horizons-task","trial_index":23,"time_elapsed":410149,"internal_node_id":"0.0-19.0","task_version":"0.2"},{"response_times":[2672,499,493,564.0000000000582,617.9999999999418,519,466,423,400,503],"keys_pressed":["leftarrow","leftarrow","rightarrow","rightarrow","leftarrow","leftarrow","leftarrow","leftarrow","leftarrow","leftarrow"],"horizon":10,"forced_choices":["leftarrow","leftarrow","rightarrow","rightarrow"],"right_color":"lightblue","left_color":"orange","left_mu":40,"right_mu":10,"left_numbers":[46,29,40,54,42,30,46,39,34,34],"right_numbers":[0,21,7,11,18,16,9,0,19,15],"points_earned":318,"phase":"task","trial_type":"horizons-task","trial_index":24,"time_elapsed":418812,"internal_node_id":"0.0-20.0","task_version":"0.2"},{"response_times":[6954.000000000058,508.9999999999418,666,538,725,435,409,550,562,455],"keys_pressed":["rightarrow","rightarrow","leftarrow","rightarrow","rightarrow","rightarrow","rightarrow","rightarrow","rightarrow","rightarrow"],"horizon":10,"forced_choices":["rightarrow","rightarrow","leftarrow","rightarrow"],"right_color":"orange","left_color":"lightblue","left_mu":60,"right_mu":80,"left_numbers":[61,59,51,55,57,60,63,53,68,66],"right_numbers":[66,69,66,96,88,85,103,78,73,70],"points_earned":779,"phase":"task","trial_type":"horizons-task","trial_index":25,"time_elapsed":432117,"internal_node_id":"0.0-21.0","task_version":"0.2"},{"response_times":[1215.9999999999418,453,530,506,690,770,560,927,453,768],"keys_pressed":["leftarrow","rightarrow","rightarrow","leftarrow","rightarrow","rightarrow","leftarrow","leftarrow","leftarrow","leftarrow"],"horizon":10,"forced_choices":["leftarrow","rightarrow","rightarrow","leftarrow"],"right_color":"lightblue","left_color":"orange","left_mu":60,"right_mu":48,"left_numbers":[55,51,61,63,58,62,57,73,66,61],"right_numbers":[53,52,57,43,70,49,48,46,52,66],"points_earned":603,"phase":"task","trial_type":"horizons-task","trial_index":26,"time_elapsed":440492,"internal_node_id":"0.0-22.0","task_version":"0.2"},{"response_times":[6288.999999999942,499,1350,526,776.0000000000582,638.9999999999418,445.0000000000582,441.9999999999418,412,482],"keys_pressed":["rightarrow","rightarrow","leftarrow","rightarrow","leftarrow","rightarrow","rightarrow","rightarrow","rightarrow","rightarrow"],"horizon":10,"forced_choices":["rightarrow","rightarrow","leftarrow","rightarrow"],"right_color":"orange","left_color":"lightblue","left_mu":40,"right_mu":70,"left_numbers":[50,34,57,53,46,36,40,40,34,33],"right_numbers":[84,65,63,60,66,75,73,80,72,62],"points_earned":674,"phase":"task","trial_type":"horizons-task","trial_index":27,"time_elapsed":453856,"internal_node_id":"0.0-23.0","task_version":"0.2"},{"response_times":[596,571,605,1016,623,933,521,544,516,569.0000000000582],"keys_pressed":["rightarrow","leftarrow","rightarrow","leftarrow","leftarrow","rightarrow","rightarrow","rightarrow","rightarrow","rightarrow"],"horizon":10,"forced_choices":["rightarrow","leftarrow","rightarrow","leftarrow"],"right_color":"orange","left_color":"lightblue","left_mu":40,"right_mu":70,"left_numbers":[42,37,39,32,34,53,25,40,50,46],"right_numbers":[65,75,73,68,59,68,63,65,67,69],"points_earned":573,"phase":"task","trial_type":"horizons-task","trial_index":28,"time_elapsed":461853,"internal_node_id":"0.0-24.0","task_version":"0.2"},{"response_times":[9387,597,479,690,577],"keys_pressed":["leftarrow","leftarrow","rightarrow","rightarrow","leftarrow"],"horizon":5,"forced_choices":["leftarrow","leftarrow","rightarrow","rightarrow"],"right_color":"orange","left_color":"lightblue","left_mu":40,"right_mu":28,"left_numbers":[32,36,38,66,39],"right_numbers":[32,32,28,27,29],"points_earned":162,"phase":"task","trial_type":"horizons-task","trial_index":29,"time_elapsed":475085,"internal_node_id":"0.0-25.0","task_version":"0.2"},{"response_times":[512,492,503,486,461],"keys_pressed":["leftarrow","rightarrow","leftarrow","leftarrow","leftarrow"],"horizon":5,"forced_choices":["leftarrow","rightarrow","leftarrow","leftarrow"],"right_color":"lightblue","left_color":"orange","left_mu":40,"right_mu":32,"left_numbers":[46,40,44,33,31],"right_numbers":[47,32,36,40,37],"points_earned":186,"phase":"task","trial_type":"horizons-task","trial_index":30,"time_elapsed":479043,"internal_node_id":"0.0-26.0","task_version":"0.2"},{"response_times":[712,617,568,540.0000000000582,1286,586.9999999999418,813,514,443,640],"keys_pressed":["rightarrow","leftarrow","rightarrow","leftarrow","rightarrow","rightarrow","rightarrow","rightarrow","rightarrow","rightarrow"],"horizon":10,"forced_choices":["rightarrow","leftarrow","rightarrow","leftarrow"],"right_color":"lightblue","left_color":"orange","left_mu":60,"right_mu":72,"left_numbers":[66,61,65,55,63,67,72,28,48,47],"right_numbers":[60,68,87,86,73,74,74,70,75,60],"points_earned":689,"phase":"task","trial_type":"horizons-task","trial_index":31,"time_elapsed":487266,"internal_node_id":"0.0-27.0","task_version":"0.2"},{"response_times":[2735.000000000058,1209,393.9999999999418,614,614,458,473.0000000000582,399,532.9999999999418,384],"keys_pressed":["rightarrow","leftarrow","rightarrow","rightarrow","leftarrow","rightarrow","rightarrow","rightarrow","rightarrow","rightarrow"],"horizon":10,"forced_choices":["rightarrow","leftarrow","rightarrow","rightarrow"],"right_color":"lightblue","left_color":"orange","left_mu":40,"right_mu":60,"left_numbers":[36,34,29,52,28,39,42,40,31,36],"right_numbers":[66,47,56,57,63,47,59,47,56,59],"points_earned":509,"phase":"task","trial_type":"horizons-task","trial_index":32,"time_elapsed":496586,"internal_node_id":"0.0-28.0","task_version":"0.2"},{"response_times":[9568,445,1298,501,703,537,525,502.0000000000582,442.9999999999418,1035],"keys_pressed":["leftarrow","leftarrow","rightarrow","rightarrow","rightarrow","rightarrow","rightarrow","rightarrow","rightarrow","leftarrow"],"horizon":10,"forced_choices":["leftarrow","leftarrow","rightarrow","rightarrow"],"right_color":"lightblue","left_color":"orange","left_mu":40,"right_mu":52,"left_numbers":[49,36,39,36,50,32,37,27,40,34],"right_numbers":[57,43,38,55,44,50,57,47,47,52],"points_earned":457,"phase":"task","trial_type":"horizons-task","trial_index":33,"time_elapsed":513647,"internal_node_id":"0.0-29.0","task_version":"0.2"},{"response_times":[888,529,709.9999999999418,625.9999999999418,528.0000000000582],"keys_pressed":["rightarrow","leftarrow","leftarrow","leftarrow","rightarrow"],"horizon":5,"forced_choices":["rightarrow","leftarrow","leftarrow","leftarrow"],"right_color":"orange","left_color":"lightblue","left_mu":40,"right_mu":44,"left_numbers":[27,33,35,26,28],"right_numbers":[43,43,39,52,57],"points_earned":194,"phase":"task","trial_type":"horizons-task","trial_index":34,"time_elapsed":518431,"internal_node_id":"0.0-30.0","task_version":"0.2"},{"response_times":[10414,432,935,800,510],"keys_pressed":["leftarrow","leftarrow","rightarrow","rightarrow","rightarrow"],"horizon":5,"forced_choices":["leftarrow","leftarrow","rightarrow","rightarrow"],"right_color":"lightblue","left_color":"orange","left_mu":40,"right_mu":52,"left_numbers":[47,36,52,34,45],"right_numbers":[43,50,64,56,43],"points_earned":246,"phase":"task","trial_type":"horizons-task","trial_index":35,"time_elapsed":533025,"internal_node_id":"0.0-31.0","task_version":"0.2"},{"response_times":[45911,440,396,390,336,643,453,783,504,387],"keys_pressed":["leftarrow","rightarrow","leftarrow","rightarrow","leftarrow","leftarrow","leftarrow","rightarrow","rightarrow","rightarrow"],"horizon":10,"forced_choices":["leftarrow","rightarrow","leftarrow","rightarrow"],"right_color":"orange","left_color":"lightblue","left_mu":60,"right_mu":68,"left_numbers":[53,66,64,57,50,62,55,52,66,50],"right_numbers":[73,68,65,60,64,64,63,73,71,79],"points_earned":635,"phase":"task","trial_type":"horizons-task","trial_index":36,"time_elapsed":584772,"internal_node_id":"0.0-32.0","task_version":"0.2"},{"response_times":[545,475,405,344.0000000001164,307.9999999998836,547,535,847,416,419.0000000001164],"keys_pressed":["rightarrow","leftarrow","rightarrow","leftarrow","rightarrow","rightarrow","rightarrow","leftarrow","leftarrow","leftarrow"],"horizon":10,"forced_choices":["rightarrow","leftarrow","rightarrow","leftarrow"],"right_color":"orange","left_color":"lightblue","left_mu":60,"right_mu":40,"left_numbers":[51,64,56,46,51,63,54,68,56,54],"right_numbers":[60,42,36,39,34,42,39,45,33,34],"points_earned":499,"phase":"task","trial_type":"horizons-task","trial_index":37,"time_elapsed":591117,"internal_node_id":"0.0-33.0","task_version":"0.2"},{"response_times":[1448,1143,597,783,740],"keys_pressed":["leftarrow","leftarrow","rightarrow","leftarrow","leftarrow"],"horizon":5,"forced_choices":["leftarrow","leftarrow","rightarrow","leftarrow"],"right_color":"lightblue","left_color":"orange","left_mu":40,"right_mu":52,"left_numbers":[31,42,37,56,42],"right_numbers":[47,46,40,44,58],"points_earned":211,"phase":"task","trial_type":"horizons-task","trial_index":38,"time_elapsed":597330,"internal_node_id":"0.0-34.0","task_version":"0.2"},{"response_times":[1371,487,523,650,656],"keys_pressed":["rightarrow","leftarrow","leftarrow","rightarrow","rightarrow"],"horizon":5,"forced_choices":["rightarrow","leftarrow","leftarrow","rightarrow"],"right_color":"orange","left_color":"lightblue","left_mu":60,"right_mu":80,"left_numbers":[55,54,65,48,73],"right_numbers":[71,72,79,78,87],"points_earned":355,"phase":"task","trial_type":"horizons-task","trial_index":39,"time_elapsed":602520,"internal_node_id":"0.0-35.0","task_version":"0.2"},{"response_times":[621,568,665,736,557,602,516,517,551,596],"keys_pressed":["leftarrow","leftarrow","rightarrow","leftarrow","rightarrow","rightarrow","rightarrow","rightarrow","rightarrow","leftarrow"],"horizon":10,"forced_choices":["leftarrow","leftarrow","rightarrow","leftarrow"],"right_color":"lightblue","left_color":"orange","left_mu":40,"right_mu":52,"left_numbers":[47,45,28,40,42,45,51,34,42,40],"right_numbers":[56,58,49,51,56,45,45,54,52,35],"points_earned":473,"phase":"task","trial_type":"horizons-task","trial_index":40,"time_elapsed":609953,"internal_node_id":"0.0-36.0","task_version":"0.2"},{"response_times":[996.9999999998836,367,649,445,674,1340,495,432.0000000001164,557,506],"keys_pressed":["rightarrow","leftarrow","leftarrow","leftarrow","rightarrow","leftarrow","leftarrow","leftarrow","leftarrow","leftarrow"],"horizon":10,"forced_choices":["rightarrow","leftarrow","leftarrow","leftarrow"],"right_color":"lightblue","left_color":"orange","left_mu":60,"right_mu":48,"left_numbers":[70,70,60,57,59,60,45,70,64,58],"right_numbers":[45,44,54,39,47,54,60,53,40,48],"points_earned":576,"phase":"task","trial_type":"horizons-task","trial_index":41,"time_elapsed":617932,"internal_node_id":"0.0-37.0","task_version":"0.2"},{"response_times":[669,436,453,468.0000000001164,578.9999999998836,1291,386,368,380,437.9999999998836],"keys_pressed":["rightarrow","leftarrow","leftarrow","rightarrow","leftarrow","leftarrow","leftarrow","leftarrow","leftarrow","leftarrow"],"horizon":10,"forced_choices":["rightarrow","leftarrow","leftarrow","rightarrow"],"right_color":"lightblue","left_color":"orange","left_mu":60,"right_mu":30,"left_numbers":[48,52,61,44,70,45,63,69,69,73],"right_numbers":[36,31,40,22,37,11,39,26,36,35],"points_earned":560,"phase":"task","trial_type":"horizons-task","trial_index":42,"time_elapsed":624906,"internal_node_id":"0.0-38.0","task_version":"0.2"},{"response_times":[568,642,545,531.9999999998836,482],"keys_pressed":["leftarrow","rightarrow","leftarrow","rightarrow","leftarrow"],"horizon":5,"forced_choices":["leftarrow","rightarrow","leftarrow","rightarrow"],"right_color":"lightblue","left_color":"orange","left_mu":60,"right_mu":64,"left_numbers":[64,43,75,50,50],"right_numbers":[53,70,67,48,64],"points_earned":307,"phase":"task","trial_type":"horizons-task","trial_index":43,"time_elapsed":629179,"internal_node_id":"0.0-39.0","task_version":"0.2"},{"response_times":[557,541,379,536,440,351,354,397.0000000001164,426.9999999998836,406],"keys_pressed":["leftarrow","leftarrow","leftarrow","rightarrow","leftarrow","leftarrow","leftarrow","leftarrow","leftarrow","leftarrow"],"horizon":10,"forced_choices":["leftarrow","leftarrow","leftarrow","rightarrow"],"right_color":"lightblue","left_color":"orange","left_mu":60,"right_mu":30,"left_numbers":[47,69,54,52,49,46,49,65,54,44],"right_numbers":[25,35,35,29,38,30,35,24,31,31],"points_earned":506,"phase":"task","trial_type":"horizons-task","trial_index":44,"time_elapsed":635069,"internal_node_id":"0.0-40.0","task_version":"0.2"},{"response_times":[489,264,837,621,644,385,400,1630,513,653],"keys_pressed":["leftarrow","rightarrow","rightarrow","leftarrow","leftarrow","leftarrow","leftarrow","rightarrow","rightarrow","leftarrow"],"horizon":10,"forced_choices":["leftarrow","rightarrow","rightarrow","leftarrow"],"right_color":"lightblue","left_color":"orange","left_mu":40,"right_mu":20,"left_numbers":[23,40,34,32,48,36,28,48,36,44],"right_numbers":[16,36,24,12,20,18,14,8,22,16],"points_earned":301,"phase":"task","trial_type":"horizons-task","trial_index":45,"time_elapsed":643008,"internal_node_id":"0.0-41.0","task_version":"0.2"},{"response_times":[913,583,612,575,537],"keys_pressed":["leftarrow","leftarrow","leftarrow","rightarrow","leftarrow"],"horizon":5,"forced_choices":["leftarrow","leftarrow","leftarrow","rightarrow"],"right_color":"orange","left_color":"lightblue","left_mu":60,"right_mu":68,"left_numbers":[68,57,66,50,58],"right_numbers":[72,68,56,81,68],"points_earned":330,"phase":"task","trial_type":"horizons-task","trial_index":46,"time_elapsed":647732,"internal_node_id":"0.0-42.0","task_version":"0.2"},{"response_times":[531.0000000001164,778.0000000001164,524,466.9999999998836,863],"keys_pressed":["rightarrow","rightarrow","leftarrow","rightarrow","rightarrow"],"horizon":5,"forced_choices":["rightarrow","rightarrow","leftarrow","rightarrow"],"right_color":"lightblue","left_color":"orange","left_mu":40,"right_mu":48,"left_numbers":[36,46,50,26,38],"right_numbers":[58,49,50,34,45],"points_earned":236,"phase":"task","trial_type":"horizons-task","trial_index":47,"time_elapsed":652399,"internal_node_id":"0.0-43.0","task_version":"0.2"},{"response_times":[859,480,572,585,787.0000000001164],"keys_pressed":["leftarrow","leftarrow","rightarrow","rightarrow","leftarrow"],"horizon":5,"forced_choices":["leftarrow","leftarrow","rightarrow","rightarrow"],"right_color":"lightblue","left_color":"orange","left_mu":40,"right_mu":10,"left_numbers":[39,39,34,43,57],"right_numbers":[12,4,0,7,0],"points_earned":142,"phase":"task","trial_type":"horizons-task","trial_index":48,"time_elapsed":657190,"internal_node_id":"0.0-44.0","task_version":"0.2"},{"response_times":[877.9999999998836,460,456,563,1211,625,914,1043,647,738],"keys_pressed":["rightarrow","leftarrow","leftarrow","rightarrow","leftarrow","leftarrow","leftarrow","rightarrow","rightarrow","rightarrow"],"horizon":10,"forced_choices":["rightarrow","leftarrow","leftarrow","rightarrow"],"right_color":"orange","left_color":"lightblue","left_mu":60,"right_mu":56,"left_numbers":[68,59,58,57,59,48,50,58,62,68],"right_numbers":[65,54,53,47,62,49,49,67,65,58],"points_earned":576,"phase":"task","trial_type":"horizons-task","trial_index":49,"time_elapsed":666229,"internal_node_id":"0.0-45.0","task_version":"0.2"},{"response_times":[911,511,563,587,635.0000000001164,489.9999999998836,504,466,566,517],"keys_pressed":["leftarrow","leftarrow","rightarrow","leftarrow","leftarrow","leftarrow","leftarrow","leftarrow","leftarrow","rightarrow"],"horizon":10,"forced_choices":["leftarrow","leftarrow","rightarrow","leftarrow"],"right_color":"orange","left_color":"lightblue","left_mu":60,"right_mu":56,"left_numbers":[56,36,58,54,54,52,49,63,47,58],"right_numbers":[58,52,65,69,60,58,50,46,59,60],"points_earned":536,"phase":"task","trial_type":"horizons-task","trial_index":50,"time_elapsed":673483,"internal_node_id":"0.0-46.0","task_version":"0.2"},{"view_history":"[{\"page_index\":0,\"viewing_time\":2102},{\"page_index\":1,\"viewing_time\":1489}]","rt":3591,"trial_type":"instructions","trial_index":51,"time_elapsed":677074,"internal_node_id":"0.0-47.0","task_version":"0.2"},{"response_times":[1044,494.0000000001164,455.9999999998836,482,471],"keys_pressed":["leftarrow","leftarrow","leftarrow","rightarrow","leftarrow"],"horizon":5,"forced_choices":["leftarrow","leftarrow","leftarrow","rightarrow"],"right_color":"lightblue","left_color":"orange","left_mu":60,"right_mu":30,"left_numbers":[57,61,56,58,37],"right_numbers":[26,23,36,21,38],"points_earned":232,"phase":"task","trial_type":"horizons-task","trial_index":52,"time_elapsed":681526,"internal_node_id":"0.0-48.0","task_version":"0.2"},{"response_times":[47676,535,1339,489,446],"keys_pressed":["rightarrow","rightarrow","leftarrow","leftarrow","rightarrow"],"horizon":5,"forced_choices":["rightarrow","rightarrow","leftarrow","leftarrow"],"right_color":"lightblue","left_color":"orange","left_mu":40,"right_mu":48,"left_numbers":[47,32,37,36,48],"right_numbers":[42,32,42,57,51],"points_earned":198,"phase":"task","trial_type":"horizons-task","trial_index":53,"time_elapsed":733517,"internal_node_id":"0.0-49.0","task_version":"0.2"},{"response_times":[644.0000000001164,337.9999999998836,540,502.0000000001164,359.9999999998836],"keys_pressed":["rightarrow","leftarrow","leftarrow","leftarrow","rightarrow"],"horizon":5,"forced_choices":["rightarrow","leftarrow","leftarrow","leftarrow"],"right_color":"orange","left_color":"lightblue","left_mu":60,"right_mu":90,"left_numbers":[66,54,52,48,75],"right_numbers":[105,86,100,100,89],"points_earned":348,"phase":"task","trial_type":"horizons-task","trial_index":54,"time_elapsed":737406,"internal_node_id":"0.0-50.0","task_version":"0.2"},{"response_times":[572,399,530,548,670],"keys_pressed":["leftarrow","rightarrow","rightarrow","rightarrow","rightarrow"],"horizon":5,"forced_choices":["leftarrow","rightarrow","rightarrow","rightarrow"],"right_color":"orange","left_color":"lightblue","left_mu":60,"right_mu":40,"left_numbers":[53,70,56,60,63],"right_numbers":[49,55,41,49,37],"points_earned":235,"phase":"task","trial_type":"horizons-task","trial_index":55,"time_elapsed":741628,"internal_node_id":"0.0-51.0","task_version":"0.2"},{"response_times":[549,373,544,708,910],"keys_pressed":["leftarrow","rightarrow","leftarrow","rightarrow","rightarrow"],"horizon":5,"forced_choices":["leftarrow","rightarrow","leftarrow","rightarrow"],"right_color":"orange","left_color":"lightblue","left_mu":60,"right_mu":52,"left_numbers":[52,62,60,57,67],"right_numbers":[45,64,52,62,54],"points_earned":292,"phase":"task","trial_type":"horizons-task","trial_index":56,"time_elapsed":746219,"internal_node_id":"0.0-52.0","task_version":"0.2"},{"response_times":[626,412,601,591,656.0000000001164,888.9999999998836,540,460,461,431],"keys_pressed":["leftarrow","rightarrow","leftarrow","leftarrow","leftarrow","rightarrow","rightarrow","rightarrow","rightarrow","rightarrow"],"horizon":10,"forced_choices":["leftarrow","rightarrow","leftarrow","leftarrow"],"right_color":"lightblue","left_color":"orange","left_mu":60,"right_mu":64,"left_numbers":[61,56,56,58,61,56,48,64,64,59],"right_numbers":[52,66,65,66,61,64,70,62,70,60],"points_earned":628,"phase":"task","trial_type":"horizons-task","trial_index":57,"time_elapsed":753391,"internal_node_id":"0.0-53.0","task_version":"0.2"},{"response_times":[585,421,578,463,437,582,635,286,365,474],"keys_pressed":["leftarrow","rightarrow","rightarrow","rightarrow","rightarrow","rightarrow","leftarrow","leftarrow","leftarrow","leftarrow"],"horizon":10,"forced_choices":["leftarrow","rightarrow","rightarrow","rightarrow"],"right_color":"orange","left_color":"lightblue","left_mu":60,"right_mu":52,"left_numbers":[70,61,63,65,69,59,66,64,53,60],"right_numbers":[64,44,40,48,61,57,61,41,39,52],"points_earned":563,"phase":"task","trial_type":"horizons-task","trial_index":58,"time_elapsed":759724,"internal_node_id":"0.0-54.0","task_version":"0.2"},{"response_times":[670,344,624,379.0000000001164,279.9999999998836,506,417,390,363,633],"keys_pressed":["leftarrow","rightarrow","leftarrow","rightarrow","leftarrow","leftarrow","leftarrow","leftarrow","rightarrow","rightarrow"],"horizon":10,"forced_choices":["leftarrow","rightarrow","leftarrow","rightarrow"],"right_color":"orange","left_color":"lightblue","left_mu":60,"right_mu":52,"left_numbers":[58,56,55,65,54,60,52,65,62,42],"right_numbers":[50,55,60,48,40,46,46,60,50,42],"points_earned":539,"phase":"task","trial_type":"horizons-task","trial_index":59,"time_elapsed":765834,"internal_node_id":"0.0-55.0","task_version":"0.2"},{"response_times":[765,335,451.0000000001164,421.9999999998836,548],"keys_pressed":["rightarrow","leftarrow","rightarrow","leftarrow","leftarrow"],"horizon":5,"forced_choices":["rightarrow","leftarrow","rightarrow","leftarrow"],"right_color":"orange","left_color":"lightblue","left_mu":40,"right_mu":70,"left_numbers":[35,47,50,37,40],"right_numbers":[76,74,60,66,77],"points_earned":260,"phase":"task","trial_type":"horizons-task","trial_index":60,"time_elapsed":769858,"internal_node_id":"0.0-56.0","task_version":"0.2"},{"response_times":[585,379,393,1641,416],"keys_pressed":["rightarrow","leftarrow","leftarrow","rightarrow","leftarrow"],"horizon":5,"forced_choices":["rightarrow","leftarrow","leftarrow","rightarrow"],"right_color":"lightblue","left_color":"orange","left_mu":60,"right_mu":30,"left_numbers":[70,56,69,61,69],"right_numbers":[27,39,17,28,41],"points_earned":249,"phase":"task","trial_type":"horizons-task","trial_index":61,"time_elapsed":774775,"internal_node_id":"0.0-57.0","task_version":"0.2"},{"response_times":[565,408,675,462,1202,928,884,507,609,475],"keys_pressed":["leftarrow","rightarrow","rightarrow","rightarrow","leftarrow","rightarrow","leftarrow","leftarrow","leftarrow","rightarrow"],"horizon":10,"forced_choices":["leftarrow","rightarrow","rightarrow","rightarrow"],"right_color":"orange","left_color":"lightblue","left_mu":40,"right_mu":36,"left_numbers":[48,45,34,42,39,44,45,43,38,39],"right_numbers":[42,24,28,45,28,48,38,41,33,48],"points_earned":406,"phase":"task","trial_type":"horizons-task","trial_index":62,"time_elapsed":782993,"internal_node_id":"0.0-58.0","task_version":"0.2"},{"response_times":[561,284,406,392,317,615.0000000001164,406.9999999998836,405.0000000001164,1260,436.9999999998836],"keys_pressed":["leftarrow","rightarrow","leftarrow","rightarrow","leftarrow","leftarrow","leftarrow","leftarrow","rightarrow","rightarrow"],"horizon":10,"forced_choices":["leftarrow","rightarrow","leftarrow","rightarrow"],"right_color":"lightblue","left_color":"orange","left_mu":60,"right_mu":64,"left_numbers":[61,48,55,58,55,63,57,56,63,59],"right_numbers":[64,64,49,80,72,72,73,50,61,60],"points_earned":612,"phase":"task","trial_type":"horizons-task","trial_index":63,"time_elapsed":789581,"internal_node_id":"0.0-59.0","task_version":"0.2"},{"response_times":[24487,358.0000000001164,338.9999999998836,453,413,451,596,470,364,393],"keys_pressed":["leftarrow","rightarrow","leftarrow","leftarrow","leftarrow","rightarrow","rightarrow","leftarrow","leftarrow","leftarrow"],"horizon":10,"forced_choices":["leftarrow","rightarrow","leftarrow","leftarrow"],"right_color":"lightblue","left_color":"orange","left_mu":40,"right_mu":32,"left_numbers":[55,48,40,33,22,55,47,31,35,45],"right_numbers":[17,33,28,31,20,23,29,25,23,32],"points_earned":346,"phase":"task","trial_type":"horizons-task","trial_index":64,"time_elapsed":819411,"internal_node_id":"0.0-60.0","task_version":"0.2"},{"response_times":[1401,853,508,459,576],"keys_pressed":["rightarrow","rightarrow","rightarrow","leftarrow","rightarrow"],"horizon":5,"forced_choices":["rightarrow","rightarrow","rightarrow","leftarrow"],"right_color":"lightblue","left_color":"orange","left_mu":60,"right_mu":72,"left_numbers":[59,78,45,61,66],"right_numbers":[81,68,73,70,65],"points_earned":348,"phase":"task","trial_type":"horizons-task","trial_index":65,"time_elapsed":824712,"internal_node_id":"0.0-61.0","task_version":"0.2"},{"response_times":[1154,470,627.0000000001164,495,492.9999999998836],"keys_pressed":["rightarrow","rightarrow","leftarrow","rightarrow","rightarrow"],"horizon":5,"forced_choices":["rightarrow","rightarrow","leftarrow","rightarrow"],"right_color":"orange","left_color":"lightblue","left_mu":60,"right_mu":80,"left_numbers":[71,61,52,63,50],"right_numbers":[83,74,80,72,79],"points_earned":360,"phase":"task","trial_type":"horizons-task","trial_index":66,"time_elapsed":829454,"internal_node_id":"0.0-62.0","task_version":"0.2"},{"response_times":[667,478,1035,722,414],"keys_pressed":["leftarrow","rightarrow","leftarrow","leftarrow","rightarrow"],"horizon":5,"forced_choices":["leftarrow","rightarrow","leftarrow","leftarrow"],"right_color":"lightblue","left_color":"orange","left_mu":60,"right_mu":64,"left_numbers":[53,54,55,51,62],"right_numbers":[73,71,62,48,52],"points_earned":282,"phase":"task","trial_type":"horizons-task","trial_index":67,"time_elapsed":834273,"internal_node_id":"0.0-63.0","task_version":"0.2"},{"response_times":[6309,453,613,729,580,371,371,346.0000000001164,403.9999999998836,436],"keys_pressed":["rightarrow","leftarrow","leftarrow","rightarrow","rightarrow","rightarrow","rightarrow","rightarrow","rightarrow","rightarrow"],"horizon":10,"forced_choices":["rightarrow","leftarrow","leftarrow","rightarrow"],"right_color":"orange","left_color":"lightblue","left_mu":60,"right_mu":80,"left_numbers":[53,65,51,51,57,63,61,75,62,56],"right_numbers":[82,82,83,79,86,60,85,80,87,90],"points_earned":765,"phase":"task","trial_type":"horizons-task","trial_index":68,"time_elapsed":846387,"internal_node_id":"0.0-64.0","task_version":"0.2"},{"response_times":[535,384,718,533,629,440,925,662.0000000001164,423.9999999998836,391],"keys_pressed":["rightarrow","leftarrow","rightarrow","rightarrow","leftarrow","leftarrow","rightarrow","leftarrow","leftarrow","leftarrow"],"horizon":10,"forced_choices":["rightarrow","leftarrow","rightarrow","rightarrow"],"right_color":"lightblue","left_color":"orange","left_mu":40,"right_mu":20,"left_numbers":[35,40,38,33,47,38,49,50,55,39],"right_numbers":[14,8,0,26,18,14,12,13,14,7],"points_earned":321,"phase":"task","trial_type":"horizons-task","trial_index":69,"time_elapsed":853532,"internal_node_id":"0.0-65.0","task_version":"0.2"},{"response_times":[586,525,451,435,363,1206,817.0000000001164,663,589.9999999998836,754],"keys_pressed":["rightarrow","rightarrow","leftarrow","leftarrow","leftarrow","leftarrow","rightarrow","rightarrow","leftarrow","rightarrow"],"horizon":10,"forced_choices":["rightarrow","rightarrow","leftarrow","leftarrow"],"right_color":"orange","left_color":"lightblue","left_mu":40,"right_mu":36,"left_numbers":[46,40,33,45,34,44,50,55,36,32],"right_numbers":[44,35,22,35,26,34,46,33,31,25],"points_earned":375,"phase":"task","trial_type":"horizons-task","trial_index":70,"time_elapsed":861426,"internal_node_id":"0.0-66.0","task_version":"0.2"},{"response_times":[636,386,430,483,686,642.0000000001164,505,783.9999999998836,434,455.0000000001164],"keys_pressed":["leftarrow","rightarrow","leftarrow","rightarrow","rightarrow","rightarrow","rightarrow","rightarrow","rightarrow","rightarrow"],"horizon":10,"forced_choices":["leftarrow","rightarrow","leftarrow","rightarrow"],"right_color":"orange","left_color":"lightblue","left_mu":60,"right_mu":90,"left_numbers":[54,54,57,67,47,49,50,54,48,68],"right_numbers":[89,80,99,86,91,100,89,85,91,84],"points_earned":817,"phase":"task","trial_type":"horizons-task","trial_index":71,"time_elapsed":868370,"internal_node_id":"0.0-67.0","task_version":"0.2"},{"response_times":[734,307.0000000001164,618.9999999998836,526,1067],"keys_pressed":["leftarrow","rightarrow","rightarrow","leftarrow","rightarrow"],"horizon":5,"forced_choices":["leftarrow","rightarrow","rightarrow","leftarrow"],"right_color":"lightblue","left_color":"orange","left_mu":40,"right_mu":32,"left_numbers":[29,42,45,37,63],"right_numbers":[41,37,38,34,32],"points_earned":173,"phase":"task","trial_type":"horizons-task","trial_index":72,"time_elapsed":873126,"internal_node_id":"0.0-68.0","task_version":"0.2"},{"response_times":[673,413,619.0000000001164,495,566.9999999998836,717.0000000001164,598.9999999998836,598.0000000001164,668.9999999998836,435],"keys_pressed":["leftarrow","rightarrow","rightarrow","leftarrow","leftarrow","leftarrow","rightarrow","rightarrow","leftarrow","leftarrow"],"horizon":10,"forced_choices":["leftarrow","rightarrow","rightarrow","leftarrow"],"right_color":"lightblue","left_color":"orange","left_mu":40,"right_mu":32,"left_numbers":[27,42,42,35,34,47,51,48,36,39],"right_numbers":[22,15,34,22,29,25,42,20,36,26],"points_earned":329,"phase":"task","trial_type":"horizons-task","trial_index":73,"time_elapsed":880418,"internal_node_id":"0.0-69.0","task_version":"0.2"},{"response_times":[622,763,754,635,800],"keys_pressed":["rightarrow","rightarrow","leftarrow","rightarrow","rightarrow"],"horizon":5,"forced_choices":["rightarrow","rightarrow","leftarrow","rightarrow"],"right_color":"orange","left_color":"lightblue","left_mu":40,"right_mu":70,"left_numbers":[33,40,48,34,56],"right_numbers":[67,65,69,85,64],"points_earned":329,"phase":"task","trial_type":"horizons-task","trial_index":74,"time_elapsed":885495,"internal_node_id":"0.0-70.0","task_version":"0.2"},{"response_times":[561,596,950,710,800,790,686,500,681,450.0000000001164],"keys_pressed":["rightarrow","rightarrow","leftarrow","leftarrow","rightarrow","rightarrow","leftarrow","leftarrow","rightarrow","rightarrow"],"horizon":10,"forced_choices":["rightarrow","rightarrow","leftarrow","leftarrow"],"right_color":"lightblue","left_color":"orange","left_mu":40,"right_mu":48,"left_numbers":[30,51,46,34,34,35,42,34,43,29],"right_numbers":[50,55,30,41,50,37,33,50,42,58],"points_earned":448,"phase":"task","trial_type":"horizons-task","trial_index":75,"time_elapsed":893721,"internal_node_id":"0.0-71.0","task_version":"0.2"},{"response_times":[14338,498,495,386,611],"keys_pressed":["rightarrow","rightarrow","rightarrow","leftarrow","leftarrow"],"horizon":5,"forced_choices":["rightarrow","rightarrow","rightarrow","leftarrow"],"right_color":"orange","left_color":"lightblue","left_mu":40,"right_mu":28,"left_numbers":[28,36,33,21,38],"right_numbers":[26,25,30,25,36],"points_earned":140,"phase":"task","trial_type":"horizons-task","trial_index":76,"time_elapsed":911553,"internal_node_id":"0.0-72.0","task_version":"0.2"},{"response_times":[730,428,409,463.0000000001164,671.9999999998836,451,490,438,412,740],"keys_pressed":["rightarrow","leftarrow","leftarrow","leftarrow","rightarrow","rightarrow","rightarrow","rightarrow","rightarrow","leftarrow"],"horizon":10,"forced_choices":["rightarrow","leftarrow","leftarrow","leftarrow"],"right_color":"orange","left_color":"lightblue","left_mu":40,"right_mu":44,"left_numbers":[45,31,37,32,29,40,42,37,36,34],"right_numbers":[30,46,54,42,38,38,46,44,42,49],"points_earned":372,"phase":"task","trial_type":"horizons-task","trial_index":77,"time_elapsed":918290,"internal_node_id":"0.0-73.0","task_version":"0.2"},{"response_times":[587,453.0000000001164,472.9999999998836,571,764.0000000001164,556.9999999998836,409.0000000001164,1231.9999999998836,557.0000000001164,1051.9999999998836],"keys_pressed":["leftarrow","rightarrow","rightarrow","rightarrow","leftarrow","leftarrow","leftarrow","leftarrow","leftarrow","leftarrow"],"horizon":10,"forced_choices":["leftarrow","rightarrow","rightarrow","rightarrow"],"right_color":"orange","left_color":"lightblue","left_mu":60,"right_mu":40,"left_numbers":[56,71,60,58,62,51,65,64,52,66],"right_numbers":[31,56,46,38,29,47,34,38,30,32],"points_earned":556,"phase":"task","trial_type":"horizons-task","trial_index":78,"time_elapsed":926448,"internal_node_id":"0.0-74.0","task_version":"0.2"},{"response_times":[720,511,505,452,506.0000000001164,474.9999999998836,385,443.0000000001164,328.9999999998836,440.0000000001164],"keys_pressed":["rightarrow","leftarrow","leftarrow","leftarrow","rightarrow","rightarrow","rightarrow","rightarrow","rightarrow","rightarrow"],"horizon":10,"forced_choices":["rightarrow","leftarrow","leftarrow","leftarrow"],"right_color":"orange","left_color":"lightblue","left_mu":60,"right_mu":90,"left_numbers":[65,63,63,67,79,58,38,64,64,53],"right_numbers":[82,109,105,96,87,79,88,94,86,89],"points_earned":798,"phase":"task","trial_type":"horizons-task","trial_index":79,"time_elapsed":932718,"internal_node_id":"0.0-75.0","task_version":"0.2"},{"response_times":[573,498,607,590,1400,492,409.0000000001164,336.9999999998836,418.0000000001164,524],"keys_pressed":["leftarrow","leftarrow","rightarrow","leftarrow","rightarrow","leftarrow","leftarrow","leftarrow","leftarrow","leftarrow"],"horizon":10,"forced_choices":["leftarrow","leftarrow","rightarrow","leftarrow"],"right_color":"lightblue","left_color":"orange","left_mu":40,"right_mu":10,"left_numbers":[42,35,45,42,23,31,33,43,51,42],"right_numbers":[0,21,0,20,23,9,15,8,11,14],"points_earned":342,"phase":"task","trial_type":"horizons-task","trial_index":80,"time_elapsed":940069,"internal_node_id":"0.0-76.0","task_version":"0.2"},{"response_times":[780,516,635,826,616],"keys_pressed":["rightarrow","leftarrow","rightarrow","rightarrow","rightarrow"],"horizon":5,"forced_choices":["rightarrow","leftarrow","rightarrow","rightarrow"],"right_color":"lightblue","left_color":"orange","left_mu":40,"right_mu":60,"left_numbers":[32,29,36,40,54],"right_numbers":[62,53,56,68,62],"points_earned":277,"phase":"task","trial_type":"horizons-task","trial_index":81,"time_elapsed":944945,"internal_node_id":"0.0-77.0","task_version":"0.2"},{"response_times":[593,329,656,542,734],"keys_pressed":["rightarrow","leftarrow","leftarrow","rightarrow","leftarrow"],"horizon":5,"forced_choices":["rightarrow","leftarrow","leftarrow","rightarrow"],"right_color":"orange","left_color":"lightblue","left_mu":60,"right_mu":56,"left_numbers":[49,73,50,64,55],"right_numbers":[61,59,43,50,56],"points_earned":289,"phase":"task","trial_type":"horizons-task","trial_index":82,"time_elapsed":949303,"internal_node_id":"0.0-78.0","task_version":"0.2"},{"response_times":[1146,588,493.0000000001164,650.9999999998836,533],"keys_pressed":["rightarrow","rightarrow","leftarrow","leftarrow","leftarrow"],"horizon":5,"forced_choices":["rightarrow","rightarrow","leftarrow","leftarrow"],"right_color":"orange","left_color":"lightblue","left_mu":40,"right_mu":36,"left_numbers":[40,26,61,50,35],"right_numbers":[31,46,24,37,36],"points_earned":223,"phase":"task","trial_type":"horizons-task","trial_index":83,"time_elapsed":954222,"internal_node_id":"0.0-79.0","task_version":"0.2"},{"response_times":[503,383,673,786,705],"keys_pressed":["leftarrow","rightarrow","rightarrow","rightarrow","leftarrow"],"horizon":5,"forced_choices":["leftarrow","rightarrow","rightarrow","rightarrow"],"right_color":"orange","left_color":"lightblue","left_mu":60,"right_mu":52,"left_numbers":[72,51,57,46,58],"right_numbers":[65,49,55,55,54],"points_earned":289,"phase":"task","trial_type":"horizons-task","trial_index":84,"time_elapsed":958776,"internal_node_id":"0.0-80.0","task_version":"0.2"},{"response_times":[568,721,680,652,522,630,536.0000000001164,1465.9999999998836,370,355],"keys_pressed":["leftarrow","leftarrow","rightarrow","rightarrow","leftarrow","leftarrow","leftarrow","leftarrow","leftarrow","leftarrow"],"horizon":10,"forced_choices":["leftarrow","leftarrow","rightarrow","rightarrow"],"right_color":"orange","left_color":"lightblue","left_mu":40,"right_mu":28,"left_numbers":[38,28,49,46,41,40,39,43,37,37],"right_numbers":[23,32,26,34,43,27,17,43,18,37],"points_earned":363,"phase":"task","trial_type":"horizons-task","trial_index":85,"time_elapsed":966779,"internal_node_id":"0.0-81.0","task_version":"0.2"},{"response_times":[608,581,449,523,1427,991,632,596,662,496.0000000001164],"keys_pressed":["rightarrow","rightarrow","leftarrow","rightarrow","rightarrow","leftarrow","rightarrow","rightarrow","leftarrow","rightarrow"],"horizon":10,"forced_choices":["rightarrow","rightarrow","leftarrow","rightarrow"],"right_color":"lightblue","left_color":"orange","left_mu":40,"right_mu":48,"left_numbers":[36,45,29,46,39,44,34,40,35,45],"right_numbers":[55,47,56,42,38,41,43,29,51,41],"points_earned":403,"phase":"task","trial_type":"horizons-task","trial_index":86,"time_elapsed":975248,"internal_node_id":"0.0-82.0","task_version":"0.2"},{"response_times":[570,525,424,596,1593,603,607,432,429,423],"keys_pressed":["rightarrow","rightarrow","rightarrow","leftarrow","leftarrow","leftarrow","leftarrow","leftarrow","leftarrow","leftarrow"],"horizon":10,"forced_choices":["rightarrow","rightarrow","rightarrow","leftarrow"],"right_color":"orange","left_color":"lightblue","left_mu":40,"right_mu":28,"left_numbers":[38,38,36,52,40,47,41,48,28,24],"right_numbers":[28,27,20,23,40,34,29,19,33,33],"points_earned":355,"phase":"task","trial_type":"horizons-task","trial_index":87,"time_elapsed":982954,"internal_node_id":"0.0-83.0","task_version":"0.2"},{"response_times":[570,381,722,462,687],"keys_pressed":["leftarrow","rightarrow","rightarrow","leftarrow","leftarrow"],"horizon":5,"forced_choices":["leftarrow","rightarrow","rightarrow","leftarrow"],"right_color":"lightblue","left_color":"orange","left_mu":60,"right_mu":48,"left_numbers":[54,71,66,57,63],"right_numbers":[46,49,49,48,42],"points_earned":272,"phase":"task","trial_type":"horizons-task","trial_index":88,"time_elapsed":987280,"internal_node_id":"0.0-84.0","task_version":"0.2"},{"response_times":[538,916,1259,510,667],"keys_pressed":["leftarrow","rightarrow","rightarrow","leftarrow","leftarrow"],"horizon":5,"forced_choices":["leftarrow","rightarrow","rightarrow","leftarrow"],"right_color":"lightblue","left_color":"orange","left_mu":40,"right_mu":20,"left_numbers":[41,31,31,44,41],"right_numbers":[15,17,7,12,12],"points_earned":150,"phase":"task","trial_type":"horizons-task","trial_index":89,"time_elapsed":992674,"internal_node_id":"0.0-85.0","task_version":"0.2"},{"response_times":[643.0000000001164,544.9999999998836,452,770,925.0000000001164,923,474.9999999998836,518,391,494],"keys_pressed":["rightarrow","rightarrow","rightarrow","leftarrow","leftarrow","rightarrow","rightarrow","rightarrow","rightarrow","rightarrow"],"horizon":10,"forced_choices":["rightarrow","rightarrow","rightarrow","leftarrow"],"right_color":"lightblue","left_color":"orange","left_mu":60,"right_mu":72,"left_numbers":[57,52,68,66,53,60,72,66,54,55],"right_numbers":[65,84,70,80,80,71,58,63,63,58],"points_earned":651,"phase":"task","trial_type":"horizons-task","trial_index":90,"time_elapsed":1000313,"internal_node_id":"0.0-86.0","task_version":"0.2"},{"response_times":[712.9999999998836,1507,521,592,529],"keys_pressed":["rightarrow","rightarrow","leftarrow","leftarrow","leftarrow"],"horizon":5,"forced_choices":["rightarrow","rightarrow","leftarrow","leftarrow"],"right_color":"orange","left_color":"lightblue","left_mu":40,"right_mu":44,"left_numbers":[29,41,46,48,40],"right_numbers":[33,37,41,44,42],"points_earned":204,"phase":"task","trial_type":"horizons-task","trial_index":91,"time_elapsed":1005678,"internal_node_id":"0.0-87.0","task_version":"0.2"},{"rt":11221,"responses":{"age":"29","gender-categorical":"Female","gender-free-response":"","ethnicity":"Not Hispanic or Latino","race":["White"],"language":"Yes","fluency":"Very well"},"survey":"demographics","trial_type":"survey-demo","trial_index":92,"time_elapsed":1016910,"internal_node_id":"0.0-88.0","task_version":"0.2"},{"rt":13700,"responses":{"difficulty":"4","fun":"4","clarity":"5","strategy":"no","feedback":"good luck with your data collection"},"survey":"debrief","trial_type":"survey-debrief","trial_index":93,"time_elapsed":1030614,"internal_node_id":"0.0-89.0","task_version":"0.2","interactions":"[{\"event\":\"blur\",\"trial\":23,\"time\":409912},{\"event\":\"focus\",\"trial\":24,\"time\":412378},{\"event\":\"blur\",\"trial\":36,\"time\":533466},{\"event\":\"focus\",\"trial\":36,\"time\":578405},{\"event\":\"blur\",\"trial\":53,\"time\":683791},{\"event\":\"focus\",\"trial\":53,\"time\":728467},{\"event\":\"focus\",\"trial\":53,\"time\":728467},{\"event\":\"blur\",\"trial\":64,\"time\":791365},{\"event\":\"focus\",\"trial\":64,\"time\":813576},{\"event\":\"focus\",\"trial\":64,\"time\":813577},{\"event\":\"blur\",\"trial\":68,\"time\":835318},{\"event\":\"focus\",\"trial\":68,\"time\":839962},{\"event\":\"focus\",\"trial\":68,\"time\":839962},{\"event\":\"blur\",\"trial\":76,\"time\":894257},{\"event\":\"focus\",\"trial\":76,\"time\":907811}]"}]