[{"view_history":"[{\"page_index\":0,\"viewing_time\":1444.2800000033458}]","rt":1445.1200000039535,"trial_type":"instructions","trial_index":0,"time_elapsed":1460,"internal_node_id":"0.0-0.0","task_version":"0.2"},{"item_order":[4,3,16,15,5,0,9,1,6,11,12,10,14,7,2,8,13],"responses":{"Q05":"2","Q04":"3","Q17":"0","Q16":"3","Q06":"3","Q01":"3","Q10":"3","Q02":"3","Q07":"3","Q12":"3","Q13":"3","Q11":"4","Q15":"3","Q08":"3","Q03":"4","Q09":"3","Q14":"2"},"radio_events":[5602.500000000873,7955.824999997276,10592.429999996966,18157.474999999977,18702.299999997194,21485.06500000076,45982.224999999744,47934.80499999714,48511.014999996405,49928.124999998545,51340.51999999792,54261.66999999987,55266.27000000008,56498.84499999462,57723.229999995965,61368.87500000012,65142.24999999715],"key_events":[],"mouse_events":[0.19999999494757503,5602.500000000873,7955.824999997276,9472.349999996368,10592.429999996966,16240.294999995967,18157.474999999977,18702.299999997194,21485.06500000076,45281.79000000091,45982.224999999744,46966.51999999449,47934.80499999714,48511.014999996405,49928.124999998545,51340.51999999792,54261.66999999987,55266.27000000008,56498.84499999462,57723.229999995965,59775.409999994736,61368.87500000012,62457.53999999579,65142.24999999715,66007.15499999933],"rt":66013.50499999535,"survey":"pswq","trial_type":"survey-template","trial_index":1,"time_elapsed":67481,"internal_node_id":"0.0-1.0","task_version":"0.2"},{"item_order":[1,12,15,4,11,6,9,0,2,7,3,5,13,10,8,14],"responses":{"Q02":"3","Q13":"4","Q16":"3","Q05":"0","Q12":"2","Q07":"2","Q10":"1","Q01":"3","Q03":"4","Q08":"3","Q04":"2","Q06":"3","Q14":"2","Q11":"3","Q09":"2","Q15":"3"},"radio_events":[1729516.4650000008,1745869.8850000002,1753033.2950000009,1759636.9200000046,1760132.8550000032,1764395.980000001,1768344.4700000035,1770042.7850000053,1772159.8500000038,1773040.9250000012,1776447.2000000025,1779561.2050000052,1780685.375000001,1781822.3450000007,1782694.7399999988,1784843.9150000047,1786477.1050000056,1793649.6100000003],"key_events":[],"mouse_events":[1728916.9450000045,1729516.4650000008,1745869.8850000002,1753033.2950000009,1757539.31,1759636.9200000046,1760132.8550000032,1761374.345000004,1762282.4900000049,1763395.3299999991,1764395.980000001,1767777.495000002,1768344.4700000035,1770042.7850000053,1772159.8500000038,1773040.9250000012,1776447.2000000025,1779561.2050000052,1780685.375000001,1781822.3450000007,1782694.7399999988,1783942.3700000043,1784376.6350000007,1784843.9150000047,1786477.1050000056,1787589.9050000007,1792549.3850000058,1793649.6100000003,1795273.675000004],"rt":1795277.2699999986,"survey":"nfc","trial_type":"survey-template","trial_index":2,"time_elapsed":1862819,"internal_node_id":"0.0-2.0","task_version":"0.2"},{"item_order":[3,2,12,10,1,11,4,9,7,6,0,5,8],"responses":{"Q04":"3","Q03":"2","Q13":"4","Q11":"1","Q02":"3","Q12":"2","Q05":"0","Q10":"2","Q08":"3","Q07":"1","Q01":"3","Q06":"2","Q09":"1"},"radio_events":[4356.554999998538,5565.469999994151,7510.11499999743,12132.814999997383,13857.889999999432,15433.629999999655,17607.004999998026,20400.57499999972,21733.019999999786,24333.889999994542,25162.08499999647,28019.4300000004,31304.639999994775],"key_events":[],"mouse_events":[4356.554999998538,5565.469999994151,7510.11499999743,10691.84999999567,12132.814999997383,13857.889999999432,15433.629999999655,17607.004999998026,20400.57499999972,21733.019999999786,22925.719999999274,24333.889999994542,25162.08499999647,28019.4300000004,30808.594999995083,31304.639999994775,32088.97499999893],"rt":32092.73999999999,"survey":"ius12","trial_type":"survey-template","trial_index":3,"time_elapsed":1894919,"internal_node_id":"0.0-3.0","task_version":"0.2"},{"view_history":"[{\"page_index\":0,\"viewing_time\":2564.6849999974947},{\"page_index\":1,\"viewing_time\":3125.5549999987707},{\"page_index\":2,\"viewing_time\":5406.674999998417},{\"page_index\":3,\"viewing_time\":4195.455000001006},{\"page_index\":4,\"viewing_time\":2409.310000002617},{\"page_index\":5,\"viewing_time\":2962.3999999966472},{\"page_index\":6,\"viewing_time\":3361.7450000019744},{\"page_index\":7,\"viewing_time\":7375.079999997979},{\"page_index\":8,\"viewing_time\":2841.1150000030175},{\"page_index\":9,\"viewing_time\":2829.375000001164}]","rt":37072.72499999823,"trial_type":"instructions","trial_index":4,"time_elapsed":1931995,"internal_node_id":"0.0-4.0-0.0","task_version":"0.2"},{"response_times":[1079.7550000061747,738.7099999976344,587.849999996135,921.1450000002515,5255.57499999553],"keys_pressed":["rightarrow","leftarrow","rightarrow","rightarrow","leftarrow"],"horizon":5,"forced_choices":["rightarrow","leftarrow","rightarrow","rightarrow"],"right_color":"lightblue","left_color":"orange","left_mu":40,"right_mu":20,"left_numbers":[39,41,40,33,64],"right_numbers":[4,20,30,14,21],"points_earned":153,"phase":"practice","trial_type":"horizons-task","trial_index":5,"time_elapsed":1942096,"internal_node_id":"0.0-4.0-1.0","task_version":"0.2"},{"response_times":[992.8199999993667,568.1599999952596,400.8599999942817,668.1249999962747,1861.8750000023283,1412.7000000008848,690.894999999553,1082.0149999998976,862.8299999982119,1120.0250000036322],"keys_pressed":["leftarrow","leftarrow","rightarrow","rightarrow","rightarrow","rightarrow","rightarrow","rightarrow","rightarrow","rightarrow"],"horizon":10,"forced_choices":["leftarrow","leftarrow","rightarrow","rightarrow"],"right_color":"orange","left_color":"lightblue","left_mu":60,"right_mu":70,"left_numbers":[55,60,54,68,80,71,57,45,56,55],"right_numbers":[68,81,78,76,64,85,83,72,62,62],"points_earned":697,"phase":"practice","trial_type":"horizons-task","trial_index":6,"time_elapsed":1953264,"internal_node_id":"0.0-4.0-2.0","task_version":"0.2"},{"view_history":"[{\"page_index\":0,\"viewing_time\":993.759999997681},{\"page_index\":1,\"viewing_time\":1913.1750000014435},{\"page_index\":2,\"viewing_time\":3477.910000001313},{\"page_index\":3,\"viewing_time\":1264.7099999957718}]","rt":7650.000000001397,"trial_type":"instructions","trial_index":7,"time_elapsed":1960915,"internal_node_id":"0.0-4.0-3.0","task_version":"0.2"},{"responses":["true","false","true"],"num_errors":0,"rt":6617.935000002151,"trial_type":"horizons-comprehension","trial_index":8,"time_elapsed":1967537,"internal_node_id":"0.0-4.0-4.0","task_version":"0.2"},{"trial_type":"call-function","trial_index":9,"time_elapsed":1967543,"internal_node_id":"0.0-5.0","task_version":"0.2"},{"view_history":"[{\"page_index\":0,\"viewing_time\":1183.9499999985565},{\"page_index\":1,\"viewing_time\":1392.5650000020396}]","rt":2577.039999996312,"trial_type":"instructions","trial_index":10,"time_elapsed":1970121,"internal_node_id":"0.0-6.0","task_version":"0.2"},{"response_times":[1149.4399999938905,724.999999998603,788.4950000008103,704.8950000025798,1163.8400000010151],"keys_pressed":["leftarrow","rightarrow","rightarrow","leftarrow","rightarrow"],"horizon":5,"forced_choices":["leftarrow","rightarrow","rightarrow","leftarrow"],"right_color":"orange","left_color":"lightblue","left_mu":60,"right_mu":80,"left_numbers":[51,67,52,54,56],"right_numbers":[77,79,66,70,64],"points_earned":314,"phase":"task","trial_type":"horizons-task","trial_index":11,"time_elapsed":1976165,"internal_node_id":"0.0-7.0","task_version":"0.2"},{"response_times":[786.3999999971129,481.195000000298,577.1200000017416,1123.155000001192,2037.9750000063796,1198.7700000028126,667.7150000031106,577.1449999955948,518.8300000010058,432.1099999942817],"keys_pressed":["rightarrow","leftarrow","leftarrow","rightarrow","leftarrow","rightarrow","leftarrow","leftarrow","leftarrow","leftarrow"],"horizon":10,"forced_choices":["rightarrow","leftarrow","leftarrow","rightarrow"],"right_color":"lightblue","left_color":"orange","left_mu":40,"right_mu":32,"left_numbers":[36,26,37,52,37,40,40,52,43,49],"right_numbers":[22,26,16,24,29,28,28,29,39,20],"points_earned":358,"phase":"task","trial_type":"horizons-task","trial_index":12,"time_elapsed":1986073,"internal_node_id":"0.0-8.0","task_version":"0.2"},{"response_times":[718.0899999947287,535.8899999991991,910.7999999979511,609.544999999227,1833.9100000013132,708.8650000006892,570.3599999977741,365.5600000056438,364.23999999510124,471.62000000383705],"keys_pressed":["rightarrow","leftarrow","leftarrow","rightarrow","rightarrow","leftarrow","rightarrow","rightarrow","rightarrow","rightarrow"],"horizon":10,"forced_choices":["rightarrow","leftarrow","leftarrow","rightarrow"],"right_color":"orange","left_color":"lightblue","left_mu":40,"right_mu":60,"left_numbers":[42,51,34,31,34,35,36,33,47,41],"right_numbers":[53,55,68,56,62,58,54,65,58,58],"points_earned":526,"phase":"task","trial_type":"horizons-task","trial_index":13,"time_elapsed":1994669,"internal_node_id":"0.0-9.0","task_version":"0.2"},{"response_times":[882.9699999988079,464.6349999967497,515.914999996312,900.4249999998137,3439.6300000008196,474.6299999970943,559.8649999955669,432.89999999990687,457.1250000006985,206.87500000349246],"keys_pressed":["rightarrow","leftarrow","rightarrow","rightarrow","rightarrow","leftarrow","rightarrow","rightarrow","rightarrow","rightarrow"],"horizon":10,"forced_choices":["rightarrow","leftarrow","rightarrow","rightarrow"],"right_color":"lightblue","left_color":"orange","left_mu":40,"right_mu":52,"left_numbers":[26,39,38,36,41,30,36,38,32,50],"right_numbers":[30,39,58,53,50,47,53,49,37,56],"points_earned":455,"phase":"task","trial_type":"horizons-task","trial_index":14,"time_elapsed":2004508,"internal_node_id":"0.0-10.0","task_version":"0.2"},{"response_times":[977.6950000014622,428.71999999624677,1822.2150000000838,518.4700000025332,1279.844999997411,760.1800000048243,446.9150000002701,182.2200000025332,165.65999999875203,182.8449999957811],"keys_pressed":["leftarrow","rightarrow","leftarrow","rightarrow","rightarrow","rightarrow","rightarrow","rightarrow","rightarrow","rightarrow"],"horizon":10,"forced_choices":["leftarrow","rightarrow","leftarrow","rightarrow"],"right_color":"orange","left_color":"lightblue","left_mu":60,"right_mu":90,"left_numbers":[65,49,62,59,65,55,35,60,64,71],"right_numbers":[93,95,94,79,87,98,95,99,108,100],"points_earned":888,"phase":"task","trial_type":"horizons-task","trial_index":15,"time_elapsed":2012780,"internal_node_id":"0.0-11.0","task_version":"0.2"},{"response_times":[1084.7900000007357,574.5750000057742,840.2399999976624,1398.6100000038277,2390.395000002347],"keys_pressed":["rightarrow","leftarrow","rightarrow","leftarrow","leftarrow"],"horizon":5,"forced_choices":["rightarrow","leftarrow","rightarrow","leftarrow"],"right_color":"orange","left_color":"lightblue","left_mu":60,"right_mu":48,"left_numbers":[46,49,47,56,55],"right_numbers":[46,55,55,50,44],"points_earned":261,"phase":"task","trial_type":"horizons-task","trial_index":16,"time_elapsed":2020572,"internal_node_id":"0.0-12.0","task_version":"0.2"},{"response_times":[780.8349999976344,479.9700000002049,703.8850000025705,1250.9400000052992,2396.3749999965075,536.1200000043027,546.9999999988358,266.990000003716,224.65500000538304,241.13500000396743],"keys_pressed":["leftarrow","leftarrow","rightarrow","leftarrow","leftarrow","rightarrow","leftarrow","leftarrow","leftarrow","leftarrow"],"horizon":10,"forced_choices":["leftarrow","leftarrow","rightarrow","leftarrow"],"right_color":"lightblue","left_color":"orange","left_mu":60,"right_mu":30,"left_numbers":[40,64,66,46,64,56,64,69,64,56],"right_numbers":[34,23,46,26,17,26,35,27,40,22],"points_earned":539,"phase":"task","trial_type":"horizons-task","trial_index":17,"time_elapsed":2029506,"internal_node_id":"0.0-13.0","task_version":"0.2"},{"response_times":[769.8899999959394,438.13999999850057,726.8049999985378,1346.4249999960884,1307.3199999998324],"keys_pressed":["leftarrow","rightarrow","leftarrow","rightarrow","rightarrow"],"horizon":5,"forced_choices":["leftarrow","rightarrow","leftarrow","rightarrow"],"right_color":"orange","left_color":"lightblue","left_mu":40,"right_mu":70,"left_numbers":[38,28,59,41,38],"right_numbers":[60,68,73,66,79],"points_earned":310,"phase":"task","trial_type":"horizons-task","trial_index":18,"time_elapsed":2035602,"internal_node_id":"0.0-14.0","task_version":"0.2"},{"response_times":[700.109999998007,506.5150000008289,484.69499999913387,748.4049999983981,2386.5599999991246],"keys_pressed":["rightarrow","rightarrow","leftarrow","rightarrow","rightarrow"],"horizon":5,"forced_choices":["rightarrow","rightarrow","leftarrow","rightarrow"],"right_color":"lightblue","left_color":"orange","left_mu":60,"right_mu":72,"left_numbers":[61,54,61,70,57],"right_numbers":[58,69,70,72,69],"points_earned":329,"phase":"task","trial_type":"horizons-task","trial_index":19,"time_elapsed":2041933,"internal_node_id":"0.0-15.0","task_version":"0.2"},{"response_times":[700.7200000006706,312.9899999985937,435.5049999940675,591.3300000031013,2300.8499999996275,438.76499999896623,552.7650000003632,166.99499999941327,447.0249999940861,241.82999999891035],"keys_pressed":["rightarrow","leftarrow","leftarrow","leftarrow","rightarrow","leftarrow","rightarrow","rightarrow","rightarrow","rightarrow"],"horizon":10,"forced_choices":["rightarrow","leftarrow","leftarrow","leftarrow"],"right_color":"orange","left_color":"lightblue","left_mu":60,"right_mu":80,"left_numbers":[55,55,52,51,60,56,62,58,64,68],"right_numbers":[75,91,74,81,82,74,77,76,72,87],"points_earned":683,"phase":"task","trial_type":"horizons-task","trial_index":20,"time_elapsed":2049629,"internal_node_id":"0.0-16.0","task_version":"0.2"},{"response_times":[879.9250000012107,486.7649999940768,668.904999998631,1288.9750000033528,1722.6550000051502,273.60500000207685,588.0949999992736,178.04500000039116,182.81499999994412,163.17500000144355],"keys_pressed":["leftarrow","rightarrow","rightarrow","rightarrow","rightarrow","leftarrow","rightarrow","rightarrow","rightarrow","rightarrow"],"horizon":10,"forced_choices":["leftarrow","rightarrow","rightarrow","rightarrow"],"right_color":"orange","left_color":"lightblue","left_mu":60,"right_mu":68,"left_numbers":[66,67,63,54,65,52,52,66,50,57],"right_numbers":[71,75,63,73,64,80,71,82,69,78],"points_earned":693,"phase":"task","trial_type":"horizons-task","trial_index":21,"time_elapsed":2057565,"internal_node_id":"0.0-17.0","task_version":"0.2"},{"response_times":[690.1450000004843,394.6100000028964,709.9949999973178,677.8449999983422,2789.394999999786],"keys_pressed":["rightarrow","leftarrow","leftarrow","rightarrow","leftarrow"],"horizon":5,"forced_choices":["rightarrow","leftarrow","leftarrow","rightarrow"],"right_color":"lightblue","left_color":"orange","left_mu":40,"right_mu":32,"left_numbers":[46,32,52,36,30],"right_numbers":[36,29,32,41,7],"points_earned":191,"phase":"task","trial_type":"horizons-task","trial_index":22,"time_elapsed":2064333,"internal_node_id":"0.0-18.0","task_version":"0.2"},{"response_times":[1106.0699999942444,458.8499999954365,704.1449999960605,693.595000004163,2133.2600000023376],"keys_pressed":["leftarrow","rightarrow","rightarrow","rightarrow","rightarrow"],"horizon":5,"forced_choices":["leftarrow","rightarrow","rightarrow","rightarrow"],"right_color":"orange","left_color":"lightblue","left_mu":60,"right_mu":40,"left_numbers":[58,65,67,47,66],"right_numbers":[37,41,41,47,28],"points_earned":215,"phase":"task","trial_type":"horizons-task","trial_index":23,"time_elapsed":2070936,"internal_node_id":"0.0-19.0","task_version":"0.2"},{"response_times":[739.3100000044797,360.65500000398606,504.86000000103377,547.4050000049174,356.554999998305,2323.0649999969173,1495.380000000354,541.1650000023656,170.01999999769032,152.0699999963399],"keys_pressed":["rightarrow","rightarrow","rightarrow","leftarrow","rightarrow","leftarrow","leftarrow","leftarrow","leftarrow","leftarrow"],"horizon":10,"forced_choices":["rightarrow","rightarrow","rightarrow","leftarrow"],"right_color":"lightblue","left_color":"orange","left_mu":40,"right_mu":32,"left_numbers":[37,40,43,41,25,36,45,46,43,42],"right_numbers":[39,17,40,30,30,32,36,31,47,34],"points_earned":379,"phase":"task","trial_type":"horizons-task","trial_index":24,"time_elapsed":2079630,"internal_node_id":"0.0-20.0","task_version":"0.2"},{"response_times":[590.2900000000373,430.6700000015553,390.55999999982305,593.994999995688,1569.8249999985565,543.8149999971502,408.9749999984633,184.17500000214204,146.8299999977462,140.16000000247732],"keys_pressed":["leftarrow","leftarrow","rightarrow","rightarrow","leftarrow","rightarrow","leftarrow","leftarrow","leftarrow","leftarrow"],"horizon":10,"forced_choices":["leftarrow","leftarrow","rightarrow","rightarrow"],"right_color":"lightblue","left_color":"orange","left_mu":60,"right_mu":30,"left_numbers":[59,54,55,61,51,53,62,63,59,60],"right_numbers":[32,13,36,30,25,21,35,30,34,16],"points_earned":495,"phase":"task","trial_type":"horizons-task","trial_index":25,"time_elapsed":2086131,"internal_node_id":"0.0-21.0","task_version":"0.2"},{"response_times":[724.1900000008754,360.84999999729916,373.1950000000652,383.8949999990873,1694.3600000012666,761.4749999993946,466.41499999538064,163.59500000532717,149.1650000025984,138.26999999582767],"keys_pressed":["leftarrow","rightarrow","leftarrow","leftarrow","rightarrow","leftarrow","rightarrow","rightarrow","rightarrow","rightarrow"],"horizon":10,"forced_choices":["leftarrow","rightarrow","leftarrow","leftarrow"],"right_color":"orange","left_color":"lightblue","left_mu":60,"right_mu":90,"left_numbers":[47,50,67,62,62,39,62,59,58,62],"right_numbers":[72,85,97,96,90,86,98,103,86,88],"points_earned":765,"phase":"task","trial_type":"horizons-task","trial_index":26,"time_elapsed":2092850,"internal_node_id":"0.0-22.0","task_version":"0.2"},{"response_times":[655.4299999990035,467.97000000509433,395.22500000032596,378.7450000017416,1409.9399999976158,217.1749999979511,625.234999999404,190.60999999800697,147.72500000242144,141.05500000016764],"keys_pressed":["rightarrow","rightarrow","leftarrow","rightarrow","rightarrow","leftarrow","rightarrow","rightarrow","rightarrow","rightarrow"],"horizon":10,"forced_choices":["rightarrow","rightarrow","leftarrow","rightarrow"],"right_color":"lightblue","left_color":"orange","left_mu":60,"right_mu":72,"left_numbers":[64,63,53,64,59,60,60,69,63,46],"right_numbers":[81,71,69,62,74,73,70,67,69,76],"points_earned":683,"phase":"task","trial_type":"horizons-task","trial_index":27,"time_elapsed":2098985,"internal_node_id":"0.0-23.0","task_version":"0.2"},{"response_times":[673.8699999987148,409.8050000029616,422.87000000244007,1060.045000005979,907.4000000036322],"keys_pressed":["rightarrow","rightarrow","leftarrow","leftarrow","leftarrow"],"horizon":5,"forced_choices":["rightarrow","rightarrow","leftarrow","leftarrow"],"right_color":"lightblue","left_color":"orange","left_mu":40,"right_mu":36,"left_numbers":[37,33,49,43,43],"right_numbers":[39,33,23,49,40],"points_earned":207,"phase":"task","trial_type":"horizons-task","trial_index":28,"time_elapsed":2103961,"internal_node_id":"0.0-24.0","task_version":"0.2"},{"response_times":[693.3750000023283,350.8050000020303,429.9949999987148,1232.2449999991804,934.9900000016205],"keys_pressed":["rightarrow","leftarrow","rightarrow","rightarrow","rightarrow"],"horizon":5,"forced_choices":["rightarrow","leftarrow","rightarrow","rightarrow"],"right_color":"lightblue","left_color":"orange","left_mu":40,"right_mu":52,"left_numbers":[41,45,59,29,46],"right_numbers":[51,52,40,49,68],"points_earned":253,"phase":"task","trial_type":"horizons-task","trial_index":29,"time_elapsed":2109107,"internal_node_id":"0.0-25.0","task_version":"0.2"},{"response_times":[652.0949999974109,363.9249999979511,693.1650000042282,816.820000000298,1500.9749999954365],"keys_pressed":["rightarrow","leftarrow","leftarrow","rightarrow","leftarrow"],"horizon":5,"forced_choices":["rightarrow","leftarrow","leftarrow","rightarrow"],"right_color":"lightblue","left_color":"orange","left_mu":40,"right_mu":20,"left_numbers":[26,43,35,43,44],"right_numbers":[16,27,20,14,6],"points_earned":152,"phase":"task","trial_type":"horizons-task","trial_index":30,"time_elapsed":2114638,"internal_node_id":"0.0-26.0","task_version":"0.2"},{"response_times":[708.6249999990687,334.6600000006147,374.1450000014156,826.4999999953434,1011.2049999949522,732.0499999984168,589.9300000020303,182.0800000061281,158.65499999932945,210.0600000047125],"keys_pressed":["leftarrow","rightarrow","rightarrow","leftarrow","rightarrow","leftarrow","rightarrow","rightarrow","rightarrow","rightarrow"],"horizon":10,"forced_choices":["leftarrow","rightarrow","rightarrow","leftarrow"],"right_color":"orange","left_color":"lightblue","left_mu":60,"right_mu":80,"left_numbers":[55,61,51,53,57,69,64,64,59,53],"right_numbers":[75,70,101,76,90,80,50,80,75,83],"points_earned":726,"phase":"task","trial_type":"horizons-task","trial_index":31,"time_elapsed":2121274,"internal_node_id":"0.0-27.0","task_version":"0.2"},{"response_times":[666.6849999963306,419.3149999990128,495.9700000034645,431.8850000053644,1924.4200000031851,338.4650000007823,658.8250000057742,1112.1899999999441,674.6899999999441,428.1049999985844],"keys_pressed":["rightarrow","rightarrow","leftarrow","rightarrow","rightarrow","leftarrow","leftarrow","leftarrow","rightarrow","rightarrow"],"horizon":10,"forced_choices":["rightarrow","rightarrow","leftarrow","rightarrow"],"right_color":"orange","left_color":"lightblue","left_mu":40,"right_mu":44,"left_numbers":[26,52,48,19,30,55,43,30,33,42],"right_numbers":[39,57,57,29,43,49,49,42,49,38],"points_earned":431,"phase":"task","trial_type":"horizons-task","trial_index":32,"time_elapsed":2129930,"internal_node_id":"0.0-28.0","task_version":"0.2"},{"response_times":[956.6699999999255,422.61999999778345,1302.2050000000745,822.8100000051782,2241.8049999978393],"keys_pressed":["leftarrow","rightarrow","leftarrow","leftarrow","leftarrow"],"horizon":5,"forced_choices":["leftarrow","rightarrow","leftarrow","leftarrow"],"right_color":"orange","left_color":"lightblue","left_mu":60,"right_mu":90,"left_numbers":[76,54,63,53,67],"right_numbers":[95,81,86,95,90],"points_earned":340,"phase":"task","trial_type":"horizons-task","trial_index":33,"time_elapsed":2137181,"internal_node_id":"0.0-29.0","task_version":"0.2"},{"response_times":[633.6449999944307,379.8699999973178,467.24500000011176,580.6299999966286,1779.5649999971502,581.140000001993,738.1600000006147,3598.529999995604,983.054999996908,675.9099999982864],"keys_pressed":["rightarrow","leftarrow","leftarrow","leftarrow","leftarrow","rightarrow","rightarrow","leftarrow","leftarrow","rightarrow"],"horizon":10,"forced_choices":["rightarrow","leftarrow","leftarrow","leftarrow"],"right_color":"orange","left_color":"lightblue","left_mu":60,"right_mu":56,"left_numbers":[55,65,59,63,55,62,52,60,57,53],"right_numbers":[49,56,62,56,50,62,57,56,62,56],"points_earned":583,"phase":"task","trial_type":"horizons-task","trial_index":34,"time_elapsed":2149104,"internal_node_id":"0.0-30.0","task_version":"0.2"},{"response_times":[651.2599999988452,569.1700000027195,440.2100000004284,878.1349999988452,1428.1799999950454],"keys_pressed":["rightarrow","rightarrow","leftarrow","leftarrow","leftarrow"],"horizon":5,"forced_choices":["rightarrow","rightarrow","leftarrow","leftarrow"],"right_color":"orange","left_color":"lightblue","left_mu":60,"right_mu":56,"left_numbers":[72,49,69,63,50],"right_numbers":[35,43,60,72,64],"points_earned":260,"phase":"task","trial_type":"horizons-task","trial_index":35,"time_elapsed":2154576,"internal_node_id":"0.0-31.0","task_version":"0.2"},{"response_times":[566.9150000032969,418.9699999988079,693.230000004638,957.6799999992363,944.0000000032596],"keys_pressed":["leftarrow","rightarrow","rightarrow","leftarrow","leftarrow"],"horizon":5,"forced_choices":["leftarrow","rightarrow","rightarrow","leftarrow"],"right_color":"orange","left_color":"lightblue","left_mu":40,"right_mu":10,"left_numbers":[29,36,35,31,26],"right_numbers":[8,0,7,6,9],"points_earned":93,"phase":"task","trial_type":"horizons-task","trial_index":36,"time_elapsed":2159664,"internal_node_id":"0.0-32.0","task_version":"0.2"},{"response_times":[582.4550000033341,427.49999999813735,859.9150000009686,686.5600000019185,922.3150000036694],"keys_pressed":["leftarrow","rightarrow","leftarrow","rightarrow","rightarrow"],"horizon":5,"forced_choices":["leftarrow","rightarrow","leftarrow","rightarrow"],"right_color":"orange","left_color":"lightblue","left_mu":60,"right_mu":90,"left_numbers":[65,59,67,68,69],"right_numbers":[105,92,85,93,83],"points_earned":400,"phase":"task","trial_type":"horizons-task","trial_index":37,"time_elapsed":2164646,"internal_node_id":"0.0-33.0","task_version":"0.2"},{"response_times":[629.2800000011921,518.4599999994971,874.7149999979883,624.2800000035204,937.0799999963492],"keys_pressed":["rightarrow","leftarrow","leftarrow","rightarrow","rightarrow"],"horizon":5,"forced_choices":["rightarrow","leftarrow","leftarrow","rightarrow"],"right_color":"orange","left_color":"lightblue","left_mu":40,"right_mu":60,"left_numbers":[32,12,47,38,34],"right_numbers":[58,62,64,63,54],"points_earned":234,"phase":"task","trial_type":"horizons-task","trial_index":38,"time_elapsed":2169739,"internal_node_id":"0.0-34.0","task_version":"0.2"},{"response_times":[1652.5999999940395,355.73999999882653,357.84000000404194,483.1950000007637,1704.9250000054017,1522.6849999963306,999.7299999957904,404.4799999971874,142.41000000061467,148.04999999608845],"keys_pressed":["rightarrow","leftarrow","rightarrow","rightarrow","rightarrow","leftarrow","leftarrow","leftarrow","leftarrow","leftarrow"],"horizon":10,"forced_choices":["rightarrow","leftarrow","rightarrow","rightarrow"],"right_color":"lightblue","left_color":"orange","left_mu":40,"right_mu":36,"left_numbers":[47,34,28,45,36,56,45,35,40,28],"right_numbers":[46,24,35,33,28,47,34,46,31,25],"points_earned":380,"phase":"task","trial_type":"horizons-task","trial_index":39,"time_elapsed":2179014,"internal_node_id":"0.0-35.0","task_version":"0.2"},{"response_times":[863.7449999949895,377.4350000019185,526.9449999979697,502.1699999999255,1899.5949999955483],"keys_pressed":["leftarrow","rightarrow","leftarrow","leftarrow","rightarrow"],"horizon":5,"forced_choices":["leftarrow","rightarrow","leftarrow","leftarrow"],"right_color":"orange","left_color":"lightblue","left_mu":40,"right_mu":70,"left_numbers":[39,40,15,42,47],"right_numbers":[61,59,74,71,71],"points_earned":226,"phase":"task","trial_type":"horizons-task","trial_index":40,"time_elapsed":2184689,"internal_node_id":"0.0-36.0","task_version":"0.2"},{"response_times":[696.5200000051409,412.8449999988079,1487.1700000003912,1003.6299999994226,1140.8700000029057],"keys_pressed":["rightarrow","leftarrow","rightarrow","leftarrow","leftarrow"],"horizon":5,"forced_choices":["rightarrow","leftarrow","rightarrow","leftarrow"],"right_color":"lightblue","left_color":"orange","left_mu":40,"right_mu":28,"left_numbers":[38,35,54,54,49],"right_numbers":[27,13,17,26,32],"points_earned":182,"phase":"task","trial_type":"horizons-task","trial_index":41,"time_elapsed":2190935,"internal_node_id":"0.0-37.0","task_version":"0.2"},{"response_times":[498.839999999851,411.16999999945983,375.3849999993108,453.42000000504777,812.6199999968521],"keys_pressed":["leftarrow","leftarrow","rightarrow","leftarrow","leftarrow"],"horizon":5,"forced_choices":["leftarrow","leftarrow","rightarrow","leftarrow"],"right_color":"orange","left_color":"lightblue","left_mu":40,"right_mu":10,"left_numbers":[35,34,39,38,45],"right_numbers":[5,13,18,2,9],"points_earned":170,"phase":"task","trial_type":"horizons-task","trial_index":42,"time_elapsed":2194994,"internal_node_id":"0.0-38.0","task_version":"0.2"},{"response_times":[595.0400000005029,328.74000000441447,597.0200000014156,816.7750000064261,1254.0300000035204],"keys_pressed":["leftarrow","rightarrow","rightarrow","rightarrow","rightarrow"],"horizon":5,"forced_choices":["leftarrow","rightarrow","rightarrow","rightarrow"],"right_color":"orange","left_color":"lightblue","left_mu":60,"right_mu":68,"left_numbers":[64,56,67,59,74],"right_numbers":[75,75,55,71,72],"points_earned":337,"phase":"task","trial_type":"horizons-task","trial_index":43,"time_elapsed":2200092,"internal_node_id":"0.0-39.0","task_version":"0.2"},{"response_times":[625.7250000052154,411.8649999946356,391.86500000488013,358.195000000298,1312.000000005588,378.6249999976717,1032.1600000024773,539.8300000014715,178.8650000016205,145.87000000011176],"keys_pressed":["leftarrow","leftarrow","leftarrow","rightarrow","rightarrow","leftarrow","leftarrow","leftarrow","leftarrow","leftarrow"],"horizon":10,"forced_choices":["leftarrow","leftarrow","leftarrow","rightarrow"],"right_color":"lightblue","left_color":"orange","left_mu":40,"right_mu":28,"left_numbers":[43,37,39,47,35,33,68,36,42,35],"right_numbers":[20,28,40,30,28,19,19,33,23,33],"points_earned":391,"phase":"task","trial_type":"horizons-task","trial_index":44,"time_elapsed":2206972,"internal_node_id":"0.0-40.0","task_version":"0.2"},{"response_times":[664.7799999993294,364.6000000005588,443.0300000021234,456.2099999967031,419.52499999757856,1695.914999996312,607.3600000017323,536.5849999943748,147.94999999878928,142.97000000067055],"keys_pressed":["leftarrow","rightarrow","rightarrow","rightarrow","leftarrow","rightarrow","leftarrow","leftarrow","leftarrow","leftarrow"],"horizon":10,"forced_choices":["leftarrow","rightarrow","rightarrow","rightarrow"],"right_color":"orange","left_color":"lightblue","left_mu":60,"right_mu":40,"left_numbers":[56,60,55,64,61,56,75,48,48,49],"right_numbers":[42,50,11,34,42,55,40,48,41,31],"points_earned":487,"phase":"task","trial_type":"horizons-task","trial_index":45,"time_elapsed":2213954,"internal_node_id":"0.0-41.0","task_version":"0.2"},{"response_times":[986.0150000024587,540.659999998752,433.7950000045821,416.12499999580905,2704.914999994915,446.7499999953434,583.0050000003539,716.1200000047684,258.8299999991432,487.93500000424683],"keys_pressed":["rightarrow","rightarrow","leftarrow","leftarrow","leftarrow","rightarrow","leftarrow","leftarrow","leftarrow","leftarrow"],"horizon":10,"forced_choices":["rightarrow","rightarrow","leftarrow","leftarrow"],"right_color":"lightblue","left_color":"orange","left_mu":40,"right_mu":36,"left_numbers":[33,42,35,49,37,25,32,34,48,45],"right_numbers":[45,21,38,27,28,35,39,26,34,29],"points_earned":381,"phase":"task","trial_type":"horizons-task","trial_index":46,"time_elapsed":2223031,"internal_node_id":"0.0-42.0","task_version":"0.2"},{"response_times":[637.679999999702,390.98499999800697,471.6699999989942,497.38999999687076,1190.4950000029057,386.1849999958649,680.6749999956228,923.1099999961443,675.7150000045076,602.1550000007264],"keys_pressed":["leftarrow","leftarrow","rightarrow","leftarrow","leftarrow","rightarrow","rightarrow","leftarrow","rightarrow","leftarrow"],"horizon":10,"forced_choices":["leftarrow","leftarrow","rightarrow","leftarrow"],"right_color":"lightblue","left_color":"orange","left_mu":60,"right_mu":64,"left_numbers":[77,59,73,65,51,65,58,61,72,54],"right_numbers":[53,70,56,65,75,82,62,66,54,59],"points_earned":621,"phase":"task","trial_type":"horizons-task","trial_index":47,"time_elapsed":2230995,"internal_node_id":"0.0-43.0","task_version":"0.2"},{"response_times":[569.2399999969639,526.644999998156,804.3449999969453,798.7599999974482,652.750000001397],"keys_pressed":["leftarrow","leftarrow","rightarrow","rightarrow","rightarrow"],"horizon":5,"forced_choices":["leftarrow","leftarrow","rightarrow","rightarrow"],"right_color":"lightblue","left_color":"orange","left_mu":40,"right_mu":52,"left_numbers":[42,48,33,47,43],"right_numbers":[51,73,63,60,59],"points_earned":272,"phase":"task","trial_type":"horizons-task","trial_index":48,"time_elapsed":2235853,"internal_node_id":"0.0-44.0","task_version":"0.2"},{"response_times":[578.4500000011176,358.54999999701977,506.99499999638647,356.44999999925494,1635.929999996908,531.574999993667,472.199999996461,329.14500000327826,168.70499999634922,138.1200000033714],"keys_pressed":["leftarrow","rightarrow","leftarrow","rightarrow","leftarrow","rightarrow","leftarrow","leftarrow","leftarrow","leftarrow"],"horizon":10,"forced_choices":["leftarrow","rightarrow","leftarrow","rightarrow"],"right_color":"lightblue","left_color":"orange","left_mu":60,"right_mu":52,"left_numbers":[68,60,57,68,64,63,64,66,65,64],"right_numbers":[44,42,44,48,62,56,49,52,57,51],"points_earned":594,"phase":"task","trial_type":"horizons-task","trial_index":49,"time_elapsed":2242435,"internal_node_id":"0.0-45.0","task_version":"0.2"},{"response_times":[795.4600000008941,357.7000000006519,357.1550000049174,705.7550000026822,1873.8400000003166],"keys_pressed":["rightarrow","leftarrow","leftarrow","leftarrow","rightarrow"],"horizon":5,"forced_choices":["rightarrow","leftarrow","leftarrow","leftarrow"],"right_color":"orange","left_color":"lightblue","left_mu":60,"right_mu":80,"left_numbers":[71,60,69,58,75],"right_numbers":[90,81,74,74,92],"points_earned":369,"phase":"task","trial_type":"horizons-task","trial_index":50,"time_elapsed":2248030,"internal_node_id":"0.0-46.0","task_version":"0.2"},{"view_history":"[{\"page_index\":0,\"viewing_time\":1552.745000001043},{\"page_index\":1,\"viewing_time\":2249.7099999962375}]","rt":3803.189999999013,"trial_type":"instructions","trial_index":51,"time_elapsed":2251834,"internal_node_id":"0.0-47.0","task_version":"0.2"},{"response_times":[999.9050000039861,423.519999996759,520.7850000006147,368.0699999970384,1501.9200000022538,396.8950000051409,671.8849999960512,450.1249999953434,143.30499999783933,838.3850000025705],"keys_pressed":["rightarrow","leftarrow","rightarrow","leftarrow","rightarrow","leftarrow","rightarrow","rightarrow","rightarrow","leftarrow"],"horizon":10,"forced_choices":["rightarrow","leftarrow","rightarrow","leftarrow"],"right_color":"orange","left_color":"lightblue","left_mu":40,"right_mu":44,"left_numbers":[36,53,38,31,40,41,36,35,44,31],"right_numbers":[45,32,49,44,50,38,50,26,46,45],"points_earned":422,"phase":"task","trial_type":"horizons-task","trial_index":52,"time_elapsed":2259662,"internal_node_id":"0.0-48.0","task_version":"0.2"},{"response_times":[705.4599999976344,336.7900000009686,345.3299999963492,390.47500000009313,1459.6399999936111,796.5100000002421,1053.410000000149,499.43000000342727,158.60500000417233,131.95999999856576],"keys_pressed":["rightarrow","leftarrow","rightarrow","leftarrow","leftarrow","leftarrow","rightarrow","leftarrow","leftarrow","leftarrow"],"horizon":10,"forced_choices":["rightarrow","leftarrow","rightarrow","leftarrow"],"right_color":"orange","left_color":"lightblue","left_mu":60,"right_mu":48,"left_numbers":[44,70,56,54,62,57,66,65,68,57],"right_numbers":[50,68,49,44,54,47,46,61,48,49],"points_earned":578,"phase":"task","trial_type":"horizons-task","trial_index":53,"time_elapsed":2267044,"internal_node_id":"0.0-49.0","task_version":"0.2"},{"response_times":[645.539999997709,359.72999999672174,416.8700000005774,369.9400000041351,1340.2250000000931,129.44000000413507,712.0649999994785,142.9449999993667,134.07500000158325,112.78000000305474],"keys_pressed":["leftarrow","leftarrow","leftarrow","rightarrow","leftarrow","rightarrow","leftarrow","leftarrow","leftarrow","leftarrow"],"horizon":10,"forced_choices":["leftarrow","leftarrow","leftarrow","rightarrow"],"right_color":"lightblue","left_color":"orange","left_mu":60,"right_mu":52,"left_numbers":[57,64,52,64,64,59,59,73,63,44],"right_numbers":[55,48,53,54,55,46,44,56,54,63],"points_earned":576,"phase":"task","trial_type":"horizons-task","trial_index":54,"time_elapsed":2272910,"internal_node_id":"0.0-50.0","task_version":"0.2"},{"response_times":[732.8899999991991,490.61000000080094,577.9000000036322,1331.9649999975227,2231.0149999973364],"keys_pressed":["rightarrow","leftarrow","leftarrow","rightarrow","rightarrow"],"horizon":5,"forced_choices":["rightarrow","leftarrow","leftarrow","rightarrow"],"right_color":"lightblue","left_color":"orange","left_mu":60,"right_mu":64,"left_numbers":[60,51,65,65,50],"right_numbers":[61,73,56,63,59],"points_earned":299,"phase":"task","trial_type":"horizons-task","trial_index":55,"time_elapsed":2279779,"internal_node_id":"0.0-51.0","task_version":"0.2"},{"response_times":[663.8849999941885,337.0449999999255,369.3150000036694,395.68500000284985,1389.1150000053458],"keys_pressed":["rightarrow","leftarrow","leftarrow","leftarrow","leftarrow"],"horizon":5,"forced_choices":["rightarrow","leftarrow","leftarrow","leftarrow"],"right_color":"orange","left_color":"lightblue","left_mu":60,"right_mu":56,"left_numbers":[58,61,55,61,63],"right_numbers":[56,62,48,39,57],"points_earned":296,"phase":"task","trial_type":"horizons-task","trial_index":56,"time_elapsed":2284441,"internal_node_id":"0.0-52.0","task_version":"0.2"},{"response_times":[959.7199999988079,354.0549999959767,360.53499999968335,844.8300000019372,762.320000001695],"keys_pressed":["leftarrow","leftarrow","leftarrow","rightarrow","leftarrow"],"horizon":5,"forced_choices":["leftarrow","leftarrow","leftarrow","rightarrow"],"right_color":"lightblue","left_color":"orange","left_mu":40,"right_mu":28,"left_numbers":[30,55,37,32,40],"right_numbers":[32,31,24,29,39],"points_earned":191,"phase":"task","trial_type":"horizons-task","trial_index":57,"time_elapsed":2289226,"internal_node_id":"0.0-53.0","task_version":"0.2"},{"response_times":[648.0149999987334,357.0449999971315,374.9000000022352,358.6250000009313,1767.3849999993108],"keys_pressed":["leftarrow","leftarrow","leftarrow","rightarrow","leftarrow"],"horizon":5,"forced_choices":["leftarrow","leftarrow","leftarrow","rightarrow"],"right_color":"lightblue","left_color":"orange","left_mu":60,"right_mu":52,"left_numbers":[56,58,48,69,51],"right_numbers":[43,49,58,62,59],"points_earned":275,"phase":"task","trial_type":"horizons-task","trial_index":58,"time_elapsed":2294235,"internal_node_id":"0.0-54.0","task_version":"0.2"},{"response_times":[704.8050000015646,409.6750000026077,640.0950000025332,1039.9350000005215,5046.910000004806],"keys_pressed":["rightarrow","leftarrow","rightarrow","leftarrow","rightarrow"],"horizon":5,"forced_choices":["rightarrow","leftarrow","rightarrow","leftarrow"],"right_color":"orange","left_color":"lightblue","left_mu":40,"right_mu":44,"left_numbers":[40,30,30,32,27],"right_numbers":[28,52,44,44,65],"points_earned":199,"phase":"task","trial_type":"horizons-task","trial_index":59,"time_elapsed":2303581,"internal_node_id":"0.0-55.0","task_version":"0.2"},{"response_times":[788.3450000006706,362.8600000012666,355.9550000061281,564.2000000006519,965.680000001099],"keys_pressed":["rightarrow","rightarrow","leftarrow","rightarrow","rightarrow"],"horizon":5,"forced_choices":["rightarrow","rightarrow","leftarrow","rightarrow"],"right_color":"orange","left_color":"lightblue","left_mu":40,"right_mu":60,"left_numbers":[37,36,43,42,31],"right_numbers":[38,58,49,61,55],"points_earned":255,"phase":"task","trial_type":"horizons-task","trial_index":60,"time_elapsed":2308122,"internal_node_id":"0.0-56.0","task_version":"0.2"},{"response_times":[679.9099999992177,341.675000003539,534.9700000006706,609.9849999956787,1460.9750000019558,502.8549999985844,958.9500000001863,609.1150000067428,148.63999999966472,133.06500000227243],"keys_pressed":["leftarrow","rightarrow","rightarrow","rightarrow","leftarrow","rightarrow","leftarrow","leftarrow","leftarrow","leftarrow"],"horizon":10,"forced_choices":["leftarrow","rightarrow","rightarrow","rightarrow"],"right_color":"orange","left_color":"lightblue","left_mu":60,"right_mu":48,"left_numbers":[68,69,68,56,43,56,62,46,52,57],"right_numbers":[46,54,49,43,50,41,44,47,51,50],"points_earned":515,"phase":"task","trial_type":"horizons-task","trial_index":61,"time_elapsed":2315605,"internal_node_id":"0.0-57.0","task_version":"0.2"},{"response_times":[660.8350000027567,354.99499999405816,572.6549999960698,480.39000000432134,1572.980000004638,111.16000000014901,869.9150000028312,171.0899999961257,137.83500000135973,137.00499999709427],"keys_pressed":["rightarrow","leftarrow","leftarrow","leftarrow","rightarrow","leftarrow","rightarrow","rightarrow","rightarrow","rightarrow"],"horizon":10,"forced_choices":["rightarrow","leftarrow","leftarrow","leftarrow"],"right_color":"lightblue","left_color":"orange","left_mu":40,"right_mu":48,"left_numbers":[40,39,48,32,39,39,33,27,44,53],"right_numbers":[51,44,51,51,52,52,34,51,58,40],"points_earned":444,"phase":"task","trial_type":"horizons-task","trial_index":62,"time_elapsed":2322181,"internal_node_id":"0.0-58.0","task_version":"0.2"},{"response_times":[694.3099999991246,275.464999998454,382.0500000002794,356.0300000025891,1174.2750000050291,793.4999999995343,918.2099999962375,1074.605000001844,143.83000000054017,136.09500000160187],"keys_pressed":["leftarrow","rightarrow","rightarrow","leftarrow","rightarrow","rightarrow","rightarrow","rightarrow","rightarrow","rightarrow"],"horizon":10,"forced_choices":["leftarrow","rightarrow","rightarrow","leftarrow"],"right_color":"orange","left_color":"lightblue","left_mu":60,"right_mu":68,"left_numbers":[51,58,56,52,63,55,57,49,49,56],"right_numbers":[60,68,69,71,69,70,65,72,63,62],"points_earned":641,"phase":"task","trial_type":"horizons-task","trial_index":63,"time_elapsed":2329637,"internal_node_id":"0.0-59.0","task_version":"0.2"},{"response_times":[705.3149999994785,350.78000000072643,395.01500000152737,517.8900000029244,1438.3549999981187,407.7500000060536,1989.7199999978766,489.9049999951385,391.64000000152737,429.31000000657514],"keys_pressed":["leftarrow","rightarrow","leftarrow","rightarrow","rightarrow","rightarrow","rightarrow","rightarrow","rightarrow","rightarrow"],"horizon":10,"forced_choices":["leftarrow","rightarrow","leftarrow","rightarrow"],"right_color":"orange","left_color":"lightblue","left_mu":40,"right_mu":70,"left_numbers":[48,39,39,35,38,28,53,31,30,46],"right_numbers":[63,70,73,69,58,49,79,77,88,68],"points_earned":645,"phase":"task","trial_type":"horizons-task","trial_index":64,"time_elapsed":2338256,"internal_node_id":"0.0-60.0","task_version":"0.2"},{"response_times":[815.0200000018813,344.32999999960884,341.45000000018626,329.49999999953434,9128.839999997523],"keys_pressed":["rightarrow","rightarrow","leftarrow","rightarrow","rightarrow"],"horizon":5,"forced_choices":["rightarrow","rightarrow","leftarrow","rightarrow"],"right_color":"orange","left_color":"lightblue","left_mu":40,"right_mu":44,"left_numbers":[30,34,36,20,53],"right_numbers":[39,45,32,46,42],"points_earned":208,"phase":"task","trial_type":"horizons-task","trial_index":65,"time_elapsed":2350721,"internal_node_id":"0.0-61.0","task_version":"0.2"},{"response_times":[652.7649999987334,312.96999999927357,377.61999999918044,321.16500000143424,766.8450000053272],"keys_pressed":["rightarrow","rightarrow","rightarrow","leftarrow","rightarrow"],"horizon":5,"forced_choices":["rightarrow","rightarrow","rightarrow","leftarrow"],"right_color":"lightblue","left_color":"orange","left_mu":40,"right_mu":32,"left_numbers":[40,54,41,39,40],"right_numbers":[36,31,34,26,41],"points_earned":181,"phase":"task","trial_type":"horizons-task","trial_index":66,"time_elapsed":2354656,"internal_node_id":"0.0-62.0","task_version":"0.2"},{"response_times":[562.7449999959208,251.39000000525266,285.49000000208616,352.89000000199303,1392.9850000059232,217.00499999849126,731.9400000050664,166.6849999963306,142.0250000008382,132.08500000461936],"keys_pressed":["rightarrow","rightarrow","leftarrow","rightarrow","rightarrow","leftarrow","rightarrow","rightarrow","rightarrow","rightarrow"],"horizon":10,"forced_choices":["rightarrow","rightarrow","leftarrow","rightarrow"],"right_color":"orange","left_color":"lightblue","left_mu":40,"right_mu":60,"left_numbers":[35,45,37,47,28,41,45,32,44,40],"right_numbers":[71,61,74,56,49,73,57,55,67,55],"points_earned":549,"phase":"task","trial_type":"horizons-task","trial_index":67,"time_elapsed":2360396,"internal_node_id":"0.0-63.0","task_version":"0.2"},{"response_times":[4768.360000001732,374.62500000419095,330.9449999942444,893.9899999969639,1109.9199999952689],"keys_pressed":["rightarrow","leftarrow","rightarrow","rightarrow","leftarrow"],"horizon":5,"forced_choices":["rightarrow","leftarrow","rightarrow","rightarrow"],"right_color":"lightblue","left_color":"orange","left_mu":40,"right_mu":36,"left_numbers":[40,52,41,44,45],"right_numbers":[34,47,34,40,36],"points_earned":205,"phase":"task","trial_type":"horizons-task","trial_index":68,"time_elapsed":2369377,"internal_node_id":"0.0-64.0","task_version":"0.2"},{"response_times":[3777.044999995269,340.4900000025518,289.84000000497326,453.0799999991432,2081.024999999441,29.240000003483146,1534.3649999992922,141.12500000186265,151.80500000109896,136.91999999713153],"keys_pressed":["leftarrow","leftarrow","rightarrow","rightarrow","leftarrow","rightarrow","leftarrow","leftarrow","leftarrow","leftarrow"],"horizon":10,"forced_choices":["leftarrow","leftarrow","rightarrow","rightarrow"],"right_color":"lightblue","left_color":"orange","left_mu":40,"right_mu":52,"left_numbers":[41,58,43,46,53,37,52,50,50,21],"right_numbers":[52,52,45,39,48,45,51,63,51,39],"points_earned":454,"phase":"task","trial_type":"horizons-task","trial_index":69,"time_elapsed":2379820,"internal_node_id":"0.0-65.0","task_version":"0.2"},{"response_times":[3994.4099999992177,421.3000000016764,409.5550000057556,627.7899999986403,1220.5850000027567],"keys_pressed":["leftarrow","rightarrow","leftarrow","rightarrow","leftarrow"],"horizon":5,"forced_choices":["leftarrow","rightarrow","leftarrow","rightarrow"],"right_color":"lightblue","left_color":"orange","left_mu":60,"right_mu":52,"left_numbers":[56,62,59,49,52],"right_numbers":[65,54,63,43,49],"points_earned":264,"phase":"task","trial_type":"horizons-task","trial_index":70,"time_elapsed":2388002,"internal_node_id":"0.0-66.0","task_version":"0.2"},{"response_times":[1081.4350000000559,440.71999999834225,375.2000000020489,393.56499999854714,2119.3500000010245,43.45499999914318,734.9650000035763,129.11000000173226,128.7000000011176,196.09499999927357],"keys_pressed":["leftarrow","leftarrow","rightarrow","leftarrow","leftarrow","rightarrow","leftarrow","leftarrow","leftarrow","leftarrow"],"horizon":10,"forced_choices":["leftarrow","leftarrow","rightarrow","leftarrow"],"right_color":"orange","left_color":"lightblue","left_mu":40,"right_mu":10,"left_numbers":[42,45,26,41,46,32,39,43,32,47],"right_numbers":[6,15,13,0,24,15,3,8,1,0],"points_earned":363,"phase":"task","trial_type":"horizons-task","trial_index":71,"time_elapsed":2395149,"internal_node_id":"0.0-67.0","task_version":"0.2"},{"response_times":[709.1349999974482,287.519999998156,311.80999999912456,487.62999999616295,1483.6500000017695,39.70500000286847,968.0749999969266,162.644999996759,150.02999999700114,116.15000000176951],"keys_pressed":["rightarrow","leftarrow","rightarrow","leftarrow","leftarrow","rightarrow","leftarrow","leftarrow","leftarrow","leftarrow"],"horizon":10,"forced_choices":["rightarrow","leftarrow","rightarrow","leftarrow"],"right_color":"lightblue","left_color":"orange","left_mu":40,"right_mu":28,"left_numbers":[51,45,45,48,38,31,41,46,28,33],"right_numbers":[35,25,30,31,22,36,38,28,23,32],"points_earned":380,"phase":"task","trial_type":"horizons-task","trial_index":72,"time_elapsed":2401368,"internal_node_id":"0.0-68.0","task_version":"0.2"},{"response_times":[715.390000004787,326.8600000012666,403.85999999847263,924.644999999553,1389.8649999974295],"keys_pressed":["leftarrow","rightarrow","leftarrow","rightarrow","leftarrow"],"horizon":5,"forced_choices":["leftarrow","rightarrow","leftarrow","rightarrow"],"right_color":"orange","left_color":"lightblue","left_mu":60,"right_mu":40,"left_numbers":[59,58,44,63,55],"right_numbers":[45,42,44,30,46],"points_earned":230,"phase":"task","trial_type":"horizons-task","trial_index":73,"time_elapsed":2406633,"internal_node_id":"0.0-69.0","task_version":"0.2"},{"response_times":[625.9399999980815,358.15000000037253,343.93000000249594,1114.9149999981746,1183.9399999952875],"keys_pressed":["leftarrow","leftarrow","rightarrow","leftarrow","leftarrow"],"horizon":5,"forced_choices":["leftarrow","leftarrow","rightarrow","leftarrow"],"right_color":"lightblue","left_color":"orange","left_mu":60,"right_mu":64,"left_numbers":[56,66,71,62,52],"right_numbers":[68,49,63,52,54],"points_earned":299,"phase":"task","trial_type":"horizons-task","trial_index":74,"time_elapsed":2411762,"internal_node_id":"0.0-70.0","task_version":"0.2"},{"response_times":[705.999999998603,284.0050000012852,344.21999999927357,370.1149999983609,3325.8200000054203,61.01000000536442,965.9749999991618,144.74999999953434,493.90999999735504,134.96000000322238],"keys_pressed":["rightarrow","leftarrow","leftarrow","rightarrow","rightarrow","leftarrow","leftarrow","leftarrow","leftarrow","leftarrow"],"horizon":10,"forced_choices":["rightarrow","leftarrow","leftarrow","rightarrow"],"right_color":"lightblue","left_color":"orange","left_mu":60,"right_mu":64,"left_numbers":[43,51,63,53,64,61,68,54,48,63],"right_numbers":[60,74,55,61,53,77,70,58,45,65],"points_earned":582,"phase":"task","trial_type":"horizons-task","trial_index":75,"time_elapsed":2420099,"internal_node_id":"0.0-71.0","task_version":"0.2"},{"response_times":[609.6899999971502,289.375,341.1599999964237,405.82499999459833,2088.939999994356,949.8600000008009,554.8650000053458,408.1549999974668,177.84500000532717,153.01999999815598],"keys_pressed":["rightarrow","leftarrow","leftarrow","rightarrow","leftarrow","leftarrow","rightarrow","leftarrow","leftarrow","leftarrow"],"horizon":10,"forced_choices":["rightarrow","leftarrow","leftarrow","rightarrow"],"right_color":"lightblue","left_color":"orange","left_mu":40,"right_mu":20,"left_numbers":[33,31,38,47,38,36,47,46,58,46],"right_numbers":[24,21,34,14,12,27,11,17,24,19],"points_earned":342,"phase":"task","trial_type":"horizons-task","trial_index":76,"time_elapsed":2427582,"internal_node_id":"0.0-72.0","task_version":"0.2"},{"response_times":[596.9999999944121,282.15999999502674,247.95499999914318,689.1699999975972,1978.0050000045449,19.915000004693866,947.4849999970756,735.2600000011735,185.70000000158325,234.65000000596046],"keys_pressed":["leftarrow","leftarrow","rightarrow","rightarrow","rightarrow","leftarrow","rightarrow","leftarrow","rightarrow","rightarrow"],"horizon":10,"forced_choices":["leftarrow","leftarrow","rightarrow","rightarrow"],"right_color":"lightblue","left_color":"orange","left_mu":40,"right_mu":48,"left_numbers":[27,44,50,52,34,32,34,34,41,33],"right_numbers":[38,36,40,40,38,51,41,40,39,54],"points_earned":389,"phase":"task","trial_type":"horizons-task","trial_index":77,"time_elapsed":2435006,"internal_node_id":"0.0-73.0","task_version":"0.2"},{"response_times":[565.0399999939837,361.86999999312684,359.98999999742955,654.4799999971874,1089.3299999949522],"keys_pressed":["rightarrow","leftarrow","leftarrow","leftarrow","leftarrow"],"horizon":5,"forced_choices":["rightarrow","leftarrow","leftarrow","leftarrow"],"right_color":"lightblue","left_color":"orange","left_mu":40,"right_mu":48,"left_numbers":[32,48,38,34,29],"right_numbers":[44,47,41,44,41],"points_earned":193,"phase":"task","trial_type":"horizons-task","trial_index":78,"time_elapsed":2439539,"internal_node_id":"0.0-74.0","task_version":"0.2"},{"response_times":[734.1900000032037,543.5450000003912,474.8850000035018,544.0850000013597,3191.275000005029,24.519999998621643,812.0200000051409,146.9550000037998,136.96999999927357,91.8950000051409],"keys_pressed":["rightarrow","rightarrow","rightarrow","leftarrow","leftarrow","rightarrow","leftarrow","leftarrow","leftarrow","leftarrow"],"horizon":10,"forced_choices":["rightarrow","rightarrow","rightarrow","leftarrow"],"right_color":"lightblue","left_color":"orange","left_mu":40,"right_mu":20,"left_numbers":[43,37,39,28,33,36,41,27,47,38],"right_numbers":[25,25,18,14,8,26,29,22,11,16],"points_earned":308,"phase":"task","trial_type":"horizons-task","trial_index":79,"time_elapsed":2447748,"internal_node_id":"0.0-75.0","task_version":"0.2"},{"response_times":[702.6399999959394,335.73500000080094,304.9199999948032,480.0800000010058,1173.9149999995716],"keys_pressed":["rightarrow","rightarrow","leftarrow","leftarrow","rightarrow"],"horizon":5,"forced_choices":["rightarrow","rightarrow","leftarrow","leftarrow"],"right_color":"lightblue","left_color":"orange","left_mu":60,"right_mu":72,"left_numbers":[59,51,65,62,59],"right_numbers":[82,73,66,78,71],"points_earned":353,"phase":"task","trial_type":"horizons-task","trial_index":80,"time_elapsed":2452249,"internal_node_id":"0.0-76.0","task_version":"0.2"},{"response_times":[612.2949999989942,337.83000000426546,332.7399999978952,352.2299999971874,1666.980000001844,740.5800000051968,674.0500000012107,1564.8849999997765,125.91000000247732,116.92500000214204],"keys_pressed":["leftarrow","rightarrow","leftarrow","rightarrow","leftarrow","leftarrow","leftarrow","leftarrow","leftarrow","leftarrow"],"horizon":10,"forced_choices":["leftarrow","rightarrow","leftarrow","rightarrow"],"right_color":"orange","left_color":"lightblue","left_mu":60,"right_mu":40,"left_numbers":[57,76,62,62,76,67,47,55,66,61],"right_numbers":[25,44,40,15,34,35,38,35,34,46],"points_earned":550,"phase":"task","trial_type":"horizons-task","trial_index":81,"time_elapsed":2460281,"internal_node_id":"0.0-77.0","task_version":"0.2"},{"response_times":[688.4499999941327,623.7200000034645,858.4499999997206,722.8649999960326,635.8849999960512,428.9349999963306,390.0149999973364,157.97500000195578,134.7500000046566,150.09499999694526],"keys_pressed":["rightarrow","rightarrow","leftarrow","leftarrow","rightarrow","leftarrow","rightarrow","rightarrow","rightarrow","rightarrow"],"horizon":10,"forced_choices":["rightarrow","rightarrow","leftarrow","leftarrow"],"right_color":"lightblue","left_color":"orange","left_mu":60,"right_mu":72,"left_numbers":[54,65,66,67,39,48,54,60,67,74],"right_numbers":[75,79,60,65,75,57,72,77,69,75],"points_earned":703,"phase":"task","trial_type":"horizons-task","trial_index":82,"time_elapsed":2466580,"internal_node_id":"0.0-78.0","task_version":"0.2"},{"response_times":[490.5250000008382,617.9249999984168,377.08499999996275,856.120000003837,973.8450000006706],"keys_pressed":["leftarrow","leftarrow","rightarrow","rightarrow","leftarrow"],"horizon":5,"forced_choices":["leftarrow","leftarrow","rightarrow","rightarrow"],"right_color":"lightblue","left_color":"orange","left_mu":60,"right_mu":30,"left_numbers":[55,71,61,58,51],"right_numbers":[32,33,29,28,21],"points_earned":234,"phase":"task","trial_type":"horizons-task","trial_index":83,"time_elapsed":2471402,"internal_node_id":"0.0-79.0","task_version":"0.2"},{"response_times":[603.8349999943748,262.5950000002049,319.06999999750406,796.8899999978021,1351.4399999985471],"keys_pressed":["leftarrow","leftarrow","rightarrow","rightarrow","rightarrow"],"horizon":5,"forced_choices":["leftarrow","leftarrow","rightarrow","rightarrow"],"right_color":"lightblue","left_color":"orange","left_mu":40,"right_mu":48,"left_numbers":[42,36,32,48,45],"right_numbers":[54,64,55,53,40],"points_earned":226,"phase":"task","trial_type":"horizons-task","trial_index":84,"time_elapsed":2476239,"internal_node_id":"0.0-80.0","task_version":"0.2"},{"response_times":[644.1599999964237,280.1249999976717,352.81500000553206,393.0600000023842,1666.4249999956228,341.20999999856576,405.9150000028312,230.06000000145286,134.9249999988824,127.97499999590218],"keys_pressed":["leftarrow","rightarrow","leftarrow","leftarrow","rightarrow","leftarrow","rightarrow","rightarrow","rightarrow","rightarrow"],"horizon":10,"forced_choices":["leftarrow","rightarrow","leftarrow","leftarrow"],"right_color":"orange","left_color":"lightblue","left_mu":40,"right_mu":70,"left_numbers":[37,39,43,29,49,14,41,38,32,40],"right_numbers":[69,62,89,69,71,65,60,76,63,69],"points_earned":524,"phase":"task","trial_type":"horizons-task","trial_index":85,"time_elapsed":2482319,"internal_node_id":"0.0-81.0","task_version":"0.2"},{"response_times":[530.2400000002235,370.9850000012666,319.0250000040978,394.8949999976903,2006.9300000029616,284.6900000004098,613.8399999979883,599.1199999987148,307.76999999955297,313.15000000130385],"keys_pressed":["rightarrow","rightarrow","leftarrow","leftarrow","leftarrow","rightarrow","rightarrow","leftarrow","rightarrow","rightarrow"],"horizon":10,"forced_choices":["rightarrow","rightarrow","leftarrow","leftarrow"],"right_color":"orange","left_color":"lightblue","left_mu":60,"right_mu":56,"left_numbers":[70,55,59,59,54,65,61,53,70,60],"right_numbers":[46,43,40,55,67,63,56,64,52,57],"points_earned":542,"phase":"task","trial_type":"horizons-task","trial_index":86,"time_elapsed":2489567,"internal_node_id":"0.0-82.0","task_version":"0.2"},{"response_times":[569.835000002291,297.8849999997765,323.1300000040792,295.7600000007078,2418.1600000010803,627.4600000032224,222.94500000122935,182.30500000203028,153.77499999897555,289.8900000001304],"keys_pressed":["leftarrow","rightarrow","rightarrow","leftarrow","leftarrow","leftarrow","leftarrow","leftarrow","leftarrow","leftarrow"],"horizon":10,"forced_choices":["leftarrow","rightarrow","rightarrow","leftarrow"],"right_color":"orange","left_color":"lightblue","left_mu":40,"right_mu":10,"left_numbers":[32,40,29,28,34,40,28,32,37,32],"right_numbers":[23,11,6,1,7,5,8,4,0,13],"points_earned":280,"phase":"task","trial_type":"horizons-task","trial_index":87,"time_elapsed":2496455,"internal_node_id":"0.0-83.0","task_version":"0.2"},{"response_times":[591.6849999991246,353.60999999847263,321.5249999994412,741.4349999963306,1016.8099999940023],"keys_pressed":["leftarrow","leftarrow","rightarrow","leftarrow","leftarrow"],"horizon":5,"forced_choices":["leftarrow","leftarrow","rightarrow","leftarrow"],"right_color":"lightblue","left_color":"orange","left_mu":60,"right_mu":30,"left_numbers":[70,66,57,44,52],"right_numbers":[34,16,49,18,24],"points_earned":281,"phase":"task","trial_type":"horizons-task","trial_index":88,"time_elapsed":2500987,"internal_node_id":"0.0-84.0","task_version":"0.2"},{"response_times":[654.0899999961257,415.5799999930896,554.1549999979325,903.9499999997206,1199.9749999959022],"keys_pressed":["leftarrow","rightarrow","rightarrow","rightarrow","rightarrow"],"horizon":5,"forced_choices":["leftarrow","rightarrow","rightarrow","rightarrow"],"right_color":"orange","left_color":"lightblue","left_mu":60,"right_mu":48,"left_numbers":[62,56,55,60,54],"right_numbers":[36,52,45,46,47],"points_earned":252,"phase":"task","trial_type":"horizons-task","trial_index":89,"time_elapsed":2506219,"internal_node_id":"0.0-85.0","task_version":"0.2"},{"response_times":[124.15499999793246,980.9200000017881,613.0150000024587,679.9699999974109,706.934999994468],"keys_pressed":["rightarrow","rightarrow","rightarrow","leftarrow","rightarrow"],"horizon":5,"forced_choices":["rightarrow","rightarrow","rightarrow","leftarrow"],"right_color":"lightblue","left_color":"orange","left_mu":40,"right_mu":20,"left_numbers":[45,35,48,26,36],"right_numbers":[30,24,13,23,27],"points_earned":120,"phase":"task","trial_type":"horizons-task","trial_index":90,"time_elapsed":2510827,"internal_node_id":"0.0-86.0","task_version":"0.2"},{"response_times":[606.8850000007078,338.97000000439584,352.4000000031665,695.359999998007,2109.179999999702],"keys_pressed":["leftarrow","rightarrow","rightarrow","leftarrow","rightarrow"],"horizon":5,"forced_choices":["leftarrow","rightarrow","rightarrow","leftarrow"],"right_color":"orange","left_color":"lightblue","left_mu":60,"right_mu":68,"left_numbers":[66,61,49,60,63],"right_numbers":[61,66,67,56,70],"points_earned":329,"phase":"task","trial_type":"horizons-task","trial_index":91,"time_elapsed":2516437,"internal_node_id":"0.0-87.0","task_version":"0.2"},{"rt":10140.464999997057,"responses":{"age":"19","gender-categorical":"Male","gender-free-response":"","ethnicity":"Not Hispanic or Latino","race":["White"],"language":"Yes","fluency":"Very well"},"survey":"demographics","trial_type":"survey-demo","trial_index":92,"time_elapsed":2526582,"internal_node_id":"0.0-88.0","task_version":"0.2"},{"rt":12848.534999997355,"responses":{"difficulty":"4","fun":"4","clarity":"4","strategy":"n/a","feedback":"n/a"},"survey":"debrief","trial_type":"survey-debrief","trial_index":93,"time_elapsed":2539437,"internal_node_id":"0.0-89.0","task_version":"0.2","interactions":"[{\"event\":\"blur\",\"trial\":2,\"time\":71944},{\"event\":\"focus\",\"trial\":2,\"time\":1552291},{\"event\":\"blur\",\"trial\":2,\"time\":1553047},{\"event\":\"focus\",\"trial\":2,\"time\":1767802}]"}]