[{"view_history":"[{\"page_index\":0,\"viewing_time\":3484.6200000029057}]","rt":3486.5249999566004,"trial_type":"instructions","trial_index":0,"time_elapsed":3502,"internal_node_id":"0.0-0.0"},{"item_order":[0,1,4,10,9,3,2,7,5,6,11,12,8],"responses":{"Q01":"2","Q02":"3","Q05":"2","Q11":"3","Q10":"1","Q04":"3","Q03":"1","Q08":"3","Q06":"1","Q07":"2","Q12":"1","Q13":"4","Q09":"1"},"radio_events":[17955.784999998286,19855.484999949113,23655.334999901243,26871.074999915436,31093.25999999419,33880.63999998849,37921.074999962,42695.52999990992,44759.04499995522,48371.059999917634,51921.439999947324,55837.02499989886,59876.989999902435],"key_events":[],"mouse_events":[0.3899999428540468,17955.784999998286,19855.484999949113,23655.334999901243,26871.074999915436,31093.25999999419,33880.63999998849,37921.074999962,42695.52999990992,44759.04499995522,48371.059999917634,51921.439999947324,55837.02499989886,59876.989999902435,61117.70499998238],"rt":61127.58999993093,"survey":"ius12","trial_type":"survey-template","trial_index":1,"time_elapsed":64641,"internal_node_id":"0.0-1.0"},{"item_order":[1,15,8,2,16,14,5,6,9,13,12,0,11,3,10,7,4],"responses":{"Q02":"1","Q16":"3","Q09":"3","Q03":"2","Q17":"0","Q15":"1","Q06":"2","Q07":"1","Q10":"3","Q14":"2","Q13":"3","Q01":"4","Q12":"2","Q04":"1","Q11":"2","Q08":"3","Q05":"2"},"radio_events":[6775.920000043698,9641.99000003282,19117.91999998968,21742.170000099577,25379.450000007637,28329.710000078194,29826.235000044107,32100.00500001479,34131.96999998763,40407.60000003502,42136.10000000335,48405.785000068136,52141.95499999914,53381.69499998912,59493.815000052564,61275.95999999903,64392.445000004955],"key_events":[],"mouse_events":[6775.920000043698,9641.99000003282,19117.91999998968,21742.170000099577,25379.450000007637,28329.710000078194,29826.235000044107,32100.00500001479,34131.96999998763,40407.60000003502,42136.10000000335,48405.785000068136,52141.95499999914,53381.69499998912,59493.815000052564,61275.95999999903,64392.445000004955,65458.00500002224],"rt":65464.2500000773,"survey":"pswq","trial_type":"survey-template","trial_index":2,"time_elapsed":130115,"internal_node_id":"0.0-2.0"},{"view_history":"[{\"page_index\":0,\"viewing_time\":4922.054999973625},{\"page_index\":1,\"viewing_time\":6578.510000021197},{\"page_index\":2,\"viewing_time\":10653.174999984913},{\"page_index\":3,\"viewing_time\":7498.709999956191},{\"page_index\":4,\"viewing_time\":6469.57499999553},{\"page_index\":5,\"viewing_time\":4212.61000004597},{\"page_index\":6,\"viewing_time\":7653.339999960735},{\"page_index\":7,\"viewing_time\":8604.29499996826},{\"page_index\":8,\"viewing_time\":7342.5800000550225},{\"page_index\":9,\"viewing_time\":7303.094999981113}]","rt":71238.37999999523,"trial_type":"instructions","trial_index":3,"time_elapsed":201356,"internal_node_id":"0.0-3.0-0.0"},{"response_times":[22898.259999928996,6111.024999991059,2529.5149999437854,1270.3450000844896,885.1449999492615],"keys_pressed":["rightarrow","leftarrow","rightarrow","rightarrow","rightarrow"],"horizon":5,"forced_choices":["rightarrow","leftarrow","rightarrow","rightarrow"],"right_color":"lightblue","left_color":"orange","left_mu":40,"right_mu":20,"left_numbers":[47,41,38,35,45],"right_numbers":[5,18,23,12,14],"points_earned":95,"trial_type":"horizons-task","trial_index":4,"time_elapsed":236573,"internal_node_id":"0.0-3.0-1.0"},{"response_times":[5203.6049999296665,895.3400000464171,2751.5950000379235,1406.3999999780208,2414.4400000805035,1489.5749998977408,1063.7499999720603,1525.5149999866262,4267.730000079609,1496.0000000428408],"keys_pressed":["leftarrow","leftarrow","rightarrow","rightarrow","rightarrow","rightarrow","leftarrow","leftarrow","rightarrow","rightarrow"],"horizon":10,"forced_choices":["leftarrow","leftarrow","rightarrow","rightarrow"],"right_color":"orange","left_color":"lightblue","left_mu":60,"right_mu":70,"left_numbers":[70,57,69,51,63,64,49,69,56,66],"right_numbers":[78,66,62,58,81,85,83,77,74,71],"points_earned":676,"trial_type":"horizons-task","trial_index":5,"time_elapsed":260592,"internal_node_id":"0.0-3.0-2.0"},{"view_history":"[{\"page_index\":0,\"viewing_time\":2592.3150000162423},{\"page_index\":1,\"viewing_time\":3969.4799999706447},{\"page_index\":2,\"viewing_time\":4444.965000031516},{\"page_index\":3,\"viewing_time\":2685.70000003092}]","rt":13692.904999945313,"trial_type":"instructions","trial_index":6,"time_elapsed":274287,"internal_node_id":"0.0-3.0-3.0"},{"responses":["true","false","false","true"],"num_errors":0,"rt":16447.309999959543,"trial_type":"horizons-comprehension","trial_index":7,"time_elapsed":290739,"internal_node_id":"0.0-3.0-4.0"},{"view_history":"[{\"page_index\":0,\"viewing_time\":2202.004999970086},{\"page_index\":1,\"viewing_time\":3745.58500002604}]","rt":5948.065000004135,"trial_type":"instructions","trial_index":8,"time_elapsed":296693,"internal_node_id":"0.0-4.0"},{"response_times":[3652.754999930039,2319.17999999132,2840.7950000837445,3334.514999995008,2079.685000004247],"keys_pressed":["rightarrow","rightarrow","rightarrow","leftarrow","leftarrow"],"horizon":5,"forced_choices":["rightarrow","rightarrow","rightarrow","leftarrow"],"right_color":"orange","left_color":"lightblue","left_mu":40,"right_mu":60,"left_numbers":[52,41,36,27,42],"right_numbers":[76,72,64,54,58],"points_earned":281,"trial_type":"horizons-task","trial_index":9,"time_elapsed":312434,"internal_node_id":"0.0-5.0"},{"response_times":[2171.7300000600517,1387.5349999871105,3046.3599999202415,1378.7950000260025,3178.7100000074133],"keys_pressed":["rightarrow","rightarrow","leftarrow","leftarrow","rightarrow"],"horizon":5,"forced_choices":["rightarrow","rightarrow","leftarrow","leftarrow"],"right_color":"lightblue","left_color":"orange","left_mu":40,"right_mu":70,"left_numbers":[50,39,38,48,31],"right_numbers":[68,72,75,87,74],"points_earned":300,"trial_type":"horizons-task","trial_index":10,"time_elapsed":325108,"internal_node_id":"0.0-6.0"},{"response_times":[1635.0050000473857,2010.965000023134,1721.1799999931827,2058.919999981299,3520.784999942407],"keys_pressed":["rightarrow","leftarrow","rightarrow","leftarrow","leftarrow"],"horizon":5,"forced_choices":["rightarrow","leftarrow","rightarrow","leftarrow"],"right_color":"lightblue","left_color":"orange","left_mu":60,"right_mu":64,"left_numbers":[51,69,58,66,60],"right_numbers":[64,63,67,76,61],"points_earned":326,"trial_type":"horizons-task","trial_index":11,"time_elapsed":337560,"internal_node_id":"0.0-7.0"},{"response_times":[2803.1600000103936,1920.4449999378994,2677.750000031665,3362.915000063367,3564.1949999844655,1889.4599999766797,1704.3599999742582,1662.6999999862164,1000.764999887906,1383.0399999860674],"keys_pressed":["leftarrow","leftarrow","rightarrow","rightarrow","leftarrow","leftarrow","leftarrow","leftarrow","leftarrow","leftarrow"],"horizon":10,"forced_choices":["leftarrow","leftarrow","rightarrow","rightarrow"],"right_color":"lightblue","left_color":"orange","left_mu":60,"right_mu":48,"left_numbers":[61,64,58,37,56,55,53,55,60,49],"right_numbers":[49,46,47,57,49,40,38,55,37,51],"points_earned":557,"trial_type":"horizons-task","trial_index":12,"time_elapsed":361032,"internal_node_id":"0.0-8.0"},{"response_times":[1596.7849999433383,1378.9300000062212,1394.4399999454618,2837.805000017397,2694.3350000074133,1422.1100000431761,1421.405000030063,1346.1949999909848,1262.114999932237,1032.3899999493733],"keys_pressed":["rightarrow","rightarrow","rightarrow","leftarrow","rightarrow","rightarrow","rightarrow","rightarrow","rightarrow","rightarrow"],"horizon":10,"forced_choices":["rightarrow","rightarrow","rightarrow","leftarrow"],"right_color":"lightblue","left_color":"orange","left_mu":60,"right_mu":52,"left_numbers":[67,50,59,58,49,60,61,62,60,49],"right_numbers":[45,58,39,42,56,42,44,53,51,49],"points_earned":495,"trial_type":"horizons-task","trial_index":13,"time_elapsed":378923,"internal_node_id":"0.0-9.0"},{"response_times":[1076.740000047721,1566.5149999549612,1326.0800000280142,1730.0500000128523,1762.944999965839],"keys_pressed":["rightarrow","rightarrow","rightarrow","leftarrow","rightarrow"],"horizon":5,"forced_choices":["rightarrow","rightarrow","rightarrow","leftarrow"],"right_color":"orange","left_color":"lightblue","left_mu":40,"right_mu":20,"left_numbers":[27,39,60,29,46],"right_numbers":[21,12,35,32,4],"points_earned":101,"trial_type":"horizons-task","trial_index":14,"time_elapsed":387906,"internal_node_id":"0.0-10.0"},{"response_times":[1955.03000007011,1593.8549999846146,1644.1800000611693,1574.9350000405684,2892.1649999683723,1054.880000068806,983.1150000682101,937.8400000277907,837.9799999529496,760.9699999447912],"keys_pressed":["rightarrow","leftarrow","leftarrow","rightarrow","rightarrow","rightarrow","rightarrow","rightarrow","rightarrow","rightarrow"],"horizon":10,"forced_choices":["rightarrow","leftarrow","leftarrow","rightarrow"],"right_color":"orange","left_color":"lightblue","left_mu":60,"right_mu":90,"left_numbers":[57,58,55,57,67,52,75,52,50,46],"right_numbers":[97,98,87,73,78,88,86,99,93,86],"points_earned":813,"trial_type":"horizons-task","trial_index":15,"time_elapsed":403646,"internal_node_id":"0.0-11.0"},{"response_times":[1068.985000019893,883.9499999303371,951.1599999386817,1344.645000062883,1343.2999999495223,1138.9050000580028,1139.930000063032,827.3899999912828,736.2849999917671,581.9650000194088],"keys_pressed":["rightarrow","rightarrow","rightarrow","leftarrow","rightarrow","rightarrow","rightarrow","rightarrow","rightarrow","rightarrow"],"horizon":10,"forced_choices":["rightarrow","rightarrow","rightarrow","leftarrow"],"right_color":"lightblue","left_color":"orange","left_mu":60,"right_mu":52,"left_numbers":[69,49,57,51,51,52,58,58,48,51],"right_numbers":[47,49,48,48,54,40,60,55,32,55],"points_earned":491,"trial_type":"horizons-task","trial_index":16,"time_elapsed":415168,"internal_node_id":"0.0-12.0"},{"response_times":[716.2350000580773,1386.7200000677258,1121.6749999439344,1645.9350000368431,1580.974999931641],"keys_pressed":["rightarrow","rightarrow","rightarrow","leftarrow","rightarrow"],"horizon":5,"forced_choices":["rightarrow","rightarrow","rightarrow","leftarrow"],"right_color":"orange","left_color":"lightblue","left_mu":40,"right_mu":52,"left_numbers":[34,37,34,34,49],"right_numbers":[45,54,44,48,59],"points_earned":236,"trial_type":"horizons-task","trial_index":17,"time_elapsed":423123,"internal_node_id":"0.0-13.0"},{"response_times":[829.8499999800697,695.8400000585243,2215.3149999212474,2081.540000042878,2970.270000048913],"keys_pressed":["rightarrow","rightarrow","leftarrow","rightarrow","rightarrow"],"horizon":5,"forced_choices":["rightarrow","rightarrow","leftarrow","rightarrow"],"right_color":"lightblue","left_color":"orange","left_mu":40,"right_mu":20,"left_numbers":[51,33,48,38,38],"right_numbers":[26,23,14,25,22],"points_earned":144,"trial_type":"horizons-task","trial_index":18,"time_elapsed":433438,"internal_node_id":"0.0-14.0"},{"response_times":[1310.3099999716505,1550.4499999806285,1333.2049999153242,1152.2849999601021,3357.2249999269843,881.664999993518,867.5049999728799,720.5300000496209,603.5400000400841,627.5849998928607],"keys_pressed":["leftarrow","rightarrow","rightarrow","leftarrow","leftarrow","leftarrow","leftarrow","leftarrow","leftarrow","leftarrow"],"horizon":10,"forced_choices":["leftarrow","rightarrow","rightarrow","leftarrow"],"right_color":"lightblue","left_color":"orange","left_mu":60,"right_mu":30,"left_numbers":[57,69,65,70,58,60,59,58,48,64],"right_numbers":[26,43,35,24,46,32,45,22,16,24],"points_earned":552,"trial_type":"horizons-task","trial_index":19,"time_elapsed":447348,"internal_node_id":"0.0-15.0"},{"response_times":[1199.6349999681115,1027.3550000274554,1128.9900001138449,894.8899999959394,1140.430000028573],"keys_pressed":["leftarrow","leftarrow","rightarrow","leftarrow","leftarrow"],"horizon":5,"forced_choices":["leftarrow","leftarrow","rightarrow","leftarrow"],"right_color":"lightblue","left_color":"orange","left_mu":60,"right_mu":40,"left_numbers":[64,55,57,56,55],"right_numbers":[35,38,44,50,35],"points_earned":274,"trial_type":"horizons-task","trial_index":20,"time_elapsed":454243,"internal_node_id":"0.0-16.0"},{"response_times":[1319.8300000512972,980.5249999044463,944.0750000067055,1199.6599999256432,2387.2050000354648,592.839999939315,502.0500000100583,465.10499995201826,521.3699999731034,643.5700000729412],"keys_pressed":["leftarrow","rightarrow","rightarrow","rightarrow","rightarrow","rightarrow","rightarrow","rightarrow","rightarrow","rightarrow"],"horizon":10,"forced_choices":["leftarrow","rightarrow","rightarrow","rightarrow"],"right_color":"orange","left_color":"lightblue","left_mu":40,"right_mu":48,"left_numbers":[51,44,43,48,30,58,29,34,40,45],"right_numbers":[45,51,40,45,59,51,56,50,36,33],"points_earned":472,"trial_type":"horizons-task","trial_index":21,"time_elapsed":465304,"internal_node_id":"0.0-17.0"},{"response_times":[656.0649999883026,1006.5000000176951,717.1799999196082,1077.3699999554083,4493.849999969825,612.2299999697134,438.3649999508634,419.72000000532717,411.82499995920807,431.79499998223037],"keys_pressed":["rightarrow","leftarrow","rightarrow","leftarrow","rightarrow","rightarrow","rightarrow","rightarrow","rightarrow","rightarrow"],"horizon":10,"forced_choices":["rightarrow","leftarrow","rightarrow","leftarrow"],"right_color":"lightblue","left_color":"orange","left_mu":40,"right_mu":48,"left_numbers":[46,40,50,55,23,41,49,58,40,55],"right_numbers":[56,42,48,52,47,51,42,42,49,49],"points_earned":479,"trial_type":"horizons-task","trial_index":22,"time_elapsed":477075,"internal_node_id":"0.0-18.0"},{"response_times":[2098.3249999117106,908.350000041537,773.9199999487028,1680.6949999881908,1367.0250000432134],"keys_pressed":["leftarrow","rightarrow","leftarrow","leftarrow","leftarrow"],"horizon":5,"forced_choices":["leftarrow","rightarrow","leftarrow","leftarrow"],"right_color":"orange","left_color":"lightblue","left_mu":60,"right_mu":90,"left_numbers":[65,75,59,66,55],"right_numbers":[70,82,79,93,108],"points_earned":327,"trial_type":"horizons-task","trial_index":23,"time_elapsed":485407,"internal_node_id":"0.0-19.0"},{"response_times":[1212.5199999427423,794.9050000170246,818.2700000470504,934.1449999483302,2456.4650000538677],"keys_pressed":["rightarrow","leftarrow","leftarrow","rightarrow","rightarrow"],"horizon":5,"forced_choices":["rightarrow","leftarrow","leftarrow","rightarrow"],"right_color":"orange","left_color":"lightblue","left_mu":40,"right_mu":60,"left_numbers":[34,37,41,54,35],"right_numbers":[65,59,52,57,64],"points_earned":264,"trial_type":"horizons-task","trial_index":24,"time_elapsed":493129,"internal_node_id":"0.0-20.0"},{"response_times":[769.5499999681488,826.230000006035,803.150000050664,796.2899999693036,2029.2200000258163,599.5449998881668,461.64499991573393,447.9349999455735,485.3199999779463,521.32000005804],"keys_pressed":["rightarrow","rightarrow","leftarrow","leftarrow","rightarrow","rightarrow","rightarrow","rightarrow","rightarrow","rightarrow"],"horizon":10,"forced_choices":["rightarrow","rightarrow","leftarrow","leftarrow"],"right_color":"orange","left_color":"lightblue","left_mu":60,"right_mu":80,"left_numbers":[58,72,66,49,50,64,55,60,68,57],"right_numbers":[75,77,76,87,74,83,82,74,94,78],"points_earned":752,"trial_type":"horizons-task","trial_index":25,"time_elapsed":502373,"internal_node_id":"0.0-21.0"},{"response_times":[742.4650000175461,761.2249999074265,786.0149999614805,609.6299999626353,1776.3349999440834,454.0300000226125,353.5300000803545,301.3200000859797,358.5949999978766,1007.344999932684],"keys_pressed":["rightarrow","leftarrow","leftarrow","leftarrow","leftarrow","leftarrow","leftarrow","leftarrow","leftarrow","leftarrow"],"horizon":10,"forced_choices":["rightarrow","leftarrow","leftarrow","leftarrow"],"right_color":"lightblue","left_color":"orange","left_mu":40,"right_mu":48,"left_numbers":[49,55,34,46,50,40,36,38,44,41],"right_numbers":[40,50,41,54,39,47,42,48,47,68],"points_earned":424,"trial_type":"horizons-task","trial_index":26,"time_elapsed":511030,"internal_node_id":"0.0-22.0"},{"response_times":[1483.47500001546,1905.2900000242516,811.3149999408051,955.1849999697879,1586.1100000329316,587.4549999134615,317.93000001925975,317.4049999797717,321.12999993842095,673.5099999932572],"keys_pressed":["leftarrow","rightarrow","rightarrow","rightarrow","rightarrow","rightarrow","rightarrow","rightarrow","rightarrow","rightarrow"],"horizon":10,"forced_choices":["leftarrow","rightarrow","rightarrow","rightarrow"],"right_color":"orange","left_color":"lightblue","left_mu":60,"right_mu":64,"left_numbers":[75,73,63,63,54,56,58,66,59,58],"right_numbers":[70,49,56,74,71,62,46,62,54,56],"points_earned":605,"trial_type":"horizons-task","trial_index":27,"time_elapsed":521493,"internal_node_id":"0.0-23.0"},{"response_times":[848.0900001013651,628.8250000216067,861.7450000019744,793.805000022985,2581.7700000479817,639.9750000564381,369.7099999990314,308.42500005383044,312.28499999269843,431.2850000569597],"keys_pressed":["rightarrow","leftarrow","leftarrow","rightarrow","leftarrow","leftarrow","leftarrow","leftarrow","leftarrow","leftarrow"],"horizon":10,"forced_choices":["rightarrow","leftarrow","leftarrow","rightarrow"],"right_color":"orange","left_color":"lightblue","left_mu":60,"right_mu":52,"left_numbers":[68,63,51,73,68,61,55,66,57,66],"right_numbers":[46,50,58,37,57,47,48,40,50,63],"points_earned":570,"trial_type":"horizons-task","trial_index":28,"time_elapsed":530773,"internal_node_id":"0.0-24.0"},{"response_times":[807.6700000092387,615.1250000111759,1258.9649999281392,720.4949998995289,2385.509999934584],"keys_pressed":["rightarrow","rightarrow","leftarrow","rightarrow","rightarrow"],"horizon":5,"forced_choices":["rightarrow","rightarrow","leftarrow","rightarrow"],"right_color":"lightblue","left_color":"orange","left_mu":40,"right_mu":28,"left_numbers":[36,42,36,54,52],"right_numbers":[22,18,30,27,30],"points_earned":133,"trial_type":"horizons-task","trial_index":29,"time_elapsed":538064,"internal_node_id":"0.0-25.0"},{"response_times":[730.3299999330193,2027.3250000318512,856.2500000698492,1534.429999999702,2038.9699999941513,405.1099999342114,266.07999997213483,223.72000000905246,353.40000002179295,549.7949999989942],"keys_pressed":["rightarrow","leftarrow","leftarrow","rightarrow","leftarrow","leftarrow","leftarrow","leftarrow","leftarrow","leftarrow"],"horizon":10,"forced_choices":["rightarrow","leftarrow","leftarrow","rightarrow"],"right_color":"lightblue","left_color":"orange","left_mu":60,"right_mu":40,"left_numbers":[51,79,68,52,63,47,62,65,62,61],"right_numbers":[33,33,30,46,44,34,33,53,32,40],"points_earned":586,"trial_type":"horizons-task","trial_index":30,"time_elapsed":548557,"internal_node_id":"0.0-26.0"},{"response_times":[1063.4050000226125,656.6149999853224,554.270000080578,844.0450000343844,1378.9450000040233],"keys_pressed":["leftarrow","rightarrow","leftarrow","leftarrow","leftarrow"],"horizon":5,"forced_choices":["leftarrow","rightarrow","leftarrow","leftarrow"],"right_color":"lightblue","left_color":"orange","left_mu":40,"right_mu":28,"left_numbers":[32,44,41,51,47],"right_numbers":[31,27,33,19,34],"points_earned":198,"trial_type":"horizons-task","trial_index":31,"time_elapsed":554559,"internal_node_id":"0.0-27.0"},{"response_times":[1336.0699999611825,1053.3000000286847,874.9799999641255,732.6849999371916,1396.6749999672174,365.01499998848885,187.64000001829118,183.41999989934266,183.97999997250736,1223.5149999614805],"keys_pressed":["leftarrow","leftarrow","rightarrow","leftarrow","leftarrow","leftarrow","leftarrow","leftarrow","leftarrow","leftarrow"],"horizon":10,"forced_choices":["leftarrow","leftarrow","rightarrow","leftarrow"],"right_color":"orange","left_color":"lightblue","left_mu":40,"right_mu":70,"left_numbers":[48,40,46,33,44,43,35,33,35,34],"right_numbers":[64,63,60,73,81,63,66,79,78,73],"points_earned":405,"trial_type":"horizons-task","trial_index":32,"time_elapsed":563600,"internal_node_id":"0.0-28.0"},{"response_times":[1246.0499999579042,772.7250000461936,894.1600000252947,924.1649999748915,653.4949999768287],"keys_pressed":["rightarrow","leftarrow","leftarrow","rightarrow","leftarrow"],"horizon":5,"forced_choices":["rightarrow","leftarrow","leftarrow","rightarrow"],"right_color":"lightblue","left_color":"orange","left_mu":60,"right_mu":64,"left_numbers":[70,66,57,70,53],"right_numbers":[62,54,55,71,55],"points_earned":309,"trial_type":"horizons-task","trial_index":33,"time_elapsed":569595,"internal_node_id":"0.0-29.0"},{"response_times":[1057.9050000524148,545.9300000220537,610.0350000197068,833.00500002224,1841.1100000375882,386.06499996967614,362.94500005897135,426.8900000024587,373.9100000821054,346.61000000778586],"keys_pressed":["leftarrow","leftarrow","leftarrow","rightarrow","leftarrow","leftarrow","leftarrow","leftarrow","leftarrow","leftarrow"],"horizon":10,"forced_choices":["leftarrow","leftarrow","leftarrow","rightarrow"],"right_color":"orange","left_color":"lightblue","left_mu":40,"right_mu":44,"left_numbers":[55,46,47,39,41,35,38,44,23,11],"right_numbers":[37,57,24,33,56,28,36,37,58,37],"points_earned":373,"trial_type":"horizons-task","trial_index":34,"time_elapsed":577900,"internal_node_id":"0.0-30.0"},{"response_times":[1230.184999993071,816.810000105761,734.639999922365,950.2199999988079,2553.440000046976],"keys_pressed":["rightarrow","leftarrow","leftarrow","rightarrow","rightarrow"],"horizon":5,"forced_choices":["rightarrow","leftarrow","leftarrow","rightarrow"],"right_color":"orange","left_color":"lightblue","left_mu":40,"right_mu":60,"left_numbers":[35,47,24,30,41],"right_numbers":[59,61,61,55,58],"points_earned":243,"trial_type":"horizons-task","trial_index":35,"time_elapsed":585689,"internal_node_id":"0.0-31.0"},{"response_times":[661.4850000478327,818.9900000579655,1283.4599999478087,736.6649999748915,2868.1900000665337,478.9050000254065,176.97999998927116,188.40999994426966,195.0949999736622,457.0799999637529],"keys_pressed":["rightarrow","rightarrow","leftarrow","rightarrow","rightarrow","rightarrow","rightarrow","rightarrow","rightarrow","rightarrow"],"horizon":10,"forced_choices":["rightarrow","rightarrow","leftarrow","rightarrow"],"right_color":"orange","left_color":"lightblue","left_mu":40,"right_mu":36,"left_numbers":[26,30,35,41,32,42,45,32,34,38],"right_numbers":[31,42,35,27,34,27,37,31,20,30],"points_earned":314,"trial_type":"horizons-task","trial_index":36,"time_elapsed":595059,"internal_node_id":"0.0-32.0"},{"response_times":[1020.6350000808015,797.3149999743327,633.8700000196695,659.1250000055879,2240.8399999840185,426.59499996807426,185.85499993059784,191.94499996956438,268.7549999682233,517.5000000745058],"keys_pressed":["leftarrow","rightarrow","leftarrow","rightarrow","rightarrow","rightarrow","rightarrow","rightarrow","rightarrow","rightarrow"],"horizon":10,"forced_choices":["leftarrow","rightarrow","leftarrow","rightarrow"],"right_color":"orange","left_color":"lightblue","left_mu":60,"right_mu":80,"left_numbers":[56,51,54,71,66,61,59,68,45,63],"right_numbers":[96,69,87,77,64,87,87,71,94,81],"points_earned":740,"trial_type":"horizons-task","trial_index":37,"time_elapsed":603506,"internal_node_id":"0.0-33.0"},{"response_times":[654.7400000272319,749.2400000337511,688.6749999830499,1288.3700000820681,959.7399999620393],"keys_pressed":["rightarrow","rightarrow","rightarrow","leftarrow","rightarrow"],"horizon":5,"forced_choices":["rightarrow","rightarrow","rightarrow","leftarrow"],"right_color":"lightblue","left_color":"orange","left_mu":60,"right_mu":64,"left_numbers":[56,61,63,56,58],"right_numbers":[74,63,67,67,57],"points_earned":317,"trial_type":"horizons-task","trial_index":38,"time_elapsed":609356,"internal_node_id":"0.0-34.0"},{"response_times":[978.789999964647,474.6450000675395,637.0149999856949,872.7150000631809,1687.6700000138953,244.98000007588416,178.62000002060086,204.79500002693385,236.9450000114739,557.1699999272823],"keys_pressed":["leftarrow","leftarrow","rightarrow","rightarrow","leftarrow","leftarrow","leftarrow","leftarrow","leftarrow","leftarrow"],"horizon":10,"forced_choices":["leftarrow","leftarrow","rightarrow","rightarrow"],"right_color":"orange","left_color":"lightblue","left_mu":60,"right_mu":30,"left_numbers":[63,65,83,60,69,66,66,51,67,66],"right_numbers":[35,25,30,21,21,16,24,32,24,17],"points_earned":564,"trial_type":"horizons-task","trial_index":39,"time_elapsed":616934,"internal_node_id":"0.0-35.0"},{"response_times":[1214.4049999769777,615.7150000799447,732.9349999781698,793.98499999661,2313.7400000123307],"keys_pressed":["leftarrow","leftarrow","rightarrow","rightarrow","leftarrow"],"horizon":5,"forced_choices":["leftarrow","leftarrow","rightarrow","rightarrow"],"right_color":"orange","left_color":"lightblue","left_mu":60,"right_mu":56,"left_numbers":[68,67,62,65,61],"right_numbers":[65,61,53,50,50],"points_earned":299,"trial_type":"horizons-task","trial_index":40,"time_elapsed":624112,"internal_node_id":"0.0-36.0"},{"response_times":[812.1800000080839,808.5800000699237,539.8900000145659,604.9300000304356,2944.5149999810383],"keys_pressed":["rightarrow","leftarrow","rightarrow","leftarrow","rightarrow"],"horizon":5,"forced_choices":["rightarrow","leftarrow","rightarrow","leftarrow"],"right_color":"orange","left_color":"lightblue","left_mu":60,"right_mu":72,"left_numbers":[65,55,49,54,60],"right_numbers":[60,55,56,80,79],"points_earned":304,"trial_type":"horizons-task","trial_index":41,"time_elapsed":631325,"internal_node_id":"0.0-37.0"},{"response_times":[1170.644999947399,653.8749999599531,567.0999999856576,710.5650000739843,1866.1950000096112],"keys_pressed":["leftarrow","rightarrow","leftarrow","rightarrow","rightarrow"],"horizon":5,"forced_choices":["leftarrow","rightarrow","leftarrow","rightarrow"],"right_color":"orange","left_color":"lightblue","left_mu":40,"right_mu":36,"left_numbers":[40,27,27,50,43],"right_numbers":[40,41,46,51,28],"points_earned":187,"trial_type":"horizons-task","trial_index":42,"time_elapsed":637807,"internal_node_id":"0.0-38.0"},{"response_times":[594.3599999882281,602.9850000049919,623.7599999876693,988.7850000523031,1246.8850000295788],"keys_pressed":["rightarrow","rightarrow","leftarrow","leftarrow","leftarrow"],"horizon":5,"forced_choices":["rightarrow","rightarrow","leftarrow","leftarrow"],"right_color":"orange","left_color":"lightblue","left_mu":60,"right_mu":80,"left_numbers":[56,58,67,61,56],"right_numbers":[70,72,62,77,75],"points_earned":326,"trial_type":"horizons-task","trial_index":43,"time_elapsed":643372,"internal_node_id":"0.0-39.0"},{"response_times":[921.7550000175834,723.9049999043345,624.8950000153854,499.44499996490777,2815.8350000157952,421.37500003445894,492.545000044629,363.41500002890825,335.98500001244247,566.4399999659508],"keys_pressed":["leftarrow","leftarrow","rightarrow","leftarrow","rightarrow","rightarrow","rightarrow","rightarrow","rightarrow","rightarrow"],"horizon":10,"forced_choices":["leftarrow","leftarrow","rightarrow","leftarrow"],"right_color":"lightblue","left_color":"orange","left_mu":40,"right_mu":60,"left_numbers":[39,37,41,39,46,39,31,49,54,26],"right_numbers":[59,50,64,61,45,62,68,52,62,58],"points_earned":526,"trial_type":"horizons-task","trial_index":44,"time_elapsed":652642,"internal_node_id":"0.0-40.0"},{"response_times":[729.9750000238419,581.1700000194833,690.8949998905882,539.0350000234321,4462.910000002012,434.95000002440065,178.3649999415502,188.45500005409122,187.80499999411404,3355.5699998978525],"keys_pressed":["rightarrow","leftarrow","leftarrow","rightarrow","rightarrow","rightarrow","rightarrow","rightarrow","rightarrow","rightarrow"],"horizon":10,"forced_choices":["rightarrow","leftarrow","leftarrow","rightarrow"],"right_color":"orange","left_color":"lightblue","left_mu":40,"right_mu":52,"left_numbers":[38,37,33,49,44,46,54,36,42,43],"right_numbers":[47,53,46,60,42,40,67,60,45,46],"points_earned":477,"trial_type":"horizons-task","trial_index":45,"time_elapsed":665495,"internal_node_id":"0.0-41.0"},{"response_times":[1220.629999996163,2927.4500000756234,932.2399999946356,1477.9599999310449,2502.529999939725,1113.0050000501797,1905.8500000974163,911.835000035353,700.1499999314547,1441.1449999315664],"keys_pressed":["leftarrow","leftarrow","rightarrow","rightarrow","rightarrow","leftarrow","rightarrow","leftarrow","leftarrow","rightarrow"],"horizon":10,"forced_choices":["leftarrow","leftarrow","rightarrow","rightarrow"],"right_color":"lightblue","left_color":"orange","left_mu":40,"right_mu":20,"left_numbers":[32,33,43,44,22,51,46,46,39,33],"right_numbers":[9,14,6,15,9,27,27,22,19,8],"points_earned":266,"trial_type":"horizons-task","trial_index":46,"time_elapsed":682135,"internal_node_id":"0.0-42.0"},{"response_times":[1201.2000000104308,1206.705000018701,699.2799999425188,643.9199999440461,1976.6099998960271,1030.9849999612197,778.7649999372661,791.5149999316782,682.2999999858439,578.0350000131875],"keys_pressed":["rightarrow","rightarrow","rightarrow","leftarrow","rightarrow","rightarrow","leftarrow","leftarrow","leftarrow","leftarrow"],"horizon":10,"forced_choices":["rightarrow","rightarrow","rightarrow","leftarrow"],"right_color":"orange","left_color":"lightblue","left_mu":60,"right_mu":30,"left_numbers":[46,54,56,48,62,56,69,67,65,64],"right_numbers":[25,30,25,29,23,42,18,27,23,35],"points_earned":458,"trial_type":"horizons-task","trial_index":47,"time_elapsed":693228,"internal_node_id":"0.0-43.0"},{"response_times":[706.925000064075,1145.8500000881031,1383.4049999713898,941.5749999461696,2070.3300000168383],"keys_pressed":["leftarrow","leftarrow","rightarrow","leftarrow","leftarrow"],"horizon":5,"forced_choices":["leftarrow","leftarrow","rightarrow","leftarrow"],"right_color":"orange","left_color":"lightblue","left_mu":60,"right_mu":64,"left_numbers":[56,55,58,69,53],"right_numbers":[72,58,61,57,68],"points_earned":294,"trial_type":"horizons-task","trial_index":48,"time_elapsed":700980,"internal_node_id":"0.0-44.0"},{"view_history":"[{\"page_index\":0,\"viewing_time\":6297.989999991842},{\"page_index\":1,\"viewing_time\":3544.080000021495}]","rt":9842.705000075512,"trial_type":"instructions","trial_index":49,"time_elapsed":710824,"internal_node_id":"0.0-45.0"},{"response_times":[4778.775000013411,921.7600000556558,998.1599999591708,1193.680000025779,1512.3300000559539],"keys_pressed":["leftarrow","rightarrow","leftarrow","rightarrow","leftarrow"],"horizon":5,"forced_choices":["leftarrow","rightarrow","leftarrow","rightarrow"],"right_color":"orange","left_color":"lightblue","left_mu":60,"right_mu":30,"left_numbers":[57,56,57,59,69],"right_numbers":[7,25,32,14,38],"points_earned":222,"trial_type":"horizons-task","trial_index":50,"time_elapsed":721741,"internal_node_id":"0.0-46.0"},{"response_times":[1506.9350000703707,583.9600000763312,547.6949999574572,1063.6249999515712,1289.8700000951067],"keys_pressed":["leftarrow","leftarrow","leftarrow","rightarrow","leftarrow"],"horizon":5,"forced_choices":["leftarrow","leftarrow","leftarrow","rightarrow"],"right_color":"lightblue","left_color":"orange","left_mu":60,"right_mu":52,"left_numbers":[66,73,68,43,49],"right_numbers":[58,63,62,57,54],"points_earned":313,"trial_type":"horizons-task","trial_index":51,"time_elapsed":728237,"internal_node_id":"0.0-47.0"},{"response_times":[952.0750000374392,720.4650000203401,1005.0399999599904,821.7949999962002,1120.8649999462068],"keys_pressed":["rightarrow","leftarrow","leftarrow","leftarrow","leftarrow"],"horizon":5,"forced_choices":["rightarrow","leftarrow","leftarrow","leftarrow"],"right_color":"orange","left_color":"lightblue","left_mu":60,"right_mu":68,"left_numbers":[61,59,67,63,60],"right_numbers":[56,74,68,64,52],"points_earned":305,"trial_type":"horizons-task","trial_index":52,"time_elapsed":734361,"internal_node_id":"0.0-48.0"},{"response_times":[918.7600000295788,737.1700000949204,632.539999904111,1647.785000037402,2106.3699999358505,1179.1649999795482,695.3000000212342,442.21999996807426,415.9300000173971,428.3999999752268],"keys_pressed":["rightarrow","rightarrow","leftarrow","leftarrow","rightarrow","leftarrow","rightarrow","rightarrow","rightarrow","rightarrow"],"horizon":10,"forced_choices":["rightarrow","rightarrow","leftarrow","leftarrow"],"right_color":"orange","left_color":"lightblue","left_mu":60,"right_mu":80,"left_numbers":[55,76,48,60,78,55,59,63,60,64],"right_numbers":[75,87,80,73,87,80,82,81,75,86],"points_earned":736,"trial_type":"horizons-task","trial_index":53,"time_elapsed":745070,"internal_node_id":"0.0-49.0"},{"response_times":[710.7799999648705,600.7449999451637,810.3200000477955,832.6400000369176,771.7150000389665],"keys_pressed":["rightarrow","leftarrow","leftarrow","leftarrow","leftarrow"],"horizon":5,"forced_choices":["rightarrow","leftarrow","leftarrow","leftarrow"],"right_color":"lightblue","left_color":"orange","left_mu":60,"right_mu":64,"left_numbers":[53,60,68,56,61],"right_numbers":[50,65,69,63,62],"points_earned":295,"trial_type":"horizons-task","trial_index":54,"time_elapsed":750299,"internal_node_id":"0.0-50.0"},{"response_times":[723.7099999329075,1396.9449999276549,640.650000073947,1347.675000084564,1190.5200000619516],"keys_pressed":["leftarrow","rightarrow","leftarrow","rightarrow","leftarrow"],"horizon":5,"forced_choices":["leftarrow","rightarrow","leftarrow","rightarrow"],"right_color":"orange","left_color":"lightblue","left_mu":60,"right_mu":40,"left_numbers":[63,64,67,60,59],"right_numbers":[46,44,37,40,45],"points_earned":273,"trial_type":"horizons-task","trial_index":55,"time_elapsed":757117,"internal_node_id":"0.0-51.0"},{"response_times":[935.4450000682846,2860.6500000460073,720.2500000130385,1065.995000069961,1560.9549999935552,733.6099999956787,795.490000047721,1077.2899999283254,487.2149999719113,495.1449999352917],"keys_pressed":["rightarrow","rightarrow","leftarrow","leftarrow","leftarrow","rightarrow","rightarrow","leftarrow","leftarrow","leftarrow"],"horizon":10,"forced_choices":["rightarrow","rightarrow","leftarrow","leftarrow"],"right_color":"lightblue","left_color":"orange","left_mu":60,"right_mu":40,"left_numbers":[55,64,60,62,59,66,62,63,66,58],"right_numbers":[36,26,40,47,35,54,32,46,46,43],"points_earned":516,"trial_type":"horizons-task","trial_index":56,"time_elapsed":769354,"internal_node_id":"0.0-52.0"},{"response_times":[697.0150000415742,677.2450000280514,888.4550000075251,760.1199999917299,1890.925000072457,600.1050000777468,547.8349999757484,981.3599999761209,519.8499999241903,538.7000000337139],"keys_pressed":["leftarrow","rightarrow","rightarrow","rightarrow","rightarrow","rightarrow","leftarrow","leftarrow","leftarrow","leftarrow"],"horizon":10,"forced_choices":["leftarrow","rightarrow","rightarrow","rightarrow"],"right_color":"lightblue","left_color":"orange","left_mu":60,"right_mu":30,"left_numbers":[57,65,55,64,59,52,47,54,47,51],"right_numbers":[45,46,29,21,39,31,32,44,15,27],"points_earned":422,"trial_type":"horizons-task","trial_index":57,"time_elapsed":778960,"internal_node_id":"0.0-53.0"},{"response_times":[624.2749999510124,915.0099999969825,1087.679999996908,713.8349999440834,1564.3700000364333,367.3899999121204,426.83500004932284,609.7300000255927,519.2249999381602,648.7150000175461],"keys_pressed":["rightarrow","leftarrow","leftarrow","rightarrow","rightarrow","rightarrow","leftarrow","rightarrow","leftarrow","rightarrow"],"horizon":10,"forced_choices":["rightarrow","leftarrow","leftarrow","rightarrow"],"right_color":"lightblue","left_color":"orange","left_mu":60,"right_mu":80,"left_numbers":[61,55,45,53,66,49,74,54,75,56],"right_numbers":[74,82,82,72,81,81,79,83,80,85],"points_earned":725,"trial_type":"horizons-task","trial_index":58,"time_elapsed":787941,"internal_node_id":"0.0-54.0"},{"response_times":[627.9449999565259,536.4050000207499,566.5850000223145,723.4150000149384,2152.5799999944866],"keys_pressed":["rightarrow","rightarrow","leftarrow","leftarrow","rightarrow"],"horizon":5,"forced_choices":["rightarrow","rightarrow","leftarrow","leftarrow"],"right_color":"orange","left_color":"lightblue","left_mu":60,"right_mu":68,"left_numbers":[53,62,46,47,74],"right_numbers":[68,71,57,68,65],"points_earned":297,"trial_type":"horizons-task","trial_index":59,"time_elapsed":794054,"internal_node_id":"0.0-55.0"},{"response_times":[703.304999973625,785.509999957867,598.6500000581145,643.6400000238791,3281.4900000812486,782.4450000189245,632.975000073202,818.6249999562278,653.9099999936298,521.3350000558421],"keys_pressed":["rightarrow","rightarrow","leftarrow","leftarrow","leftarrow","leftarrow","rightarrow","rightarrow","leftarrow","leftarrow"],"horizon":10,"forced_choices":["rightarrow","rightarrow","leftarrow","leftarrow"],"right_color":"orange","left_color":"lightblue","left_mu":60,"right_mu":52,"left_numbers":[57,56,58,62,58,71,61,60,57,53],"right_numbers":[60,54,44,54,53,47,55,44,58,50],"points_earned":572,"trial_type":"horizons-task","trial_index":60,"time_elapsed":804980,"internal_node_id":"0.0-56.0"},{"response_times":[584.1050000162795,1769.5449999300763,617.6100000739098,542.5299999769777,1981.2399999937043],"keys_pressed":["rightarrow","leftarrow","leftarrow","rightarrow","rightarrow"],"horizon":5,"forced_choices":["rightarrow","leftarrow","leftarrow","rightarrow"],"right_color":"lightblue","left_color":"orange","left_mu":60,"right_mu":64,"left_numbers":[69,59,53,70,60],"right_numbers":[67,70,62,64,58],"points_earned":301,"trial_type":"horizons-task","trial_index":61,"time_elapsed":811978,"internal_node_id":"0.0-57.0"},{"response_times":[770.2350000618026,583.4900001063943,472.7799999527633,1017.0550000621006,2140.5399999348447,463.63000001292676,492.5749999238178,551.949999993667,791.0050000064075,609.8200000124052],"keys_pressed":["rightarrow","rightarrow","leftarrow","leftarrow","rightarrow","rightarrow","rightarrow","leftarrow","leftarrow","rightarrow"],"horizon":10,"forced_choices":["rightarrow","rightarrow","leftarrow","leftarrow"],"right_color":"orange","left_color":"lightblue","left_mu":60,"right_mu":72,"left_numbers":[52,52,59,67,60,55,71,55,60,68],"right_numbers":[80,74,73,85,92,70,80,69,75,71],"points_earned":708,"trial_type":"horizons-task","trial_index":62,"time_elapsed":821376,"internal_node_id":"0.0-58.0"},{"response_times":[713.4599999990314,871.1850000545382,631.6300000762567,939.9299999931827,1717.5050000660121],"keys_pressed":["rightarrow","leftarrow","leftarrow","leftarrow","leftarrow"],"horizon":5,"forced_choices":["rightarrow","leftarrow","leftarrow","leftarrow"],"right_color":"orange","left_color":"lightblue","left_mu":40,"right_mu":70,"left_numbers":[34,52,52,47,43],"right_numbers":[80,79,62,49,80],"points_earned":274,"trial_type":"horizons-task","trial_index":63,"time_elapsed":827762,"internal_node_id":"0.0-59.0"},{"response_times":[773.1950000161305,549.7099999338388,583.4699999541044,788.2850000169128,1735.990000073798,586.1250000307336,572.1449999837205,519.9449999490753,798.795000067912,579.0299999061972],"keys_pressed":["rightarrow","rightarrow","rightarrow","leftarrow","rightarrow","rightarrow","leftarrow","leftarrow","rightarrow","rightarrow"],"horizon":10,"forced_choices":["rightarrow","rightarrow","rightarrow","leftarrow"],"right_color":"orange","left_color":"lightblue","left_mu":60,"right_mu":72,"left_numbers":[61,63,67,57,55,73,59,60,67,56],"right_numbers":[77,72,65,71,57,59,63,54,63,58],"points_earned":627,"trial_type":"horizons-task","trial_index":64,"time_elapsed":836754,"internal_node_id":"0.0-60.0"},{"response_times":[1265.5449999729171,805.5150000145659,429.8799999523908,778.6100000375882,3109.800000092946],"keys_pressed":["leftarrow","rightarrow","leftarrow","rightarrow","rightarrow"],"horizon":5,"forced_choices":["leftarrow","rightarrow","leftarrow","rightarrow"],"right_color":"orange","left_color":"lightblue","left_mu":60,"right_mu":72,"left_numbers":[68,58,75,57,60],"right_numbers":[64,74,82,74,65],"points_earned":356,"trial_type":"horizons-task","trial_index":65,"time_elapsed":844648,"internal_node_id":"0.0-61.0"},{"response_times":[887.9999999189749,553.7300000432879,619.3000000203028,569.0099999774247,2647.690000012517,337.97500003129244,346.69499995652586,911.714999936521,902.8300000354648,770.7299999892712],"keys_pressed":["leftarrow","rightarrow","rightarrow","rightarrow","rightarrow","rightarrow","rightarrow","leftarrow","leftarrow","leftarrow"],"horizon":10,"forced_choices":["leftarrow","rightarrow","rightarrow","rightarrow"],"right_color":"lightblue","left_color":"orange","left_mu":60,"right_mu":64,"left_numbers":[55,50,63,65,60,63,56,63,72,74],"right_numbers":[60,64,67,57,55,63,61,43,75,52],"points_earned":631,"trial_type":"horizons-task","trial_index":66,"time_elapsed":854699,"internal_node_id":"0.0-62.0"},{"response_times":[835.2799999993294,514.7850000066683,726.1299999663606,571.0399999516085,3106.774999992922,516.8500000145286,571.7849999200553,961.2500000512227,908.9549999916926,751.8350000027567],"keys_pressed":["rightarrow","leftarrow","leftarrow","rightarrow","rightarrow","rightarrow","rightarrow","leftarrow","leftarrow","leftarrow"],"horizon":10,"forced_choices":["rightarrow","leftarrow","leftarrow","rightarrow"],"right_color":"lightblue","left_color":"orange","left_mu":60,"right_mu":64,"left_numbers":[63,60,57,70,45,61,63,66,66,63],"right_numbers":[61,79,75,54,61,54,51,71,86,53],"points_earned":593,"trial_type":"horizons-task","trial_index":67,"time_elapsed":865670,"internal_node_id":"0.0-63.0"},{"response_times":[999.3950000498444,835.4650000110269,713.2050000363961,767.4900001147762,667.9849999491125],"keys_pressed":["rightarrow","rightarrow","leftarrow","rightarrow","leftarrow"],"horizon":5,"forced_choices":["rightarrow","rightarrow","leftarrow","rightarrow"],"right_color":"orange","left_color":"lightblue","left_mu":40,"right_mu":10,"left_numbers":[35,50,52,38,44],"right_numbers":[13,9,9,6,4],"points_earned":124,"trial_type":"horizons-task","trial_index":68,"time_elapsed":871157,"internal_node_id":"0.0-64.0"},{"response_times":[755.4000000236556,617.4049999099225,820.7750000292435,581.2999999616295,1554.9900000914931],"keys_pressed":["rightarrow","leftarrow","leftarrow","leftarrow","leftarrow"],"horizon":5,"forced_choices":["rightarrow","leftarrow","leftarrow","leftarrow"],"right_color":"lightblue","left_color":"orange","left_mu":60,"right_mu":64,"left_numbers":[67,61,55,49,43],"right_numbers":[67,70,65,71,62],"points_earned":275,"trial_type":"horizons-task","trial_index":69,"time_elapsed":876989,"internal_node_id":"0.0-65.0"},{"response_times":[728.8249999983236,781.9700000109151,655.2900000242516,561.214999994263,1282.9950000159442],"keys_pressed":["rightarrow","leftarrow","leftarrow","leftarrow","leftarrow"],"horizon":5,"forced_choices":["rightarrow","leftarrow","leftarrow","leftarrow"],"right_color":"lightblue","left_color":"orange","left_mu":60,"right_mu":52,"left_numbers":[60,53,59,63,63],"right_numbers":[69,52,56,46,54],"points_earned":307,"trial_type":"horizons-task","trial_index":70,"time_elapsed":882505,"internal_node_id":"0.0-66.0"},{"response_times":[1937.5749999890104,708.6750000016764,537.1350001078099,934.3299999600276,1504.7100000083447,538.825000054203,506.8399999290705,598.9950000075623,519.2650000099093,446.37999997939914],"keys_pressed":["rightarrow","leftarrow","rightarrow","rightarrow","rightarrow","rightarrow","leftarrow","rightarrow","rightarrow","rightarrow"],"horizon":10,"forced_choices":["rightarrow","leftarrow","rightarrow","rightarrow"],"right_color":"lightblue","left_color":"orange","left_mu":60,"right_mu":56,"left_numbers":[61,49,54,55,55,48,46,66,41,68],"right_numbers":[63,47,71,57,64,48,64,54,66,49],"points_earned":567,"trial_type":"horizons-task","trial_index":71,"time_elapsed":892257,"internal_node_id":"0.0-67.0"},{"response_times":[696.0250000702217,498.1400000397116,692.0999999856576,757.4950000271201,809.5249999314547],"keys_pressed":["rightarrow","leftarrow","leftarrow","leftarrow","leftarrow"],"horizon":5,"forced_choices":["rightarrow","leftarrow","leftarrow","leftarrow"],"right_color":"orange","left_color":"lightblue","left_mu":40,"right_mu":32,"left_numbers":[34,45,47,42,33],"right_numbers":[21,25,37,33,21],"points_earned":188,"trial_type":"horizons-task","trial_index":72,"time_elapsed":897215,"internal_node_id":"0.0-68.0"},{"response_times":[780.4350000806153,617.8950000321493,780.0949999364093,803.7949999561533,497.5649999687448],"keys_pressed":["rightarrow","leftarrow","leftarrow","leftarrow","leftarrow"],"horizon":5,"forced_choices":["rightarrow","leftarrow","leftarrow","leftarrow"],"right_color":"orange","left_color":"lightblue","left_mu":60,"right_mu":80,"left_numbers":[49,67,75,59,62],"right_numbers":[78,82,80,97,93],"points_earned":341,"trial_type":"horizons-task","trial_index":73,"time_elapsed":902198,"internal_node_id":"0.0-69.0"},{"response_times":[775.7950000232086,511.47500006482005,592.0149999437854,1607.4849999276921,1481.815000064671],"keys_pressed":["rightarrow","leftarrow","leftarrow","rightarrow","leftarrow"],"horizon":5,"forced_choices":["rightarrow","leftarrow","leftarrow","rightarrow"],"right_color":"lightblue","left_color":"orange","left_mu":40,"right_mu":10,"left_numbers":[40,45,46,53,34],"right_numbers":[18,9,4,15,1],"points_earned":158,"trial_type":"horizons-task","trial_index":74,"time_elapsed":908670,"internal_node_id":"0.0-70.0"},{"response_times":[1419.0999999409541,601.1650000000373,391.535000060685,676.9699999131262,1749.7349999612197,532.7999999281019,448.3199999667704,644.4449999835342,310.41000003460795,332.30000000912696],"keys_pressed":["rightarrow","leftarrow","rightarrow","rightarrow","rightarrow","rightarrow","leftarrow","rightarrow","rightarrow","rightarrow"],"horizon":10,"forced_choices":["rightarrow","leftarrow","rightarrow","rightarrow"],"right_color":"orange","left_color":"lightblue","left_mu":40,"right_mu":70,"left_numbers":[31,48,41,36,35,44,45,40,27,41],"right_numbers":[73,77,60,70,80,82,57,66,86,80],"points_earned":690,"trial_type":"horizons-task","trial_index":75,"time_elapsed":917298,"internal_node_id":"0.0-71.0"},{"response_times":[931.055000051856,624.320000060834,528.0849999981001,542.4949999433011,1797.5350000197068,381.5399999730289,360.7099999208003,1496.7699999688193,953.9850000292063,515.1949999853969],"keys_pressed":["leftarrow","rightarrow","leftarrow","rightarrow","rightarrow","rightarrow","leftarrow","leftarrow","rightarrow","rightarrow"],"horizon":10,"forced_choices":["leftarrow","rightarrow","leftarrow","rightarrow"],"right_color":"lightblue","left_color":"orange","left_mu":60,"right_mu":72,"left_numbers":[62,57,57,50,67,59,73,65,45,62],"right_numbers":[74,71,69,75,65,56,89,70,84,66],"points_earned":674,"trial_type":"horizons-task","trial_index":76,"time_elapsed":926934,"internal_node_id":"0.0-72.0"},{"response_times":[598.0699999490753,532.4849999742582,444.55499993637204,384.79499996174127,2013.799999956973,266.47499995306134,1036.5750000346452,551.7750000581145,710.7700000051409,1478.220000048168],"keys_pressed":["rightarrow","rightarrow","leftarrow","rightarrow","rightarrow","rightarrow","leftarrow","leftarrow","leftarrow","leftarrow"],"horizon":10,"forced_choices":["rightarrow","rightarrow","leftarrow","rightarrow"],"right_color":"lightblue","left_color":"orange","left_mu":40,"right_mu":20,"left_numbers":[50,42,34,25,24,45,39,37,40,47],"right_numbers":[25,28,24,31,15,6,29,10,36,23],"points_earned":302,"trial_type":"horizons-task","trial_index":77,"time_elapsed":936456,"internal_node_id":"0.0-73.0"},{"response_times":[746.599999954924,512.7899999497458,370.7299999659881,562.2349999612197,1280.35000001546,384.51500004157424,355.405000038445,911.6399999475107,597.7300000376999,489.2849999014288],"keys_pressed":["rightarrow","leftarrow","rightarrow","rightarrow","rightarrow","rightarrow","leftarrow","rightarrow","rightarrow","leftarrow"],"horizon":10,"forced_choices":["rightarrow","leftarrow","rightarrow","rightarrow"],"right_color":"lightblue","left_color":"orange","left_mu":60,"right_mu":80,"left_numbers":[66,67,54,64,58,47,54,70,55,57],"right_numbers":[74,78,89,87,85,77,80,79,85,60],"points_earned":754,"trial_type":"horizons-task","trial_index":78,"time_elapsed":944171,"internal_node_id":"0.0-74.0"},{"response_times":[576.4550000894815,496.07500003185123,444.12999995984137,808.504999964498,1744.3800000473857,674.84999995213,845.7600000547245,1855.9449999593198,495.1650000875816,304.050000035204],"keys_pressed":["rightarrow","rightarrow","leftarrow","leftarrow","leftarrow","leftarrow","rightarrow","rightarrow","rightarrow","rightarrow"],"horizon":10,"forced_choices":["rightarrow","rightarrow","leftarrow","leftarrow"],"right_color":"orange","left_color":"lightblue","left_mu":60,"right_mu":90,"left_numbers":[52,63,69,46,67,45,59,45,75,60],"right_numbers":[91,97,99,93,94,94,88,83,82,95],"points_earned":763,"trial_type":"horizons-task","trial_index":79,"time_elapsed":953923,"internal_node_id":"0.0-75.0"},{"response_times":[743.6100000049919,2083.7600000668317,745.7200000062585,812.1149999788031,2552.735000033863],"keys_pressed":["rightarrow","leftarrow","leftarrow","rightarrow","leftarrow"],"horizon":5,"forced_choices":["rightarrow","leftarrow","leftarrow","rightarrow"],"right_color":"orange","left_color":"lightblue","left_mu":60,"right_mu":64,"left_numbers":[63,61,61,50,53],"right_numbers":[73,61,70,52,64],"points_earned":300,"trial_type":"horizons-task","trial_index":80,"time_elapsed":962365,"internal_node_id":"0.0-76.0"},{"response_times":[656.3399999868125,971.5249999426305,488.6699999915436,447.73500005248934,2001.689999946393,841.5950000053272,691.7799999937415,760.6199999572709,398.47500005271286,469.3949999054894],"keys_pressed":["leftarrow","leftarrow","rightarrow","leftarrow","leftarrow","rightarrow","leftarrow","leftarrow","leftarrow","leftarrow"],"horizon":10,"forced_choices":["leftarrow","leftarrow","rightarrow","leftarrow"],"right_color":"lightblue","left_color":"orange","left_mu":40,"right_mu":20,"left_numbers":[35,35,39,31,41,40,39,39,39,57],"right_numbers":[16,1,18,29,20,15,20,18,27,22],"points_earned":349,"trial_type":"horizons-task","trial_index":81,"time_elapsed":971597,"internal_node_id":"0.0-77.0"},{"response_times":[560.50999998115,651.1900000041351,566.4999999571592,623.5299999825656,1869.7749999118969],"keys_pressed":["leftarrow","leftarrow","rightarrow","rightarrow","leftarrow"],"horizon":5,"forced_choices":["leftarrow","leftarrow","rightarrow","rightarrow"],"right_color":"orange","left_color":"lightblue","left_mu":40,"right_mu":36,"left_numbers":[59,48,44,22,54],"right_numbers":[35,42,40,26,16],"points_earned":227,"trial_type":"horizons-task","trial_index":82,"time_elapsed":977373,"internal_node_id":"0.0-78.0"},{"response_times":[576.5599999576807,426.60999996587634,676.0999999241903,664.8849999764934,2927.1100000478327],"keys_pressed":["leftarrow","rightarrow","rightarrow","rightarrow","rightarrow"],"horizon":5,"forced_choices":["leftarrow","rightarrow","rightarrow","rightarrow"],"right_color":"lightblue","left_color":"orange","left_mu":40,"right_mu":60,"left_numbers":[54,34,33,47,14],"right_numbers":[55,44,59,63,74],"points_earned":294,"trial_type":"horizons-task","trial_index":83,"time_elapsed":984149,"internal_node_id":"0.0-79.0"},{"response_times":[565.9799999557436,491.59500002861023,345.83000000566244,447.97999993897974,2090.6199999153614],"keys_pressed":["rightarrow","leftarrow","rightarrow","leftarrow","rightarrow"],"horizon":5,"forced_choices":["rightarrow","leftarrow","rightarrow","leftarrow"],"right_color":"orange","left_color":"lightblue","left_mu":40,"right_mu":52,"left_numbers":[44,31,21,39,23],"right_numbers":[42,60,53,49,56],"points_earned":221,"trial_type":"horizons-task","trial_index":84,"time_elapsed":989596,"internal_node_id":"0.0-80.0"},{"response_times":[644.7600000537932,504.39999997615814,421.7149999458343,399.22999998088926,3219.5999999530613,951.6600000206381,594.2400000058115,819.6300000417978,2280.064999940805,901.795000070706],"keys_pressed":["rightarrow","leftarrow","rightarrow","leftarrow","rightarrow","rightarrow","leftarrow","leftarrow","rightarrow","rightarrow"],"horizon":10,"forced_choices":["rightarrow","leftarrow","rightarrow","leftarrow"],"right_color":"lightblue","left_color":"orange","left_mu":40,"right_mu":32,"left_numbers":[41,30,34,44,39,30,41,30,30,28],"right_numbers":[34,28,46,36,26,37,35,36,31,35],"points_earned":354,"trial_type":"horizons-task","trial_index":85,"time_elapsed":1001839,"internal_node_id":"0.0-81.0"},{"response_times":[748.7699999473989,536.8100000778213,1409.114999929443,477.24500007461756,3194.9050000403076],"keys_pressed":["rightarrow","leftarrow","leftarrow","rightarrow","leftarrow"],"horizon":5,"forced_choices":["rightarrow","leftarrow","leftarrow","rightarrow"],"right_color":"lightblue","left_color":"orange","left_mu":40,"right_mu":32,"left_numbers":[31,38,38,35,28],"right_numbers":[30,37,32,41,33],"points_earned":175,"trial_type":"horizons-task","trial_index":86,"time_elapsed":1009709,"internal_node_id":"0.0-82.0"},{"response_times":[802.0300000207499,533.9899999089539,610.5299999471754,627.0650000078604,3068.7550000147894,1031.3949999399483,657.9149999888614,488.1250000325963,610.5099999113008,356.3600000925362],"keys_pressed":["leftarrow","leftarrow","leftarrow","rightarrow","leftarrow","rightarrow","leftarrow","leftarrow","leftarrow","leftarrow"],"horizon":10,"forced_choices":["leftarrow","leftarrow","leftarrow","rightarrow"],"right_color":"lightblue","left_color":"orange","left_mu":40,"right_mu":20,"left_numbers":[50,44,26,32,39,34,46,25,36,39],"right_numbers":[15,19,31,31,25,22,26,35,15,8],"points_earned":358,"trial_type":"horizons-task","trial_index":87,"time_elapsed":1020016,"internal_node_id":"0.0-83.0"},{"response_times":[627.2549999412149,460.08999994955957,2590.040000039153,473.2549999607727,879.6149999834597],"keys_pressed":["rightarrow","leftarrow","leftarrow","rightarrow","leftarrow"],"horizon":5,"forced_choices":["rightarrow","leftarrow","leftarrow","rightarrow"],"right_color":"orange","left_color":"lightblue","left_mu":60,"right_mu":30,"left_numbers":[61,62,64,63,64],"right_numbers":[27,23,41,34,22],"points_earned":251,"trial_type":"horizons-task","trial_index":88,"time_elapsed":1026551,"internal_node_id":"0.0-84.0"},{"response_times":[567.2600000398234,448.5550000099465,562.379999901168,620.2549999579787,1890.7049999106675,478.79500000271946,203.24499998241663,208.9700000360608,242.71000002045184,571.4800000423566],"keys_pressed":["rightarrow","leftarrow","rightarrow","rightarrow","rightarrow","rightarrow","rightarrow","rightarrow","rightarrow","rightarrow"],"horizon":10,"forced_choices":["rightarrow","leftarrow","rightarrow","rightarrow"],"right_color":"orange","left_color":"lightblue","left_mu":60,"right_mu":90,"left_numbers":[66,54,64,67,63,59,56,70,52,68],"right_numbers":[95,84,96,83,98,93,90,99,87,83],"points_earned":878,"trial_type":"horizons-task","trial_index":89,"time_elapsed":1033850,"internal_node_id":"0.0-85.0"},{"rt":20188.695000018924,"responses":{"age":"23","gender-categorical":"Female","gender-free-response":"","ethnicity":"Not Hispanic or Latino","race":["White"],"language":"Yes","fluency":"Very well"},"survey":"demographics","trial_type":"survey-demo","trial_index":90,"time_elapsed":1054045,"internal_node_id":"0.0-86.0"},{"rt":44867.050000000745,"responses":{"difficulty":"5","fun":"5","clarity":"4","strategy":"I visually remembered things","feedback":"Fun survey!"},"survey":"debrief","trial_type":"survey-debrief","trial_index":91,"time_elapsed":1098917,"internal_node_id":"0.0-87.0","interactions":"[]"}]