[{"view_history":"[{\"page_index\":0,\"viewing_time\":1619.345000013709}]","rt":1619.9500000220723,"trial_type":"instructions","trial_index":0,"time_elapsed":1625,"internal_node_id":"0.0-0.0"},{"item_order":[3,15,2,14,11,6,9,8,13,1,7,5,0,16,12,4,10],"responses":{"Q04":"2","Q16":"3","Q03":"2","Q15":"1","Q12":"2","Q07":"2","Q10":"3","Q09":"2","Q14":"1","Q02":"1","Q08":"1","Q06":"3","Q01":"3","Q17":"0","Q13":"2","Q05":"2","Q11":"2"},"radio_events":[4506.750000000466,12478.379999985918,14900.150000001304,15798.209999979008,17704.260000027716,21366.87999998685,22741.299999994226,25730.14499997953,29226.550000021234,30230.005000019446,33274.11499997834,34680.04000000656,38350.76000000117,39754.160000011325,43167.94999997364,45236.00500001339,49586.51499997359],"key_events":[],"mouse_events":[0.18999999156221747,3346.2799999979325,4506.750000000466,12478.379999985918,13600.365000020247,14365.685000026133,14900.150000001304,15798.209999979008,17704.260000027716,21366.87999998685,22741.299999994226,25730.14499997953,27244.155000022147,27778.095000016037,29226.550000021234,30230.005000019446,33274.11499997834,34680.04000000656,38350.76000000117,39754.160000011325,43167.94999997364,45236.00500001339,48856.45000002114,49586.51499997359,50456.16499998141],"rt":50458.34499999182,"survey":"pswq","trial_type":"survey-template","trial_index":1,"time_elapsed":52092,"internal_node_id":"0.0-1.0"},{"item_order":[2,9,1,4,5,12,0,11,3,10,6,8,7],"responses":{"Q03":"1","Q10":"1","Q02":"3","Q05":"1","Q06":"1","Q13":"4","Q01":"1","Q12":"0","Q04":"4","Q11":"2","Q07":"1","Q09":"2","Q08":"3"},"radio_events":[5931.715000013355,7063.2600000244565,12783.549999992829,14608.385000028647,16758.71000002371,18785.46500002267,21933.00999997882,24064.369999978226,26750.635000003967,29177.834999980405,31174.309999973048,34168.3249999769,35999.36499999603],"key_events":[],"mouse_events":[4731.670000008307,5931.715000013355,7063.2600000244565,11255.275000003166,12783.549999992829,14608.385000028647,16758.71000002371,18785.46500002267,21933.00999997882,24064.369999978226,26750.635000003967,29177.834999980405,31174.309999973048,34168.3249999769,35999.36499999603,36984.34999998426],"rt":36988.21999999927,"survey":"ius12","trial_type":"survey-template","trial_index":2,"time_elapsed":89092,"internal_node_id":"0.0-2.0"},{"view_history":"[{\"page_index\":0,\"viewing_time\":2737.024999980349},{\"page_index\":1,\"viewing_time\":3348.394999979064},{\"page_index\":2,\"viewing_time\":8800.170000002254},{\"page_index\":3,\"viewing_time\":6186.50000001071},{\"page_index\":4,\"viewing_time\":3246.839999977965},{\"page_index\":5,\"viewing_time\":2046.1400000494905},{\"page_index\":6,\"viewing_time\":5510.024999966845},{\"page_index\":7,\"viewing_time\":10803.30500000855},{\"page_index\":8,\"viewing_time\":5428.6299999803305},{\"page_index\":9,\"viewing_time\":4889.82500002021}]","rt":52998.36999998661,"trial_type":"instructions","trial_index":3,"time_elapsed":142101,"internal_node_id":"0.0-3.0-0.0"},{"response_times":[1285.0300000282004,911.179999995511,658.8450000272132,638.8650000444613,2762.4800000339746],"keys_pressed":["rightarrow","leftarrow","rightarrow","rightarrow","leftarrow"],"horizon":5,"forced_choices":["rightarrow","leftarrow","rightarrow","rightarrow"],"right_color":"lightblue","left_color":"orange","left_mu":40,"right_mu":20,"left_numbers":[42,38,36,30,39],"right_numbers":[10,37,30,28,17],"points_earned":145,"trial_type":"horizons-task","trial_index":4,"time_elapsed":149876,"internal_node_id":"0.0-3.0-1.0"},{"response_times":[913.5549999773502,524.7749999980442,830.7849999982864,565.6699999817647,3650.0600000144914,1433.6300000431947,621.1749999783933,680.7400000398047,486.1699999892153,584.145000029821],"keys_pressed":["leftarrow","leftarrow","rightarrow","rightarrow","rightarrow","rightarrow","rightarrow","rightarrow","rightarrow","rightarrow"],"horizon":10,"forced_choices":["leftarrow","leftarrow","rightarrow","rightarrow"],"right_color":"orange","left_color":"lightblue","left_mu":60,"right_mu":70,"left_numbers":[64,45,62,56,55,61,45,56,72,57],"right_numbers":[69,70,64,63,89,73,79,75,72,75],"points_earned":699,"trial_type":"horizons-task","trial_index":5,"time_elapsed":161671,"internal_node_id":"0.0-3.0-2.0"},{"view_history":"[{\"page_index\":0,\"viewing_time\":1448.2350000180304},{\"page_index\":1,\"viewing_time\":2248.0949999880977},{\"page_index\":2,\"viewing_time\":3170.78499996569},{\"page_index\":3,\"viewing_time\":2650.9250000235625}]","rt":9518.525000021327,"trial_type":"instructions","trial_index":6,"time_elapsed":171191,"internal_node_id":"0.0-3.0-3.0"},{"responses":["true","false","false","true"],"num_errors":0,"rt":11321.215000003576,"trial_type":"horizons-comprehension","trial_index":7,"time_elapsed":182517,"internal_node_id":"0.0-3.0-4.0"},{"view_history":"[{\"page_index\":0,\"viewing_time\":41263.91500001773},{\"page_index\":1,\"viewing_time\":3394.0150000271387}]","rt":44658.45000004629,"trial_type":"instructions","trial_index":8,"time_elapsed":227191,"internal_node_id":"0.0-4.0"},{"response_times":[4344.730000011623,646.9499999657273,711.8849999969825,805.9299999731593,800.8499999996275],"keys_pressed":["rightarrow","rightarrow","leftarrow","rightarrow","rightarrow"],"horizon":5,"forced_choices":["rightarrow","rightarrow","leftarrow","rightarrow"],"right_color":"orange","left_color":"lightblue","left_mu":40,"right_mu":70,"left_numbers":[60,38,39,51,48],"right_numbers":[68,63,77,70,65],"points_earned":305,"trial_type":"horizons-task","trial_index":9,"time_elapsed":236013,"internal_node_id":"0.0-5.0"},{"response_times":[525.6050000316463,479.5799999847077,439.3350000027567,681.3650000258349,2022.12999999756,1028.7200000020675,744.1299999481998,921.4750000392087,597.9650000226684,572.0199999632314],"keys_pressed":["rightarrow","leftarrow","rightarrow","leftarrow","rightarrow","rightarrow","rightarrow","rightarrow","rightarrow","rightarrow"],"horizon":10,"forced_choices":["rightarrow","leftarrow","rightarrow","leftarrow"],"right_color":"orange","left_color":"lightblue","left_mu":40,"right_mu":52,"left_numbers":[46,46,48,44,28,47,36,49,33,55],"right_numbers":[57,65,50,46,52,41,32,58,59,36],"points_earned":475,"trial_type":"horizons-task","trial_index":10,"time_elapsed":245530,"internal_node_id":"0.0-6.0"},{"response_times":[1217.0049999840558,432.06500000087544,451.39000000199303,462.7350000082515,2308.614999987185],"keys_pressed":["leftarrow","rightarrow","leftarrow","rightarrow","rightarrow"],"horizon":5,"forced_choices":["leftarrow","rightarrow","leftarrow","rightarrow"],"right_color":"orange","left_color":"lightblue","left_mu":40,"right_mu":60,"left_numbers":[54,28,42,41,33],"right_numbers":[60,52,69,57,57],"points_earned":262,"trial_type":"horizons-task","trial_index":11,"time_elapsed":251906,"internal_node_id":"0.0-7.0"},{"response_times":[1692.5449999980628,1185.95999997342,588.4550000191666,448.6599999945611,2466.6650000144728,965.6749999849126,776.1850000242703,877.8000000165775,670.5799999763258,712.9800000111572],"keys_pressed":["rightarrow","leftarrow","leftarrow","rightarrow","leftarrow","leftarrow","leftarrow","leftarrow","leftarrow","leftarrow"],"horizon":10,"forced_choices":["rightarrow","leftarrow","leftarrow","rightarrow"],"right_color":"lightblue","left_color":"orange","left_mu":40,"right_mu":28,"left_numbers":[32,29,34,41,41,32,47,63,24,37],"right_numbers":[28,25,25,27,34,29,17,24,22,26],"points_earned":362,"trial_type":"horizons-task","trial_index":12,"time_elapsed":263796,"internal_node_id":"0.0-8.0"},{"response_times":[1958.8999999687076,530.510000011418,639.4100000034086,780.9750000014901,620.809999993071],"keys_pressed":["leftarrow","rightarrow","leftarrow","leftarrow","rightarrow"],"horizon":5,"forced_choices":["leftarrow","rightarrow","leftarrow","leftarrow"],"right_color":"orange","left_color":"lightblue","left_mu":40,"right_mu":70,"left_numbers":[44,27,41,44,44],"right_numbers":[83,63,79,60,77],"points_earned":269,"trial_type":"horizons-task","trial_index":13,"time_elapsed":269831,"internal_node_id":"0.0-9.0"},{"response_times":[543.1450000032783,389.8200000403449,422.43999999482185,421.58000002382323,1292.8149999934249,712.3099999735132,425.5099999718368,414.3249999615364,425.71999999927357,498.40499996207654],"keys_pressed":["rightarrow","leftarrow","leftarrow","rightarrow","rightarrow","rightarrow","rightarrow","rightarrow","rightarrow","rightarrow"],"horizon":10,"forced_choices":["rightarrow","leftarrow","leftarrow","rightarrow"],"right_color":"lightblue","left_color":"orange","left_mu":60,"right_mu":90,"left_numbers":[60,69,51,57,62,61,58,62,69,48],"right_numbers":[85,75,83,98,87,93,89,94,105,85],"points_earned":856,"trial_type":"horizons-task","trial_index":14,"time_elapsed":276882,"internal_node_id":"0.0-10.0"},{"response_times":[4300.840000039898,429.0449999971315,447.9700000374578,1031.2899999553338,422.56500001531094],"keys_pressed":["leftarrow","rightarrow","rightarrow","leftarrow","rightarrow"],"horizon":5,"forced_choices":["leftarrow","rightarrow","rightarrow","leftarrow"],"right_color":"orange","left_color":"lightblue","left_mu":40,"right_mu":48,"left_numbers":[34,42,41,29,34],"right_numbers":[56,56,40,39,41],"points_earned":200,"trial_type":"horizons-task","trial_index":15,"time_elapsed":285034,"internal_node_id":"0.0-11.0"},{"response_times":[437.06000002566725,436.2250000122003,590.9150000079535,600.830000010319,883.544999989681],"keys_pressed":["rightarrow","rightarrow","rightarrow","leftarrow","rightarrow"],"horizon":5,"forced_choices":["rightarrow","rightarrow","rightarrow","leftarrow"],"right_color":"orange","left_color":"lightblue","left_mu":40,"right_mu":48,"left_numbers":[45,35,33,33,36],"right_numbers":[51,49,35,51,55],"points_earned":223,"trial_type":"horizons-task","trial_index":16,"time_elapsed":289486,"internal_node_id":"0.0-12.0"},{"response_times":[516.1599999992177,508.27500002924353,571.7149999691173,836.0799999791197,1524.0849999827333],"keys_pressed":["rightarrow","rightarrow","leftarrow","leftarrow","leftarrow"],"horizon":5,"forced_choices":["rightarrow","rightarrow","leftarrow","leftarrow"],"right_color":"orange","left_color":"lightblue","left_mu":40,"right_mu":36,"left_numbers":[54,37,35,44,35],"right_numbers":[37,35,36,41,38],"points_earned":186,"trial_type":"horizons-task","trial_index":17,"time_elapsed":294946,"internal_node_id":"0.0-13.0"},{"response_times":[574.7950000222772,434.63000003248453,518.6049999902025,734.6700000343844,2051.325000007637,869.8250000015832,580.0900000031106,507.43499997770414,413.78500004066154,422.0099999802187],"keys_pressed":["rightarrow","leftarrow","leftarrow","leftarrow","rightarrow","rightarrow","rightarrow","rightarrow","rightarrow","rightarrow"],"horizon":10,"forced_choices":["rightarrow","leftarrow","leftarrow","leftarrow"],"right_color":"orange","left_color":"lightblue","left_mu":60,"right_mu":72,"left_numbers":[55,59,62,56,71,67,66,55,58,49],"right_numbers":[72,78,89,69,60,76,64,82,63,75],"points_earned":669,"trial_type":"horizons-task","trial_index":18,"time_elapsed":303557,"internal_node_id":"0.0-14.0"},{"response_times":[468.3799999766052,438.37000004714355,720.4449999844655,700.4300000262447,591.6549999965355,619.9750000378117,630.1000000094064,579.1550000431016,462.8299999749288,426.3049999717623],"keys_pressed":["rightarrow","rightarrow","leftarrow","rightarrow","rightarrow","rightarrow","rightarrow","rightarrow","rightarrow","rightarrow"],"horizon":10,"forced_choices":["rightarrow","rightarrow","leftarrow","rightarrow"],"right_color":"lightblue","left_color":"orange","left_mu":60,"right_mu":90,"left_numbers":[50,63,65,57,52,70,56,60,65,53],"right_numbers":[98,94,93,91,101,98,88,94,83,99],"points_earned":911,"trial_type":"horizons-task","trial_index":19,"time_elapsed":310699,"internal_node_id":"0.0-15.0"},{"response_times":[554.1599999996834,454.5550000038929,517.2049999819137,678.760000038892,1974.6350000496022,673.3749999548309,523.9150000270456,682.2149999788962,523.5150000080466,532.2150000138208],"keys_pressed":["rightarrow","leftarrow","rightarrow","leftarrow","leftarrow","leftarrow","leftarrow","leftarrow","leftarrow","leftarrow"],"horizon":10,"forced_choices":["rightarrow","leftarrow","rightarrow","leftarrow"],"right_color":"orange","left_color":"lightblue","left_mu":40,"right_mu":28,"left_numbers":[29,48,32,43,47,51,29,45,36,37],"right_numbers":[38,25,40,23,40,30,29,33,37,31],"points_earned":414,"trial_type":"horizons-task","trial_index":20,"time_elapsed":319319,"internal_node_id":"0.0-16.0"},{"response_times":[647.4099999759346,447.34000001335517,520.3549999860115,624.3350000004284,694.8899999842979],"keys_pressed":["leftarrow","leftarrow","rightarrow","rightarrow","rightarrow"],"horizon":5,"forced_choices":["leftarrow","leftarrow","rightarrow","rightarrow"],"right_color":"lightblue","left_color":"orange","left_mu":60,"right_mu":90,"left_numbers":[64,53,66,82,61],"right_numbers":[97,90,84,96,86],"points_earned":383,"trial_type":"horizons-task","trial_index":21,"time_elapsed":323757,"internal_node_id":"0.0-17.0"},{"response_times":[520.0300000142306,432.3549999971874,485.0200000219047,430.67999999038875,1195.7099999999627,545.8399999770336,538.7800000025891,385.2150000166148,389.9049999890849,416.44499998074025],"keys_pressed":["rightarrow","leftarrow","leftarrow","rightarrow","rightarrow","rightarrow","rightarrow","rightarrow","rightarrow","rightarrow"],"horizon":10,"forced_choices":["rightarrow","leftarrow","leftarrow","rightarrow"],"right_color":"lightblue","left_color":"orange","left_mu":40,"right_mu":70,"left_numbers":[34,48,37,35,32,44,51,49,38,40],"right_numbers":[85,68,62,66,62,59,79,60,71,77],"points_earned":644,"trial_type":"horizons-task","trial_index":22,"time_elapsed":330601,"internal_node_id":"0.0-18.0"},{"response_times":[482.1700000320561,390.0949999806471,485.21499999333173,480.83000001497567,3096.900000004098,765.9550000098534,679.1799999773502,476.6749999835156,528.2949999673292,489.3900000024587],"keys_pressed":["rightarrow","leftarrow","leftarrow","leftarrow","leftarrow","leftarrow","leftarrow","leftarrow","leftarrow","leftarrow"],"horizon":10,"forced_choices":["rightarrow","leftarrow","leftarrow","leftarrow"],"right_color":"lightblue","left_color":"orange","left_mu":60,"right_mu":56,"left_numbers":[48,74,46,36,57,60,67,61,52,50],"right_numbers":[49,51,54,54,63,50,68,60,49,56],"points_earned":552,"trial_type":"horizons-task","trial_index":23,"time_elapsed":339980,"internal_node_id":"0.0-19.0"},{"response_times":[707.2450000559911,524.8600000049919,807.7899999916553,1029.4349999749102,703.0999999842606],"keys_pressed":["rightarrow","rightarrow","rightarrow","leftarrow","rightarrow"],"horizon":5,"forced_choices":["rightarrow","rightarrow","rightarrow","leftarrow"],"right_color":"orange","left_color":"lightblue","left_mu":40,"right_mu":44,"left_numbers":[45,42,46,46,26],"right_numbers":[75,47,41,43,47],"points_earned":256,"trial_type":"horizons-task","trial_index":24,"time_elapsed":345256,"internal_node_id":"0.0-20.0"},{"response_times":[670.4850000096485,639.4950000103563,1014.5100000081584,1271.0550000192598,535.3250000043772],"keys_pressed":["leftarrow","leftarrow","rightarrow","rightarrow","leftarrow"],"horizon":5,"forced_choices":["leftarrow","leftarrow","rightarrow","rightarrow"],"right_color":"orange","left_color":"lightblue","left_mu":60,"right_mu":40,"left_numbers":[65,66,57,58,87],"right_numbers":[30,35,55,16,36],"points_earned":289,"trial_type":"horizons-task","trial_index":25,"time_elapsed":350892,"internal_node_id":"0.0-21.0"},{"response_times":[579.2200000141747,502.4900000425987,435.0400000112131,1186.2400000100024,1634.9150000023656],"keys_pressed":["rightarrow","leftarrow","rightarrow","leftarrow","rightarrow"],"horizon":5,"forced_choices":["rightarrow","leftarrow","rightarrow","leftarrow"],"right_color":"lightblue","left_color":"orange","left_mu":60,"right_mu":68,"left_numbers":[76,48,60,66,67],"right_numbers":[77,63,89,71,56],"points_earned":336,"trial_type":"horizons-task","trial_index":26,"time_elapsed":356733,"internal_node_id":"0.0-22.0"},{"response_times":[506.1100000166334,420.6800000392832,385.19499998074025,541.4449999807402,1782.7650000108406,1266.0950000281446,508.8549999636598,501.07500003650784,607.9450000543147,608.3999999682419],"keys_pressed":["leftarrow","leftarrow","rightarrow","rightarrow","leftarrow","rightarrow","rightarrow","rightarrow","rightarrow","rightarrow"],"horizon":10,"forced_choices":["leftarrow","leftarrow","rightarrow","rightarrow"],"right_color":"orange","left_color":"lightblue","left_mu":40,"right_mu":44,"left_numbers":[48,41,44,29,34,55,42,32,45,48],"right_numbers":[40,55,43,41,34,51,40,37,35,49],"points_earned":419,"trial_type":"horizons-task","trial_index":27,"time_elapsed":365366,"internal_node_id":"0.0-23.0"},{"response_times":[631.5349999931641,528.1149999937043,549.570000031963,637.8200000035577,1416.0499999998137,622.2249999991618,582.3699999600649,413.64500002237037,419.73999998299405,560.6350000016391],"keys_pressed":["rightarrow","rightarrow","leftarrow","leftarrow","rightarrow","rightarrow","rightarrow","rightarrow","rightarrow","rightarrow"],"horizon":10,"forced_choices":["rightarrow","rightarrow","leftarrow","leftarrow"],"right_color":"lightblue","left_color":"orange","left_mu":60,"right_mu":68,"left_numbers":[59,62,73,55,51,51,52,74,64,69],"right_numbers":[80,75,74,67,83,69,70,57,62,59],"points_earned":683,"trial_type":"horizons-task","trial_index":28,"time_elapsed":373232,"internal_node_id":"0.0-24.0"},{"response_times":[570.7500000135042,376.8699999782257,433.46499995095655,1170.064999954775,2632.3599999886937],"keys_pressed":["rightarrow","leftarrow","leftarrow","leftarrow","rightarrow"],"horizon":5,"forced_choices":["rightarrow","leftarrow","leftarrow","leftarrow"],"right_color":"orange","left_color":"lightblue","left_mu":60,"right_mu":80,"left_numbers":[52,47,65,58,65],"right_numbers":[67,88,90,69,66],"points_earned":303,"trial_type":"horizons-task","trial_index":29,"time_elapsed":379938,"internal_node_id":"0.0-25.0"},{"response_times":[556.879999989178,441.28500000806525,571.1899999878369,460.4549999930896,1011.945000034757,552.834999980405,396.64500002982095,413.959999976214,404.915000020992,403.90000003390014],"keys_pressed":["rightarrow","rightarrow","leftarrow","rightarrow","rightarrow","rightarrow","rightarrow","rightarrow","rightarrow","rightarrow"],"horizon":10,"forced_choices":["rightarrow","rightarrow","leftarrow","rightarrow"],"right_color":"orange","left_color":"lightblue","left_mu":60,"right_mu":90,"left_numbers":[47,66,70,51,57,56,48,67,59,49],"right_numbers":[84,92,82,91,91,87,93,86,76,96],"points_earned":866,"trial_type":"horizons-task","trial_index":30,"time_elapsed":386657,"internal_node_id":"0.0-26.0"},{"response_times":[527.475000009872,422.7850000024773,459.8600000026636,473.31000003032386,3209.08000000054,521.8450000393204,350.559999991674,363.4849999798462,494.4000000250526,425.77000003075227],"keys_pressed":["leftarrow","rightarrow","rightarrow","rightarrow","rightarrow","rightarrow","rightarrow","rightarrow","rightarrow","rightarrow"],"horizon":10,"forced_choices":["leftarrow","rightarrow","rightarrow","rightarrow"],"right_color":"lightblue","left_color":"orange","left_mu":40,"right_mu":36,"left_numbers":[30,45,24,53,37,44,31,40,37,39],"right_numbers":[38,46,38,36,43,37,50,45,42,34],"points_earned":401,"trial_type":"horizons-task","trial_index":31,"time_elapsed":395409,"internal_node_id":"0.0-27.0"},{"response_times":[595.9300000104122,385.2249999763444,448.47000000299886,706.9849999970756,1361.9800000451505,899.3350000237115,381.4000000129454,322.03999999910593,404.8600000096485,535.9499999904074],"keys_pressed":["leftarrow","rightarrow","rightarrow","rightarrow","leftarrow","leftarrow","leftarrow","leftarrow","leftarrow","leftarrow"],"horizon":10,"forced_choices":["leftarrow","rightarrow","rightarrow","rightarrow"],"right_color":"orange","left_color":"lightblue","left_mu":40,"right_mu":28,"left_numbers":[37,47,37,34,41,37,54,21,40,30],"right_numbers":[23,11,38,20,18,26,28,38,30,20],"points_earned":329,"trial_type":"horizons-task","trial_index":32,"time_elapsed":402955,"internal_node_id":"0.0-28.0"},{"response_times":[540.9599999547936,449.4299999787472,578.7700000219047,1210.994999972172,832.8299999702722],"keys_pressed":["leftarrow","leftarrow","rightarrow","leftarrow","leftarrow"],"horizon":5,"forced_choices":["leftarrow","leftarrow","rightarrow","leftarrow"],"right_color":"lightblue","left_color":"orange","left_mu":60,"right_mu":56,"left_numbers":[52,69,58,47,63],"right_numbers":[69,66,61,48,44],"points_earned":292,"trial_type":"horizons-task","trial_index":33,"time_elapsed":408071,"internal_node_id":"0.0-29.0"},{"response_times":[596.045000012964,439.85999998403713,450.86499996250495,496.5350000420585,1844.8450000141747,515.6150000402704,468.51999999489635,344.33499997248873,457.48000004095957,443.28000000678],"keys_pressed":["leftarrow","leftarrow","rightarrow","rightarrow","rightarrow","rightarrow","rightarrow","rightarrow","rightarrow","rightarrow"],"horizon":10,"forced_choices":["leftarrow","leftarrow","rightarrow","rightarrow"],"right_color":"lightblue","left_color":"orange","left_mu":40,"right_mu":48,"left_numbers":[33,46,22,31,47,48,37,38,27,50],"right_numbers":[55,49,48,45,44,52,52,65,54,63],"points_earned":502,"trial_type":"horizons-task","trial_index":34,"time_elapsed":415632,"internal_node_id":"0.0-30.0"},{"response_times":[531.1599999549799,492.8800000343472,487.7250000135973,494.7900000261143,1038.349999987986,502.6400000206195,256.56499998876825,232.89000004297122,361.51999997673556,345.55999998701736],"keys_pressed":["leftarrow","rightarrow","leftarrow","rightarrow","rightarrow","rightarrow","rightarrow","rightarrow","rightarrow","rightarrow"],"horizon":10,"forced_choices":["leftarrow","rightarrow","leftarrow","rightarrow"],"right_color":"lightblue","left_color":"orange","left_mu":60,"right_mu":72,"left_numbers":[44,59,56,53,73,75,68,71,46,72],"right_numbers":[64,72,68,76,72,76,71,66,69,76],"points_earned":678,"trial_type":"horizons-task","trial_index":35,"time_elapsed":421880,"internal_node_id":"0.0-31.0"},{"response_times":[582.5900000054389,389.02499998221174,448.32000002497807,1004.7500000218861,387.3299999977462],"keys_pressed":["leftarrow","rightarrow","rightarrow","rightarrow","leftarrow"],"horizon":5,"forced_choices":["leftarrow","rightarrow","rightarrow","rightarrow"],"right_color":"lightblue","left_color":"orange","left_mu":60,"right_mu":56,"left_numbers":[68,66,67,57,50],"right_numbers":[54,57,51,61,63],"points_earned":287,"trial_type":"horizons-task","trial_index":36,"time_elapsed":426196,"internal_node_id":"0.0-32.0"},{"response_times":[449.7650000266731,370.0900000403635,456.65499998722225,731.6699999500997,1024.600000004284],"keys_pressed":["leftarrow","rightarrow","leftarrow","leftarrow","leftarrow"],"horizon":5,"forced_choices":["leftarrow","rightarrow","leftarrow","leftarrow"],"right_color":"orange","left_color":"lightblue","left_mu":40,"right_mu":28,"left_numbers":[37,48,50,39,28],"right_numbers":[29,27,31,24,22],"points_earned":181,"trial_type":"horizons-task","trial_index":37,"time_elapsed":430732,"internal_node_id":"0.0-33.0"},{"response_times":[547.3899999633431,453.00500001758337,476.10500000882894,771.1300000082701,281.479999946896],"keys_pressed":["rightarrow","leftarrow","rightarrow","leftarrow","rightarrow"],"horizon":5,"forced_choices":["rightarrow","leftarrow","rightarrow","leftarrow"],"right_color":"orange","left_color":"lightblue","left_mu":40,"right_mu":60,"left_numbers":[51,38,19,30,42],"right_numbers":[66,62,54,62,47],"points_earned":235,"trial_type":"horizons-task","trial_index":38,"time_elapsed":434766,"internal_node_id":"0.0-34.0"},{"response_times":[579.5799999614246,432.16999998549,689.7299999836832,755.4799999925308,744.8799999547191,353.97500003455207,273.39500002563,191.30999996559694,198.22999997995794,457.5549999717623],"keys_pressed":["rightarrow","rightarrow","leftarrow","rightarrow","leftarrow","leftarrow","leftarrow","leftarrow","leftarrow","leftarrow"],"horizon":10,"forced_choices":["rightarrow","rightarrow","leftarrow","rightarrow"],"right_color":"orange","left_color":"lightblue","left_mu":60,"right_mu":30,"left_numbers":[59,65,59,56,56,56,50,59,56,56],"right_numbers":[23,29,27,24,22,21,17,35,28,32],"points_earned":468,"trial_type":"horizons-task","trial_index":39,"time_elapsed":440946,"internal_node_id":"0.0-35.0"},{"response_times":[580.9899999876507,548.8699999987148,862.6500000245869,478.7299999734387,739.884999988135],"keys_pressed":["rightarrow","rightarrow","rightarrow","leftarrow","rightarrow"],"horizon":5,"forced_choices":["rightarrow","rightarrow","rightarrow","leftarrow"],"right_color":"lightblue","left_color":"orange","left_mu":60,"right_mu":68,"left_numbers":[64,68,59,65,67],"right_numbers":[63,77,70,70,77],"points_earned":352,"trial_type":"horizons-task","trial_index":40,"time_elapsed":445661,"internal_node_id":"0.0-36.0"},{"response_times":[599.1899999789894,458.1000000471249,380.45499997679144,921.1099999956787,1175.5000000121072,375.21000002743676,525.1399999833666,327.7900000102818,206.20499999495223,470.6550000119023],"keys_pressed":["leftarrow","leftarrow","rightarrow","rightarrow","leftarrow","leftarrow","leftarrow","leftarrow","leftarrow","leftarrow"],"horizon":10,"forced_choices":["leftarrow","leftarrow","rightarrow","rightarrow"],"right_color":"orange","left_color":"lightblue","left_mu":40,"right_mu":10,"left_numbers":[43,56,50,48,36,39,26,43,40,33],"right_numbers":[19,14,2,10,11,20,12,14,18,6],"points_earned":328,"trial_type":"horizons-task","trial_index":41,"time_elapsed":452604,"internal_node_id":"0.0-37.0"},{"response_times":[558.7199999717996,395.6350000225939,379.57500002812594,518.96499999566,2938.0550000350922,730.199999990873,552.979999978561,425.80999998608604,351.5050000278279,501.8500000005588],"keys_pressed":["leftarrow","rightarrow","leftarrow","leftarrow","leftarrow","rightarrow","rightarrow","rightarrow","rightarrow","rightarrow"],"horizon":10,"forced_choices":["leftarrow","rightarrow","leftarrow","leftarrow"],"right_color":"orange","left_color":"lightblue","left_mu":40,"right_mu":52,"left_numbers":[37,39,42,42,38,44,52,35,39,46],"right_numbers":[56,40,45,65,46,46,60,66,61,41],"points_earned":473,"trial_type":"horizons-task","trial_index":42,"time_elapsed":461462,"internal_node_id":"0.0-38.0"},{"response_times":[581.2949999817647,403.97500002291054,548.0800000368617,927.1200000075623,399.4599999859929],"keys_pressed":["leftarrow","rightarrow","rightarrow","leftarrow","leftarrow"],"horizon":5,"forced_choices":["leftarrow","rightarrow","rightarrow","leftarrow"],"right_color":"lightblue","left_color":"orange","left_mu":60,"right_mu":30,"left_numbers":[68,60,58,57,55],"right_numbers":[28,39,20,29,20],"points_earned":239,"trial_type":"horizons-task","trial_index":43,"time_elapsed":465826,"internal_node_id":"0.0-39.0"},{"response_times":[460.0549999740906,468.90999999595806,521.5299999690615,589.414999994915,1151.3900000136346,446.88000000314787,272.96500001102686,232.7750000404194,288.99000003002584,290.96499999286607],"keys_pressed":["rightarrow","rightarrow","leftarrow","leftarrow","leftarrow","leftarrow","leftarrow","leftarrow","leftarrow","leftarrow"],"horizon":10,"forced_choices":["rightarrow","rightarrow","leftarrow","leftarrow"],"right_color":"orange","left_color":"lightblue","left_mu":60,"right_mu":40,"left_numbers":[59,56,55,62,47,64,71,62,71,57],"right_numbers":[38,45,34,43,25,37,33,36,49,49],"points_earned":572,"trial_type":"horizons-task","trial_index":44,"time_elapsed":472054,"internal_node_id":"0.0-40.0"},{"response_times":[514.6450000465848,366.2800000165589,444.4950000033714,723.7999999779277,825.7849999936298],"keys_pressed":["leftarrow","rightarrow","leftarrow","leftarrow","rightarrow"],"horizon":5,"forced_choices":["leftarrow","rightarrow","leftarrow","leftarrow"],"right_color":"orange","left_color":"lightblue","left_mu":40,"right_mu":60,"left_numbers":[45,41,26,25,40],"right_numbers":[46,61,53,58,65],"points_earned":222,"trial_type":"horizons-task","trial_index":45,"time_elapsed":476433,"internal_node_id":"0.0-41.0"},{"response_times":[351.6350000281818,403.3449999988079,502.47499998658895,663.2999999565072,2225.5349999759346],"keys_pressed":["rightarrow","leftarrow","leftarrow","leftarrow","leftarrow"],"horizon":5,"forced_choices":["rightarrow","leftarrow","leftarrow","leftarrow"],"right_color":"orange","left_color":"lightblue","left_mu":40,"right_mu":32,"left_numbers":[43,49,49,37,24],"right_numbers":[42,38,41,28,35],"points_earned":201,"trial_type":"horizons-task","trial_index":46,"time_elapsed":482083,"internal_node_id":"0.0-42.0"},{"response_times":[497.4600000423379,368.4000000357628,432.1500000078231,516.0950000281446,891.4649999933317,951.2949999771081,414.7099999827333,264.06500005396083,341.1500000511296,439.63999999687076],"keys_pressed":["leftarrow","rightarrow","leftarrow","rightarrow","leftarrow","leftarrow","leftarrow","leftarrow","leftarrow","leftarrow"],"horizon":10,"forced_choices":["leftarrow","rightarrow","leftarrow","rightarrow"],"right_color":"orange","left_color":"lightblue","left_mu":40,"right_mu":10,"left_numbers":[36,44,36,30,42,38,37,47,42,40],"right_numbers":[24,8,9,14,8,14,18,0,2,23],"points_earned":340,"trial_type":"horizons-task","trial_index":47,"time_elapsed":488704,"internal_node_id":"0.0-43.0"},{"response_times":[368.32499998854473,368.96500003058463,559.6200000145473,711.2199999974109,1672.2099999897182,421.4800000190735,302.7449999935925,239.89500000607222,227.99000004306436,430.6349999969825],"keys_pressed":["rightarrow","leftarrow","leftarrow","leftarrow","rightarrow","rightarrow","rightarrow","rightarrow","rightarrow","rightarrow"],"horizon":10,"forced_choices":["rightarrow","leftarrow","leftarrow","leftarrow"],"right_color":"lightblue","left_color":"orange","left_mu":60,"right_mu":72,"left_numbers":[68,58,62,60,52,57,49,64,57,57],"right_numbers":[69,74,65,72,69,66,72,81,84,73],"points_earned":694,"trial_type":"horizons-task","trial_index":48,"time_elapsed":495512,"internal_node_id":"0.0-44.0"},{"view_history":"[{\"page_index\":0,\"viewing_time\":128995.56500004837},{\"page_index\":1,\"viewing_time\":1691.0299999872223}]","rt":130687.31000000844,"trial_type":"instructions","trial_index":49,"time_elapsed":626200,"internal_node_id":"0.0-45.0"},{"response_times":[1031.25,489.0350000350736,505.2750000031665,744.5399999851361,1385.6549999909475],"keys_pressed":["rightarrow","rightarrow","leftarrow","leftarrow","leftarrow"],"horizon":5,"forced_choices":["rightarrow","rightarrow","leftarrow","leftarrow"],"right_color":"lightblue","left_color":"orange","left_mu":40,"right_mu":44,"left_numbers":[35,55,52,38,37],"right_numbers":[45,44,41,28,38],"points_earned":216,"trial_type":"horizons-task","trial_index":50,"time_elapsed":631868,"internal_node_id":"0.0-46.0"},{"response_times":[566.2949999677949,451.62500004516914,369.7449999745004,582.7699999790639,849.6049999957904,1347.7100000018254,780.6700000073761,508.86000000173226,506.775000016205,469.76500004529953],"keys_pressed":["leftarrow","leftarrow","rightarrow","leftarrow","leftarrow","rightarrow","leftarrow","leftarrow","leftarrow","leftarrow"],"horizon":10,"forced_choices":["leftarrow","leftarrow","rightarrow","leftarrow"],"right_color":"lightblue","left_color":"orange","left_mu":60,"right_mu":56,"left_numbers":[62,64,59,59,47,63,46,56,79,62],"right_numbers":[59,42,57,49,67,49,51,61,62,53],"points_earned":581,"trial_type":"horizons-task","trial_index":51,"time_elapsed":639805,"internal_node_id":"0.0-47.0"},{"response_times":[763.3800000185147,435.93999999575317,867.0799999963492,439.86499996390194,576.2150000082329],"keys_pressed":["rightarrow","rightarrow","rightarrow","leftarrow","leftarrow"],"horizon":5,"forced_choices":["rightarrow","rightarrow","rightarrow","leftarrow"],"right_color":"orange","left_color":"lightblue","left_mu":40,"right_mu":32,"left_numbers":[30,46,49,53,45],"right_numbers":[29,25,35,19,34],"points_earned":187,"trial_type":"horizons-task","trial_index":52,"time_elapsed":644391,"internal_node_id":"0.0-48.0"},{"response_times":[445.2150000142865,336.61499997833744,362.9100000252947,483.36000001290813,1107.7449999866076,568.474999978207,251.3899999903515,255.04000001819804,537.7950000111014,279.03500001411885],"keys_pressed":["leftarrow","rightarrow","leftarrow","rightarrow","rightarrow","rightarrow","rightarrow","rightarrow","rightarrow","rightarrow"],"horizon":10,"forced_choices":["leftarrow","rightarrow","leftarrow","rightarrow"],"right_color":"orange","left_color":"lightblue","left_mu":60,"right_mu":90,"left_numbers":[54,67,62,76,61,50,57,68,58,65],"right_numbers":[86,85,92,78,92,103,92,91,89,95],"points_earned":841,"trial_type":"horizons-task","trial_index":53,"time_elapsed":650523,"internal_node_id":"0.0-49.0"},{"response_times":[471.1849999730475,385.8949999557808,859.969999990426,469.63000000687316,435.570000030566],"keys_pressed":["rightarrow","leftarrow","leftarrow","rightarrow","rightarrow"],"horizon":5,"forced_choices":["rightarrow","leftarrow","leftarrow","rightarrow"],"right_color":"orange","left_color":"lightblue","left_mu":60,"right_mu":80,"left_numbers":[54,64,57,72,72],"right_numbers":[75,82,81,91,67],"points_earned":354,"trial_type":"horizons-task","trial_index":54,"time_elapsed":654650,"internal_node_id":"0.0-50.0"},{"response_times":[406.5100000007078,440.70999999530613,340.0950000504963,509.33999998960644,453.48000002559274],"keys_pressed":["leftarrow","leftarrow","rightarrow","leftarrow","leftarrow"],"horizon":5,"forced_choices":["leftarrow","leftarrow","rightarrow","leftarrow"],"right_color":"orange","left_color":"lightblue","left_mu":40,"right_mu":32,"left_numbers":[41,56,34,31,47],"right_numbers":[42,25,31,42,43],"points_earned":206,"trial_type":"horizons-task","trial_index":55,"time_elapsed":658303,"internal_node_id":"0.0-51.0"},{"response_times":[394.40000004833564,414.7099999827333,545.0549999950454,514.2049999558367,447.4749999935739],"keys_pressed":["leftarrow","rightarrow","rightarrow","leftarrow","rightarrow"],"horizon":5,"forced_choices":["leftarrow","rightarrow","rightarrow","leftarrow"],"right_color":"orange","left_color":"lightblue","left_mu":60,"right_mu":90,"left_numbers":[53,64,65,67,64],"right_numbers":[80,94,83,83,80],"points_earned":377,"trial_type":"horizons-task","trial_index":56,"time_elapsed":662123,"internal_node_id":"0.0-52.0"},{"response_times":[477.69999998854473,449.54000000143424,375.6500000017695,845.499999995809,348.14499999629334],"keys_pressed":["leftarrow","leftarrow","rightarrow","rightarrow","leftarrow"],"horizon":5,"forced_choices":["leftarrow","leftarrow","rightarrow","rightarrow"],"right_color":"orange","left_color":"lightblue","left_mu":40,"right_mu":20,"left_numbers":[36,49,22,30,50],"right_numbers":[25,20,23,31,22],"points_earned":189,"trial_type":"horizons-task","trial_index":57,"time_elapsed":666123,"internal_node_id":"0.0-53.0"},{"response_times":[414.7649999940768,406.62500000325963,351.75999999046326,645.9150000009686,564.6799999522045],"keys_pressed":["leftarrow","leftarrow","rightarrow","rightarrow","rightarrow"],"horizon":5,"forced_choices":["leftarrow","leftarrow","rightarrow","rightarrow"],"right_color":"orange","left_color":"lightblue","left_mu":40,"right_mu":70,"left_numbers":[45,45,24,43,34],"right_numbers":[80,62,61,74,69],"points_earned":294,"trial_type":"horizons-task","trial_index":58,"time_elapsed":670010,"internal_node_id":"0.0-54.0"},{"response_times":[517.0550000038929,360.1849999977276,506.3949999748729,670.6899999990128,2728.7299999734387,621.0149999824353,633.3949999534525,470.62000003643334,496.8399999779649,356.4149999874644],"keys_pressed":["rightarrow","leftarrow","leftarrow","rightarrow","leftarrow","leftarrow","rightarrow","rightarrow","rightarrow","rightarrow"],"horizon":10,"forced_choices":["rightarrow","leftarrow","leftarrow","rightarrow"],"right_color":"orange","left_color":"lightblue","left_mu":60,"right_mu":68,"left_numbers":[58,75,60,58,65,47,72,62,58,49],"right_numbers":[57,70,65,75,76,77,52,85,78,81],"points_earned":675,"trial_type":"horizons-task","trial_index":59,"time_elapsed":678875,"internal_node_id":"0.0-55.0"},{"response_times":[548.3999999705702,340.7850000075996,479.60000002058223,370.2000000048429,978.2750000013039,471.5150000411086,217.00499998405576,174.34000002685934,167.22000000299886,200.43500000610948],"keys_pressed":["rightarrow","leftarrow","leftarrow","rightarrow","leftarrow","leftarrow","leftarrow","leftarrow","leftarrow","leftarrow"],"horizon":10,"forced_choices":["rightarrow","leftarrow","leftarrow","rightarrow"],"right_color":"lightblue","left_color":"orange","left_mu":60,"right_mu":30,"left_numbers":[47,66,66,64,57,57,62,55,66,46],"right_numbers":[30,31,24,30,36,35,37,34,25,19],"points_earned":535,"trial_type":"horizons-task","trial_index":60,"time_elapsed":684327,"internal_node_id":"0.0-56.0"},{"response_times":[491.8349999934435,410.05499998573214,478.7600000272505,491.47999996785074,2601.935000042431,504.06499998643994,245.59000000590459,218.9549999893643,209.31499998550862,621.7300000134856],"keys_pressed":["leftarrow","leftarrow","leftarrow","rightarrow","rightarrow","rightarrow","rightarrow","rightarrow","rightarrow","rightarrow"],"horizon":10,"forced_choices":["leftarrow","leftarrow","leftarrow","rightarrow"],"right_color":"lightblue","left_color":"orange","left_mu":60,"right_mu":64,"left_numbers":[48,56,66,56,66,80,58,65,60,52],"right_numbers":[67,54,51,63,77,61,64,59,55,63],"points_earned":612,"trial_type":"horizons-task","trial_index":61,"time_elapsed":692105,"internal_node_id":"0.0-57.0"},{"response_times":[458.82500003790483,449.3299999739975,595.5749999848194,684.9400000064634,389.72999999532476],"keys_pressed":["rightarrow","rightarrow","leftarrow","rightarrow","rightarrow"],"horizon":5,"forced_choices":["rightarrow","rightarrow","leftarrow","rightarrow"],"right_color":"lightblue","left_color":"orange","left_mu":40,"right_mu":44,"left_numbers":[41,34,28,34,35],"right_numbers":[65,48,30,37,46],"points_earned":224,"trial_type":"horizons-task","trial_index":62,"time_elapsed":696188,"internal_node_id":"0.0-58.0"},{"response_times":[335.785000002943,418.2549999677576,776.2800000491552,1013.5400000144728,642.5750000053085],"keys_pressed":["rightarrow","leftarrow","leftarrow","rightarrow","leftarrow"],"horizon":5,"forced_choices":["rightarrow","leftarrow","leftarrow","rightarrow"],"right_color":"lightblue","left_color":"orange","left_mu":60,"right_mu":56,"left_numbers":[71,51,71,55,52],"right_numbers":[61,49,59,50,46],"points_earned":285,"trial_type":"horizons-task","trial_index":63,"time_elapsed":700878,"internal_node_id":"0.0-59.0"},{"response_times":[575.3649999969639,443.3450000360608,438.43000003835186,860.4649999761023,1576.7699999851175,893.114999984391,479.8050000099465,299.3750000023283,240.32000004081056,251.41999998595566],"keys_pressed":["rightarrow","leftarrow","rightarrow","leftarrow","leftarrow","leftarrow","leftarrow","leftarrow","leftarrow","leftarrow"],"horizon":10,"forced_choices":["rightarrow","leftarrow","rightarrow","leftarrow"],"right_color":"lightblue","left_color":"orange","left_mu":60,"right_mu":40,"left_numbers":[45,55,64,77,49,62,71,52,59,63],"right_numbers":[40,37,55,33,47,46,42,52,34,42],"points_earned":583,"trial_type":"horizons-task","trial_index":64,"time_elapsed":708440,"internal_node_id":"0.0-60.0"},{"response_times":[537.8500000224449,393.95999995758757,522.449999989476,682.4650000198744,601.4399999985471,205.03999997163191,226.43500001868233,196.13499997649342,187.7649999805726,221.56500001437962],"keys_pressed":["leftarrow","rightarrow","rightarrow","rightarrow","rightarrow","rightarrow","rightarrow","rightarrow","rightarrow","rightarrow"],"horizon":10,"forced_choices":["leftarrow","rightarrow","rightarrow","rightarrow"],"right_color":"orange","left_color":"lightblue","left_mu":60,"right_mu":90,"left_numbers":[76,56,54,63,51,54,59,56,59,56],"right_numbers":[94,93,92,87,87,73,72,80,80,93],"points_earned":833,"trial_type":"horizons-task","trial_index":65,"time_elapsed":713719,"internal_node_id":"0.0-61.0"},{"response_times":[532.1850000182167,334.29500000784174,299.80999999679625,576.1799999745563,1168.9200000255369,331.2799999839626,221.09000000637025,173.38499997276813,188.9649999793619,201.02500001667067],"keys_pressed":["leftarrow","rightarrow","leftarrow","rightarrow","leftarrow","leftarrow","leftarrow","leftarrow","leftarrow","leftarrow"],"horizon":10,"forced_choices":["leftarrow","rightarrow","leftarrow","rightarrow"],"right_color":"orange","left_color":"lightblue","left_mu":40,"right_mu":20,"left_numbers":[37,38,40,47,54,35,41,29,40,31],"right_numbers":[21,27,16,25,25,24,19,27,12,23],"points_earned":359,"trial_type":"horizons-task","trial_index":66,"time_elapsed":719248,"internal_node_id":"0.0-62.0"},{"response_times":[416.3950000074692,428.1100000371225,496.80999998236075,558.5699999937788,954.059999960009,241.70000001322478,194.61499998578802,276.9550000084564,412.16000000713393,514.339999994263],"keys_pressed":["leftarrow","leftarrow","leftarrow","rightarrow","leftarrow","leftarrow","leftarrow","leftarrow","leftarrow","leftarrow"],"horizon":10,"forced_choices":["leftarrow","leftarrow","leftarrow","rightarrow"],"right_color":"lightblue","left_color":"orange","left_mu":40,"right_mu":20,"left_numbers":[28,55,38,31,26,36,30,40,29,30],"right_numbers":[19,19,20,23,16,42,7,22,18,27],"points_earned":335,"trial_type":"horizons-task","trial_index":67,"time_elapsed":725246,"internal_node_id":"0.0-63.0"},{"response_times":[622.1950000035577,387.09500001277775,576.9250000012107,1378.4299999824725,1736.89999995986],"keys_pressed":["rightarrow","leftarrow","rightarrow","rightarrow","leftarrow"],"horizon":5,"forced_choices":["rightarrow","leftarrow","rightarrow","rightarrow"],"right_color":"orange","left_color":"lightblue","left_mu":40,"right_mu":32,"left_numbers":[48,46,31,40,39],"right_numbers":[28,27,47,25,29],"points_earned":185,"trial_type":"horizons-task","trial_index":68,"time_elapsed":731452,"internal_node_id":"0.0-64.0"},{"response_times":[545.2299999888055,416.9549999642186,451.9299999810755,476.85499995714054,1197.550000040792,564.9949999642558,245.51499995868653,190.41500001912937,175.65500002820045,178.17000002833083],"keys_pressed":["rightarrow","rightarrow","leftarrow","rightarrow","leftarrow","leftarrow","leftarrow","leftarrow","leftarrow","leftarrow"],"horizon":10,"forced_choices":["rightarrow","rightarrow","leftarrow","rightarrow"],"right_color":"orange","left_color":"lightblue","left_mu":60,"right_mu":40,"left_numbers":[51,60,53,61,67,59,74,66,64,51],"right_numbers":[40,41,22,41,45,35,40,45,34,42],"points_earned":556,"trial_type":"horizons-task","trial_index":69,"time_elapsed":737399,"internal_node_id":"0.0-65.0"},{"response_times":[525.2249999903142,289.74499995820224,499.515000032261,927.1600000211038,245.56999997003004],"keys_pressed":["leftarrow","rightarrow","rightarrow","rightarrow","leftarrow"],"horizon":5,"forced_choices":["leftarrow","rightarrow","rightarrow","rightarrow"],"right_color":"orange","left_color":"lightblue","left_mu":40,"right_mu":10,"left_numbers":[41,46,41,39,52],"right_numbers":[0,23,2,14,7],"points_earned":132,"trial_type":"horizons-task","trial_index":70,"time_elapsed":741389,"internal_node_id":"0.0-66.0"},{"response_times":[550.2649999689311,347.48499997658655,407.99500001594424,874.039999966044,933.6899999761954,549.6100000455044,242.8700000164099,215.90000001015142,210.80499998060986,356.4299999852665],"keys_pressed":["rightarrow","leftarrow","rightarrow","rightarrow","rightarrow","rightarrow","rightarrow","rightarrow","rightarrow","rightarrow"],"horizon":10,"forced_choices":["rightarrow","leftarrow","rightarrow","rightarrow"],"right_color":"lightblue","left_color":"orange","left_mu":40,"right_mu":70,"left_numbers":[37,46,31,50,40,35,19,38,44,41],"right_numbers":[63,67,78,62,74,72,79,66,73,69],"points_earned":682,"trial_type":"horizons-task","trial_index":71,"time_elapsed":747582,"internal_node_id":"0.0-67.0"},{"response_times":[611.124999995809,700.8549999445677,866.4399999543093,591.6749999742024,755.1450000028126],"keys_pressed":["rightarrow","rightarrow","rightarrow","leftarrow","rightarrow"],"horizon":5,"forced_choices":["rightarrow","rightarrow","rightarrow","leftarrow"],"right_color":"orange","left_color":"lightblue","left_mu":40,"right_mu":44,"left_numbers":[33,33,36,34,39],"right_numbers":[24,30,40,40,38],"points_earned":166,"trial_type":"horizons-task","trial_index":72,"time_elapsed":752612,"internal_node_id":"0.0-68.0"},{"response_times":[393.48999998765066,413.5550000355579,584.9250000319444,603.0099999625236,1636.9900000281632],"keys_pressed":["rightarrow","leftarrow","leftarrow","rightarrow","rightarrow"],"horizon":5,"forced_choices":["rightarrow","leftarrow","leftarrow","rightarrow"],"right_color":"lightblue","left_color":"orange","left_mu":40,"right_mu":32,"left_numbers":[44,31,42,30,49],"right_numbers":[32,31,41,48,30],"points_earned":183,"trial_type":"horizons-task","trial_index":73,"time_elapsed":757748,"internal_node_id":"0.0-69.0"},{"response_times":[24417.77000000002,376.7750000115484,371.34000001242384,362.4800000106916,853.0800000298768,341.9949999661185,200.8600000408478,193.27500002691522,173.81000000750646,400.2350000082515],"keys_pressed":["leftarrow","rightarrow","rightarrow","rightarrow","rightarrow","rightarrow","rightarrow","rightarrow","rightarrow","rightarrow"],"horizon":10,"forced_choices":["leftarrow","rightarrow","rightarrow","rightarrow"],"right_color":"lightblue","left_color":"orange","left_mu":60,"right_mu":90,"left_numbers":[53,48,72,50,62,68,81,51,68,72],"right_numbers":[89,96,87,83,96,77,92,80,101,86],"points_earned":851,"trial_type":"horizons-task","trial_index":74,"time_elapsed":786944,"internal_node_id":"0.0-70.0"},{"response_times":[341.6999999899417,352.1799999871291,462.3450000071898,768.3649999671616,364.3849999643862],"keys_pressed":["rightarrow","leftarrow","leftarrow","leftarrow","leftarrow"],"horizon":5,"forced_choices":["rightarrow","leftarrow","leftarrow","leftarrow"],"right_color":"orange","left_color":"lightblue","left_mu":40,"right_mu":10,"left_numbers":[34,32,35,53,38],"right_numbers":[8,17,8,16,16],"points_earned":166,"trial_type":"horizons-task","trial_index":75,"time_elapsed":790736,"internal_node_id":"0.0-71.0"},{"response_times":[446.17000001017004,323.1200000154786,377.4350000312552,392.82499998807907,1441.56499998644],"keys_pressed":["leftarrow","rightarrow","leftarrow","rightarrow","rightarrow"],"horizon":5,"forced_choices":["leftarrow","rightarrow","leftarrow","rightarrow"],"right_color":"lightblue","left_color":"orange","left_mu":60,"right_mu":68,"left_numbers":[51,55,59,77,68],"right_numbers":[75,75,63,57,66],"points_earned":308,"trial_type":"horizons-task","trial_index":76,"time_elapsed":795221,"internal_node_id":"0.0-72.0"},{"response_times":[467.55999996094033,719.489999988582,418.66500000469387,404.37499998370185,497.5199999753386,346.2350000045262,201.03500003460795,187.59499996667728,160.0899999612011,316.48999999742955],"keys_pressed":["rightarrow","rightarrow","leftarrow","rightarrow","rightarrow","rightarrow","rightarrow","rightarrow","rightarrow","rightarrow"],"horizon":10,"forced_choices":["rightarrow","rightarrow","leftarrow","rightarrow"],"right_color":"orange","left_color":"lightblue","left_mu":40,"right_mu":60,"left_numbers":[34,40,32,36,27,35,31,42,37,39],"right_numbers":[67,64,59,63,64,56,59,78,54,59],"points_earned":596,"trial_type":"horizons-task","trial_index":77,"time_elapsed":800445,"internal_node_id":"0.0-73.0"},{"response_times":[432.38999997265637,373.04999999469146,512.4499999801628,382.7349999919534,686.0149999847636],"keys_pressed":["leftarrow","leftarrow","leftarrow","rightarrow","rightarrow"],"horizon":5,"forced_choices":["leftarrow","leftarrow","leftarrow","rightarrow"],"right_color":"lightblue","left_color":"orange","left_mu":60,"right_mu":90,"left_numbers":[59,64,42,69,65],"right_numbers":[90,93,108,85,86],"points_earned":336,"trial_type":"horizons-task","trial_index":78,"time_elapsed":804335,"internal_node_id":"0.0-74.0"},{"response_times":[665.755000023637,350.3400000045076,350.754999963101,410.2699999930337,1693.6749999877065],"keys_pressed":["rightarrow","leftarrow","rightarrow","leftarrow","leftarrow"],"horizon":5,"forced_choices":["rightarrow","leftarrow","rightarrow","leftarrow"],"right_color":"lightblue","left_color":"orange","left_mu":60,"right_mu":52,"left_numbers":[67,58,68,60,66],"right_numbers":[61,40,47,57,58],"points_earned":292,"trial_type":"horizons-task","trial_index":79,"time_elapsed":809308,"internal_node_id":"0.0-75.0"},{"response_times":[661.1200000043027,401.34499996202067,388.3849999983795,752.4100000155158,223.07000000728294],"keys_pressed":["leftarrow","leftarrow","rightarrow","leftarrow","rightarrow"],"horizon":5,"forced_choices":["leftarrow","leftarrow","rightarrow","leftarrow"],"right_color":"lightblue","left_color":"orange","left_mu":40,"right_mu":52,"left_numbers":[31,47,45,42,33],"right_numbers":[55,59,52,56,54],"points_earned":226,"trial_type":"horizons-task","trial_index":80,"time_elapsed":813238,"internal_node_id":"0.0-76.0"},{"response_times":[520.6800000160001,313.64000000758097,478.2850000192411,519.2099999985658,356.88500001560897],"keys_pressed":["leftarrow","rightarrow","leftarrow","rightarrow","leftarrow"],"horizon":5,"forced_choices":["leftarrow","rightarrow","leftarrow","rightarrow"],"right_color":"lightblue","left_color":"orange","left_mu":40,"right_mu":20,"left_numbers":[37,34,27,34,44],"right_numbers":[20,5,19,23,9],"points_earned":136,"trial_type":"horizons-task","trial_index":81,"time_elapsed":816930,"internal_node_id":"0.0-77.0"},{"response_times":[566.6849999688566,376.0350000229664,465.5750000383705,476.82500001974404,1252.5000000023283,187.3650000197813,157.7699999907054,137.61999999405816,141.76999998744577,326.7200000118464],"keys_pressed":["rightarrow","leftarrow","leftarrow","leftarrow","leftarrow","leftarrow","leftarrow","leftarrow","leftarrow","leftarrow"],"horizon":10,"forced_choices":["rightarrow","leftarrow","leftarrow","leftarrow"],"right_color":"orange","left_color":"lightblue","left_mu":60,"right_mu":64,"left_numbers":[58,61,58,68,61,63,53,57,46,58],"right_numbers":[42,70,63,66,59,67,62,62,71,65],"points_earned":567,"trial_type":"horizons-task","trial_index":82,"time_elapsed":822524,"internal_node_id":"0.0-78.0"},{"response_times":[665.865000046324,387.1800000197254,417.4350000103004,810.6450000195764,479.02499994961545,319.1599999554455,188.64499998744577,145.26999997906387,191.70500000473112,178.82999998982996],"keys_pressed":["leftarrow","rightarrow","leftarrow","leftarrow","rightarrow","rightarrow","rightarrow","rightarrow","rightarrow","rightarrow"],"horizon":10,"forced_choices":["leftarrow","rightarrow","leftarrow","leftarrow"],"right_color":"orange","left_color":"lightblue","left_mu":60,"right_mu":72,"left_numbers":[59,60,58,53,71,78,64,49,51,53],"right_numbers":[74,76,75,73,74,82,70,69,70,65],"points_earned":676,"trial_type":"horizons-task","trial_index":83,"time_elapsed":827811,"internal_node_id":"0.0-79.0"},{"response_times":[363.8649999629706,312.96500004827976,361.27499997382984,616.1649999557994,601.1799999978393,207.36000000033528,152.9649999574758,157.34999999403954,169.33000000426546,394.1399999894202],"keys_pressed":["rightarrow","leftarrow","rightarrow","leftarrow","leftarrow","leftarrow","leftarrow","leftarrow","leftarrow","leftarrow"],"horizon":10,"forced_choices":["rightarrow","leftarrow","rightarrow","leftarrow"],"right_color":"orange","left_color":"lightblue","left_mu":40,"right_mu":36,"left_numbers":[37,34,25,42,36,49,40,42,39,37],"right_numbers":[29,33,22,44,32,40,32,29,40,36],"points_earned":370,"trial_type":"horizons-task","trial_index":84,"time_elapsed":832651,"internal_node_id":"0.0-80.0"},{"response_times":[376.1950000189245,471.4699999894947,458.87000003131106,630.3550000302494,613.1649999879301,193.33499995991588,179.51499996706843,160.9800000442192,178.98999998578802,644.5199999725446],"keys_pressed":["leftarrow","leftarrow","leftarrow","rightarrow","leftarrow","leftarrow","leftarrow","leftarrow","leftarrow","leftarrow"],"horizon":10,"forced_choices":["leftarrow","leftarrow","leftarrow","rightarrow"],"right_color":"orange","left_color":"lightblue","left_mu":40,"right_mu":28,"left_numbers":[39,50,47,44,31,28,29,44,39,46],"right_numbers":[23,18,33,20,34,26,36,17,11,40],"points_earned":373,"trial_type":"horizons-task","trial_index":85,"time_elapsed":838062,"internal_node_id":"0.0-81.0"},{"response_times":[485.3199999779463,355.20499997073784,708.4799999720417,372.67999997129664,375.0049999798648,238.30499994801357,189.37500001629815,176.99000000720844,174.79499999899417,172.23999998532236],"keys_pressed":["rightarrow","leftarrow","leftarrow","rightarrow","rightarrow","rightarrow","rightarrow","rightarrow","rightarrow","rightarrow"],"horizon":10,"forced_choices":["rightarrow","leftarrow","leftarrow","rightarrow"],"right_color":"orange","left_color":"lightblue","left_mu":60,"right_mu":90,"left_numbers":[57,62,46,54,77,60,61,64,56,59],"right_numbers":[85,89,86,92,102,95,85,98,85,74],"points_earned":824,"trial_type":"horizons-task","trial_index":86,"time_elapsed":842815,"internal_node_id":"0.0-82.0"},{"response_times":[637.2650000266731,328.48500000545755,576.2100000283681,587.740000046324,448.74500000150874,203.96000001346692,170.2200000290759,168.1949999765493,177.5350000243634,187.1099999989383],"keys_pressed":["leftarrow","rightarrow","leftarrow","rightarrow","rightarrow","rightarrow","rightarrow","rightarrow","rightarrow","rightarrow"],"horizon":10,"forced_choices":["leftarrow","rightarrow","leftarrow","rightarrow"],"right_color":"orange","left_color":"lightblue","left_mu":60,"right_mu":90,"left_numbers":[69,55,68,68,67,65,56,60,64,53],"right_numbers":[88,83,81,86,99,99,100,93,89,99],"points_earned":885,"trial_type":"horizons-task","trial_index":87,"time_elapsed":847824,"internal_node_id":"0.0-83.0"},{"response_times":[611.2599999760278,382.39500002237037,592.5350000034086,459.04499996686354,503.15999996382743],"keys_pressed":["leftarrow","rightarrow","rightarrow","leftarrow","rightarrow"],"horizon":5,"forced_choices":["leftarrow","rightarrow","rightarrow","leftarrow"],"right_color":"lightblue","left_color":"orange","left_mu":40,"right_mu":60,"left_numbers":[49,54,31,36,28],"right_numbers":[54,65,70,64,68],"points_earned":288,"trial_type":"horizons-task","trial_index":88,"time_elapsed":851876,"internal_node_id":"0.0-84.0"},{"response_times":[481.084999977611,295.72999995434657,424.0449999924749,398.47999997437,734.7749999607913],"keys_pressed":["leftarrow","rightarrow","leftarrow","rightarrow","rightarrow"],"horizon":5,"forced_choices":["leftarrow","rightarrow","leftarrow","rightarrow"],"right_color":"orange","left_color":"lightblue","left_mu":60,"right_mu":72,"left_numbers":[64,46,54,51,64],"right_numbers":[58,65,71,70,79],"points_earned":332,"trial_type":"horizons-task","trial_index":89,"time_elapsed":855714,"internal_node_id":"0.0-85.0"},{"rt":12298.130000010133,"responses":{"age":"32","gender-categorical":"Female","gender-free-response":"","ethnicity":"Not Hispanic or Latino","race":["Asian"],"language":"Yes","fluency":"Very well"},"survey":"demographics","trial_type":"survey-demo","trial_index":90,"time_elapsed":868017,"internal_node_id":"0.0-86.0"},{"rt":9942.45500001125,"responses":{"difficulty":"5","fun":"4","clarity":"5","strategy":"no","feedback":""},"survey":"debrief","trial_type":"survey-debrief","trial_index":91,"time_elapsed":877970,"internal_node_id":"0.0-87.0","interactions":"[{\"event\":\"blur\",\"trial\":3,\"time\":125431},{\"event\":\"focus\",\"trial\":3,\"time\":128725},{\"event\":\"blur\",\"trial\":74,\"time\":764066},{\"event\":\"focus\",\"trial\":74,\"time\":781042}]"}]