[{"view_history":"[{\"page_index\":0,\"viewing_time\":6352.084999991348}]","rt":6354.865000001155,"trial_type":"instructions","trial_index":0,"time_elapsed":6406,"internal_node_id":"0.0-0.0"},{"item_order":[5,0,12,6,4,10,3,9,7,2,8,11,1],"responses":{"Q06":"0","Q01":"2","Q13":"4","Q07":"3","Q05":"2","Q11":"2","Q04":"2","Q10":"1","Q08":"3","Q03":"2","Q09":"2","Q12":"3","Q02":"1"},"radio_events":[55810.85000000894,72249.06999999075,86734.55500000273,97269.10499998485,118893.97999999346,134078.07499999763,145061.8099999847,150627.46499999776,151092.0299999998,151387.87000000593,152058.83999998332,152306.25500000315,197420.5399999919,202967.49999999884,211508.15499998862,218304.2799999821,224827.4349999847,230804.96000000858,232438.22000001092,249106.0099999886],"key_events":[150627.46499999776,151092.0299999998,151387.87000000593,152058.83999998332,152306.25500000315],"mouse_events":[0.37999998312443495,55810.85000000894,72249.06999999075,86734.55500000273,97269.10499998485,118893.97999999346,134078.07499999763,145061.8099999847,154721.2399999844,197420.5399999919,202967.49999999884,209592.19500000472,211508.15499998862,218304.2799999821,224827.4349999847,230804.96000000858,232438.22000001092,249106.0099999886,256779.1300000099],"rt":256788.9950000099,"survey":"ius12","trial_type":"survey-template","trial_index":1,"time_elapsed":263216,"internal_node_id":"0.0-1.0"},{"item_order":[10,13,1,6,15,14,2,3,4,12,9,0,5,11,16,8,7],"responses":{"Q11":"1","Q14":"2","Q02":"1","Q07":"2","Q16":"4","Q15":"0","Q03":"3","Q04":"1","Q05":"2","Q13":"2","Q10":"3","Q01":"4","Q06":"3","Q12":"0","Q17":"1","Q09":"2","Q08":"3"},"radio_events":[31822.91499999701,40001.365000003716,44114.55499997828,51596.82999999495,58191.65999998222,64902.014999999665,72197.11499998812,78295.56999998749,86184.53999998746,89296.2600000028,89513.09500000207,90161.4899999986,90491.5650000039,90683.28499997733,120759.49999998556,125266.42999998876,137286.29999997793,143807.0149999985,150630.92500000494,156891.84999998542,169911.00500000175,176721.93999998854],"key_events":[89296.2600000028,89513.09500000207,90161.4899999986,90491.5650000039,90683.28499997733],"mouse_events":[31822.91499999701,40001.365000003716,44114.55499997828,51596.82999999495,58191.65999998222,64902.014999999665,72197.11499998812,78295.56999998749,86184.53999998746,92951.51499999338,120759.49999998556,125266.42999998876,137286.29999997793,143807.0149999985,150630.92500000494,156891.84999998542,169911.00500000175,176721.93999998854,178918.9400000032],"rt":178928.8649999944,"survey":"pswq","trial_type":"survey-template","trial_index":2,"time_elapsed":442165,"internal_node_id":"0.0-2.0"},{"view_history":"[{\"page_index\":0,\"viewing_time\":10701.700000005076},{\"page_index\":1,\"viewing_time\":15236.810000002151},{\"page_index\":2,\"viewing_time\":45566.14000000991},{\"page_index\":3,\"viewing_time\":18561.564999981783},{\"page_index\":4,\"viewing_time\":16096.805000008317},{\"page_index\":5,\"viewing_time\":11301.355000003241},{\"page_index\":6,\"viewing_time\":29513.77499999944},{\"page_index\":7,\"viewing_time\":215560.92499999795},{\"page_index\":8,\"viewing_time\":21235.599999985425},{\"page_index\":9,\"viewing_time\":29353.925000003073}]","rt":413129.6750000038,"trial_type":"instructions","trial_index":3,"time_elapsed":855300,"internal_node_id":"0.0-3.0-0.0"},{"response_times":[17436.725000006845,2824.9650000070687,972.0850000157952,1016.6199999803212,2366.875000006985],"keys_pressed":["rightarrow","leftarrow","rightarrow","rightarrow","leftarrow"],"horizon":5,"forced_choices":["rightarrow","leftarrow","rightarrow","rightarrow"],"right_color":"lightblue","left_color":"orange","left_mu":40,"right_mu":20,"left_numbers":[37,34,30,32,42],"right_numbers":[34,20,22,16,16],"points_earned":148,"trial_type":"horizons-task","trial_index":4,"time_elapsed":881449,"internal_node_id":"0.0-3.0-1.0"},{"response_times":[3774.990000005346,852.8549999755342,596.5499999874737,611.1349999846425,2161.4150000095833,1563.5550000006333,921.0849999799393,1130.990000005113,940.0500000047032,902.3700000252575],"keys_pressed":["leftarrow","leftarrow","rightarrow","rightarrow","leftarrow","rightarrow","leftarrow","rightarrow","leftarrow","rightarrow"],"horizon":10,"forced_choices":["leftarrow","leftarrow","rightarrow","rightarrow"],"right_color":"orange","left_color":"lightblue","left_mu":60,"right_mu":70,"left_numbers":[67,56,75,69,52,60,52,67,71,58],"right_numbers":[70,66,74,61,70,75,67,77,79,70],"points_earned":655,"trial_type":"horizons-task","trial_index":5,"time_elapsed":896413,"internal_node_id":"0.0-3.0-2.0"},{"view_history":"[{\"page_index\":0,\"viewing_time\":7896.2699999974575},{\"page_index\":1,\"viewing_time\":2487.685000000056},{\"page_index\":2,\"viewing_time\":1223.150000005262},{\"page_index\":3,\"viewing_time\":2612.619999999879}]","rt":14220.730000000913,"trial_type":"instructions","trial_index":6,"time_elapsed":910636,"internal_node_id":"0.0-3.0-3.0"},{"responses":["true","false","true","true"],"num_errors":1,"rt":68722.30500000296,"trial_type":"horizons-comprehension","trial_index":7,"time_elapsed":979368,"internal_node_id":"0.0-3.0-4.0"},{"view_history":"[{\"page_index\":0,\"viewing_time\":12844.799999991665},{\"page_index\":1,\"viewing_time\":5981.260000000475}]","rt":18827.024999976857,"trial_type":"instructions","trial_index":8,"time_elapsed":998208,"internal_node_id":"0.0-4.0"},{"response_times":[8241.739999997662,4349.3600000219885,3001.2400000123307,2930.6300000171177,4011.2800000060815],"keys_pressed":["rightarrow","rightarrow","leftarrow","leftarrow","rightarrow"],"horizon":5,"forced_choices":["rightarrow","rightarrow","leftarrow","leftarrow"],"right_color":"orange","left_color":"lightblue","left_mu":60,"right_mu":48,"left_numbers":[59,57,63,64,47],"right_numbers":[40,51,54,33,46],"points_earned":264,"trial_type":"horizons-task","trial_index":9,"time_elapsed":1022268,"internal_node_id":"0.0-5.0"},{"response_times":[5274.910000007367,1454.7249999886844,1160.860000003595,1019.9849999917205,574.2150000005495],"keys_pressed":["leftarrow","leftarrow","rightarrow","rightarrow","leftarrow"],"horizon":5,"forced_choices":["leftarrow","leftarrow","rightarrow","rightarrow"],"right_color":"orange","left_color":"lightblue","left_mu":40,"right_mu":20,"left_numbers":[25,39,48,49,39],"right_numbers":[13,29,21,16,21],"points_earned":140,"trial_type":"horizons-task","trial_index":10,"time_elapsed":1033258,"internal_node_id":"0.0-6.0"},{"response_times":[2223.474999977043,932.4499999929685,678.699999989476,719.7699999960605,1545.5900000233669,1578.3200000005309,1497.7550000185147,2070.915000018431,941.8650000006892,10916.354999993928],"keys_pressed":["leftarrow","rightarrow","leftarrow","leftarrow","rightarrow","rightarrow","leftarrow","rightarrow","leftarrow","rightarrow"],"horizon":10,"forced_choices":["leftarrow","rightarrow","leftarrow","leftarrow"],"right_color":"lightblue","left_color":"orange","left_mu":40,"right_mu":48,"left_numbers":[35,47,46,28,42,37,33,31,30,32],"right_numbers":[51,37,36,40,60,53,57,57,49,44],"points_earned":423,"trial_type":"horizons-task","trial_index":11,"time_elapsed":1057873,"internal_node_id":"0.0-7.0"},{"response_times":[2650.7199999759905,798.689999995986,678.5600000002887,480.7499999878928,3581.450000026962,3298.305000003893,354.82999999658205,674.7200000099838,904.1250000009313,1264.3950000056066],"keys_pressed":["rightarrow","leftarrow","leftarrow","rightarrow","leftarrow","rightarrow","leftarrow","rightarrow","rightarrow","leftarrow"],"horizon":10,"forced_choices":["rightarrow","leftarrow","leftarrow","rightarrow"],"right_color":"orange","left_color":"lightblue","left_mu":40,"right_mu":70,"left_numbers":[28,39,24,44,33,54,43,46,51,56],"right_numbers":[89,59,67,65,73,86,59,78,72,66],"points_earned":585,"trial_type":"horizons-task","trial_index":12,"time_elapsed":1074066,"internal_node_id":"0.0-8.0"},{"response_times":[2327.4300000048243,861.8149999820162,642.8699999814853,559.5549999852665,4643.279999989318],"keys_pressed":["leftarrow","rightarrow","leftarrow","rightarrow","rightarrow"],"horizon":5,"forced_choices":["leftarrow","rightarrow","leftarrow","rightarrow"],"right_color":"lightblue","left_color":"orange","left_mu":60,"right_mu":48,"left_numbers":[55,57,57,67,61],"right_numbers":[47,50,41,45,47],"points_earned":254,"trial_type":"horizons-task","trial_index":13,"time_elapsed":1084610,"internal_node_id":"0.0-9.0"},{"response_times":[1681.5399999904912,1488.9100000145845,5568.5949999897275,476.85499998624437,1601.6949999902863,872.3450000106823,1790.869999997085,2145.424999995157,1115.7949999906123,2861.3599999807775],"keys_pressed":["rightarrow","rightarrow","leftarrow","leftarrow","rightarrow","rightarrow","leftarrow","leftarrow","rightarrow","leftarrow"],"horizon":10,"forced_choices":["rightarrow","rightarrow","leftarrow","leftarrow"],"right_color":"orange","left_color":"lightblue","left_mu":60,"right_mu":48,"left_numbers":[55,54,68,63,59,49,54,58,53,56],"right_numbers":[50,50,55,51,45,61,41,54,43,47],"points_earned":548,"trial_type":"horizons-task","trial_index":14,"time_elapsed":1105720,"internal_node_id":"0.0-10.0"},{"response_times":[787.834999995539,431.06500001158565,824.0499999956228,1041.2749999959487,1894.384999992326,856.8749999976717,1053.4850000112783,336.50000000488944,2611.6500000061933,406.96999998181127],"keys_pressed":["rightarrow","rightarrow","leftarrow","rightarrow","leftarrow","rightarrow","leftarrow","rightarrow","leftarrow","rightarrow"],"horizon":10,"forced_choices":["rightarrow","rightarrow","leftarrow","rightarrow"],"right_color":"orange","left_color":"lightblue","left_mu":60,"right_mu":64,"left_numbers":[74,76,72,55,65,63,58,70,53,47],"right_numbers":[60,70,49,66,57,52,41,66,56,65],"points_earned":627,"trial_type":"horizons-task","trial_index":15,"time_elapsed":1117489,"internal_node_id":"0.0-11.0"},{"response_times":[3585.3899999929126,955.1799999899231,699.2650000029244,638.0599999974947,1194.8099999863189,274.4599999859929,517.0600000128616,166.1350000067614,770.0600000098348,113.49499999778345],"keys_pressed":["leftarrow","rightarrow","leftarrow","leftarrow","leftarrow","rightarrow","rightarrow","leftarrow","leftarrow","rightarrow"],"horizon":10,"forced_choices":["leftarrow","rightarrow","leftarrow","leftarrow"],"right_color":"lightblue","left_color":"orange","left_mu":60,"right_mu":56,"left_numbers":[49,57,74,73,49,51,49,53,64,60],"right_numbers":[57,55,69,58,56,53,58,65,56,49],"points_earned":577,"trial_type":"horizons-task","trial_index":16,"time_elapsed":1127910,"internal_node_id":"0.0-12.0"},{"response_times":[1229.7250000119675,1983.6299999733455,1003.0200000037439,519.9000000138767,501.78500000038184,420.9099999861792,1012.0850000239443,322.1049999992829,369.96999999973923,911.839999986114],"keys_pressed":["rightarrow","rightarrow","leftarrow","rightarrow","leftarrow","rightarrow","leftarrow","leftarrow","rightarrow","rightarrow"],"horizon":10,"forced_choices":["rightarrow","rightarrow","leftarrow","rightarrow"],"right_color":"orange","left_color":"lightblue","left_mu":40,"right_mu":60,"left_numbers":[35,42,40,51,39,41,38,27,46,40],"right_numbers":[63,57,65,56,50,50,69,53,65,56],"points_earned":491,"trial_type":"horizons-task","trial_index":17,"time_elapsed":1137693,"internal_node_id":"0.0-13.0"},{"response_times":[7063.655000005383,2671.7099999950733,6498.735000001034,2873.9350000105333,799.1949999995995,632.7750000054948,377.2600000083912,1139.1100000182632,259.43000000552274,937.4599999864586],"keys_pressed":["rightarrow","rightarrow","leftarrow","leftarrow","rightarrow","leftarrow","leftarrow","leftarrow","rightarrow","leftarrow"],"horizon":10,"forced_choices":["rightarrow","rightarrow","leftarrow","leftarrow"],"right_color":"lightblue","left_color":"orange","left_mu":60,"right_mu":52,"left_numbers":[76,56,65,58,60,63,56,67,57,48],"right_numbers":[54,58,46,55,50,53,48,58,40,53],"points_earned":559,"trial_type":"horizons-task","trial_index":18,"time_elapsed":1162452,"internal_node_id":"0.0-14.0"},{"response_times":[9160.485000000335,2154.695000004722,946.6000000247732,946.1949999968056,2623.569999996107,17173.37500001304,3637.5199999893084,1274.2100000032224,1010.9800000209361,501.91000002087094],"keys_pressed":["rightarrow","leftarrow","leftarrow","rightarrow","leftarrow","rightarrow","leftarrow","leftarrow","leftarrow","leftarrow"],"horizon":10,"forced_choices":["rightarrow","leftarrow","leftarrow","rightarrow"],"right_color":"orange","left_color":"lightblue","left_mu":40,"right_mu":20,"left_numbers":[32,46,42,38,42,55,36,31,30,34],"right_numbers":[14,17,10,17,26,30,14,23,36,34],"points_earned":322,"trial_type":"horizons-task","trial_index":19,"time_elapsed":1203392,"internal_node_id":"0.0-15.0"},{"response_times":[4087.3199999914505,525.3549999906681,490.0099999795202,878.9849999884609,1701.6449999937322],"keys_pressed":["leftarrow","leftarrow","rightarrow","rightarrow","leftarrow"],"horizon":5,"forced_choices":["leftarrow","leftarrow","rightarrow","rightarrow"],"right_color":"orange","left_color":"lightblue","left_mu":60,"right_mu":56,"left_numbers":[54,42,54,41,58],"right_numbers":[45,47,55,49,58],"points_earned":258,"trial_type":"horizons-task","trial_index":20,"time_elapsed":1212582,"internal_node_id":"0.0-16.0"},{"response_times":[2086.9999999995343,574.9000000068918,1156.5950000076555,475.7050000189338,1155.9750000014901,792.5600000016857,1193.169999984093,1012.7749999810476,659.9249999853782,1100.0549999880604],"keys_pressed":["leftarrow","leftarrow","rightarrow","leftarrow","rightarrow","leftarrow","rightarrow","rightarrow","leftarrow","leftarrow"],"horizon":10,"forced_choices":["leftarrow","leftarrow","rightarrow","leftarrow"],"right_color":"orange","left_color":"lightblue","left_mu":40,"right_mu":28,"left_numbers":[40,25,31,31,37,29,32,47,47,32],"right_numbers":[26,38,30,31,24,17,43,31,29,29],"points_earned":332,"trial_type":"horizons-task","trial_index":21,"time_elapsed":1224357,"internal_node_id":"0.0-17.0"},{"response_times":[719.054999994114,597.9899999802001,914.2399999836925,490.58499999227934,862.1350000030361,594.6849999891128,1175.760000012815,991.5449999971315,1047.9300000006333,837.9100000020117],"keys_pressed":["leftarrow","leftarrow","rightarrow","leftarrow","rightarrow","rightarrow","rightarrow","rightarrow","rightarrow","leftarrow"],"horizon":10,"forced_choices":["leftarrow","leftarrow","rightarrow","leftarrow"],"right_color":"lightblue","left_color":"orange","left_mu":60,"right_mu":80,"left_numbers":[62,61,54,51,56,63,51,56,56,55],"right_numbers":[74,79,75,91,72,73,76,85,67,89],"points_earned":677,"trial_type":"horizons-task","trial_index":22,"time_elapsed":1234106,"internal_node_id":"0.0-18.0"},{"response_times":[879.8450000176672,589.2250000033528,620.2350000094157,767.2650000022259,1404.6000000089407],"keys_pressed":["rightarrow","leftarrow","rightarrow","leftarrow","rightarrow"],"horizon":5,"forced_choices":["rightarrow","leftarrow","rightarrow","leftarrow"],"right_color":"lightblue","left_color":"orange","left_mu":40,"right_mu":28,"left_numbers":[39,38,27,43,36],"right_numbers":[35,37,29,24,28],"points_earned":173,"trial_type":"horizons-task","trial_index":23,"time_elapsed":1239873,"internal_node_id":"0.0-19.0"},{"response_times":[847.555000014836,767.4999999871943,888.8399999996182,708.6949999793433,1175.7700000016484,607.7099999820348,1003.0050000059418,818.1299999996554,645.394999999553,826.4400000043679],"keys_pressed":["rightarrow","leftarrow","rightarrow","leftarrow","leftarrow","leftarrow","rightarrow","leftarrow","leftarrow","leftarrow"],"horizon":10,"forced_choices":["rightarrow","leftarrow","rightarrow","leftarrow"],"right_color":"orange","left_color":"lightblue","left_mu":60,"right_mu":48,"left_numbers":[63,54,52,55,59,44,66,73,61,63],"right_numbers":[47,30,53,46,53,41,38,30,55,58],"points_earned":547,"trial_type":"horizons-task","trial_index":24,"time_elapsed":1249668,"internal_node_id":"0.0-20.0"},{"response_times":[3541.9850000180304,673.834999994142,962.1800000022631,539.8500000010245,1235.0900000019465,653.4600000013597,759.1949999914505,1222.780000010971,1131.1750000168104,755.0499999779277],"keys_pressed":["leftarrow","rightarrow","rightarrow","rightarrow","leftarrow","leftarrow","rightarrow","rightarrow","leftarrow","leftarrow"],"horizon":10,"forced_choices":["leftarrow","rightarrow","rightarrow","rightarrow"],"right_color":"lightblue","left_color":"orange","left_mu":40,"right_mu":28,"left_numbers":[29,41,34,43,47,26,39,33,38,37],"right_numbers":[33,22,25,26,37,47,30,33,20,19],"points_earned":313,"trial_type":"horizons-task","trial_index":25,"time_elapsed":1262648,"internal_node_id":"0.0-21.0"},{"response_times":[1047.3500000080094,1071.4900000020862,774.6700000134297,1227.8349999978673,844.3250000127591,754.224999982398,1398.609999974724,585.720000002766,807.0200000074692,791.1550000135321],"keys_pressed":["leftarrow","rightarrow","leftarrow","rightarrow","rightarrow","leftarrow","leftarrow","rightarrow","rightarrow","rightarrow"],"horizon":10,"forced_choices":["leftarrow","rightarrow","leftarrow","rightarrow"],"right_color":"lightblue","left_color":"orange","left_mu":60,"right_mu":64,"left_numbers":[66,54,40,65,67,70,52,59,57,63],"right_numbers":[72,67,68,73,60,63,59,64,82,70],"points_earned":644,"trial_type":"horizons-task","trial_index":26,"time_elapsed":1273457,"internal_node_id":"0.0-22.0"},{"response_times":[729.4049999909475,855.7499999878928,527.0400000154041,539.9699999834411,1680.449999985285,723.7650000024587,560.6449999904726,641.4899999799673,548.4700000088196,863.2450000150129],"keys_pressed":["leftarrow","rightarrow","leftarrow","rightarrow","leftarrow","leftarrow","leftarrow","leftarrow","rightarrow","leftarrow"],"horizon":10,"forced_choices":["leftarrow","rightarrow","leftarrow","rightarrow"],"right_color":"orange","left_color":"lightblue","left_mu":60,"right_mu":40,"left_numbers":[62,71,70,49,49,54,68,59,48,51],"right_numbers":[54,42,51,48,38,39,43,51,37,37],"points_earned":540,"trial_type":"horizons-task","trial_index":27,"time_elapsed":1282633,"internal_node_id":"0.0-23.0"},{"response_times":[839.719999989029,1214.96000001207,654.6750000270549,643.96499999566,2039.2449999926612],"keys_pressed":["rightarrow","rightarrow","leftarrow","leftarrow","rightarrow"],"horizon":5,"forced_choices":["rightarrow","rightarrow","leftarrow","leftarrow"],"right_color":"orange","left_color":"lightblue","left_mu":40,"right_mu":52,"left_numbers":[27,26,41,46,49],"right_numbers":[59,56,51,45,46],"points_earned":248,"trial_type":"horizons-task","trial_index":28,"time_elapsed":1289548,"internal_node_id":"0.0-24.0"},{"response_times":[1089.1649999830406,1185.2150000049733,614.3549999978859,486.6749999928288,1725.1549999928102,1896.310000010999,445.91499998932704,767.9599999974016,557.5100000132807,590.85999999661],"keys_pressed":["rightarrow","rightarrow","leftarrow","rightarrow","rightarrow","rightarrow","leftarrow","leftarrow","rightarrow","rightarrow"],"horizon":10,"forced_choices":["rightarrow","rightarrow","leftarrow","rightarrow"],"right_color":"orange","left_color":"lightblue","left_mu":40,"right_mu":60,"left_numbers":[34,48,47,47,55,48,46,32,33,41],"right_numbers":[57,67,57,61,55,42,75,60,55,53],"points_earned":515,"trial_type":"horizons-task","trial_index":29,"time_elapsed":1300413,"internal_node_id":"0.0-25.0"},{"response_times":[1054.2249999998603,1298.464999999851,466.50499998941086,577.3599999956787,2359.809999994468],"keys_pressed":["leftarrow","leftarrow","rightarrow","leftarrow","leftarrow"],"horizon":5,"forced_choices":["leftarrow","leftarrow","rightarrow","leftarrow"],"right_color":"orange","left_color":"lightblue","left_mu":40,"right_mu":28,"left_numbers":[32,35,40,52,32],"right_numbers":[37,25,39,26,43],"points_earned":190,"trial_type":"horizons-task","trial_index":30,"time_elapsed":1307675,"internal_node_id":"0.0-26.0"},{"response_times":[877.2199999948498,1154.565000004368,743.3899999887217,620.7149999972899,911.8449999950826],"keys_pressed":["rightarrow","leftarrow","leftarrow","leftarrow","leftarrow"],"horizon":5,"forced_choices":["rightarrow","leftarrow","leftarrow","leftarrow"],"right_color":"orange","left_color":"lightblue","left_mu":40,"right_mu":20,"left_numbers":[38,49,48,34,41],"right_numbers":[22,41,19,13,16],"points_earned":194,"trial_type":"horizons-task","trial_index":31,"time_elapsed":1313489,"internal_node_id":"0.0-27.0"},{"response_times":[1066.740000009304,818.7749999924563,510.58000000193715,1010.4099999880418,2124.420000007376],"keys_pressed":["rightarrow","rightarrow","leftarrow","rightarrow","leftarrow"],"horizon":5,"forced_choices":["rightarrow","rightarrow","leftarrow","rightarrow"],"right_color":"orange","left_color":"lightblue","left_mu":60,"right_mu":64,"left_numbers":[63,60,74,62,70],"right_numbers":[69,68,58,57,70],"points_earned":338,"trial_type":"horizons-task","trial_index":32,"time_elapsed":1320525,"internal_node_id":"0.0-28.0"},{"response_times":[1247.575000015786,619.5299999963026,1398.3049999806099,824.1549999802373,1948.2950000092387],"keys_pressed":["rightarrow","leftarrow","leftarrow","rightarrow","leftarrow"],"horizon":5,"forced_choices":["rightarrow","leftarrow","leftarrow","rightarrow"],"right_color":"orange","left_color":"lightblue","left_mu":60,"right_mu":30,"left_numbers":[61,68,65,54,58],"right_numbers":[34,44,43,38,27],"points_earned":263,"trial_type":"horizons-task","trial_index":33,"time_elapsed":1328067,"internal_node_id":"0.0-29.0"},{"response_times":[1631.0899999807589,1377.2100000060163,832.9649999795947,1219.4449999951757,1698.3049999980722,763.104999990901,702.2149999975227,654.8249999759719,754.4099999940954,546.1550000181887],"keys_pressed":["leftarrow","leftarrow","rightarrow","rightarrow","leftarrow","leftarrow","leftarrow","leftarrow","rightarrow","leftarrow"],"horizon":10,"forced_choices":["leftarrow","leftarrow","rightarrow","rightarrow"],"right_color":"lightblue","left_color":"orange","left_mu":60,"right_mu":40,"left_numbers":[71,49,58,65,70,55,68,54,60,79],"right_numbers":[26,32,28,54,38,37,35,47,33,41],"points_earned":561,"trial_type":"horizons-task","trial_index":34,"time_elapsed":1339753,"internal_node_id":"0.0-30.0"},{"response_times":[922.3850000125822,646.0749999969266,1448.1500000110827,2295.415000000503,1906.380000000354],"keys_pressed":["rightarrow","leftarrow","rightarrow","rightarrow","rightarrow"],"horizon":5,"forced_choices":["rightarrow","leftarrow","rightarrow","rightarrow"],"right_color":"lightblue","left_color":"orange","left_mu":60,"right_mu":80,"left_numbers":[52,64,78,61,62],"right_numbers":[75,79,87,86,75],"points_earned":387,"trial_type":"horizons-task","trial_index":35,"time_elapsed":1348478,"internal_node_id":"0.0-31.0"},{"response_times":[871.0050000227056,969.7400000004563,476.27499999362044,515.3299999947194,2729.7099999850616,619.8100000037812,985.9549999819137,621.0850000206847,1468.059999984689,420.7649999880232],"keys_pressed":["leftarrow","rightarrow","leftarrow","rightarrow","leftarrow","leftarrow","rightarrow","leftarrow","rightarrow","leftarrow"],"horizon":10,"forced_choices":["leftarrow","rightarrow","leftarrow","rightarrow"],"right_color":"orange","left_color":"lightblue","left_mu":40,"right_mu":28,"left_numbers":[40,43,44,57,53,36,45,49,43,40],"right_numbers":[18,22,38,23,34,24,20,43,31,9],"points_earned":358,"trial_type":"horizons-task","trial_index":36,"time_elapsed":1359661,"internal_node_id":"0.0-32.0"},{"response_times":[1043.0249999917578,601.4950000098906,1005.7849999866448,923.369999974966,960.9399999899324,656.0600000084378,545.5649999785237,907.9600000113714,1208.5599999991246,530.0200000056066],"keys_pressed":["rightarrow","leftarrow","rightarrow","leftarrow","leftarrow","leftarrow","rightarrow","leftarrow","rightarrow","leftarrow"],"horizon":10,"forced_choices":["rightarrow","leftarrow","rightarrow","leftarrow"],"right_color":"lightblue","left_color":"orange","left_mu":40,"right_mu":10,"left_numbers":[47,33,64,40,35,30,41,49,34,46],"right_numbers":[2,10,11,5,7,6,0,0,7,11],"points_earned":253,"trial_type":"horizons-task","trial_index":37,"time_elapsed":1369551,"internal_node_id":"0.0-33.0"},{"response_times":[1064.5200000144541,477.485000010347,599.8949999921024,601.0999999998603,414.7449999873061,1480.5399999895599,644.1000000049826,848.519999999553,422.9600000253413,468.35499998996966],"keys_pressed":["rightarrow","leftarrow","leftarrow","rightarrow","leftarrow","leftarrow","leftarrow","rightarrow","leftarrow","leftarrow"],"horizon":10,"forced_choices":["rightarrow","leftarrow","leftarrow","rightarrow"],"right_color":"orange","left_color":"lightblue","left_mu":40,"right_mu":52,"left_numbers":[59,31,50,50,64,62,45,55,36,37],"right_numbers":[39,54,59,45,49,69,53,35,53,47],"points_earned":444,"trial_type":"horizons-task","trial_index":38,"time_elapsed":1378079,"internal_node_id":"0.0-34.0"},{"response_times":[658.4699999948498,907.9750000091735,491.859999980079,585.0550000031944,4945.669999986421],"keys_pressed":["leftarrow","rightarrow","leftarrow","rightarrow","rightarrow"],"horizon":5,"forced_choices":["leftarrow","rightarrow","leftarrow","rightarrow"],"right_color":"lightblue","left_color":"orange","left_mu":40,"right_mu":48,"left_numbers":[43,36,51,52,19],"right_numbers":[42,47,47,52,55],"points_earned":248,"trial_type":"horizons-task","trial_index":39,"time_elapsed":1387174,"internal_node_id":"0.0-35.0"},{"response_times":[1403.8100000179838,1075.9750000142958,447.59500000509433,1096.3800000026822,2762.95500001288],"keys_pressed":["rightarrow","rightarrow","leftarrow","rightarrow","rightarrow"],"horizon":5,"forced_choices":["rightarrow","rightarrow","leftarrow","rightarrow"],"right_color":"lightblue","left_color":"orange","left_mu":60,"right_mu":64,"left_numbers":[62,55,70,56,63],"right_numbers":[65,72,53,71,52],"points_earned":330,"trial_type":"horizons-task","trial_index":40,"time_elapsed":1395469,"internal_node_id":"0.0-36.0"},{"response_times":[793.8450000074226,970.1200000126846,1065.1450000004843,1592.8549999953248,1282.9799999890383],"keys_pressed":["leftarrow","rightarrow","rightarrow","rightarrow","rightarrow"],"horizon":5,"forced_choices":["leftarrow","rightarrow","rightarrow","rightarrow"],"right_color":"lightblue","left_color":"orange","left_mu":40,"right_mu":70,"left_numbers":[42,38,47,46,49],"right_numbers":[56,70,62,71,59],"points_earned":304,"trial_type":"horizons-task","trial_index":41,"time_elapsed":1402680,"internal_node_id":"0.0-37.0"},{"response_times":[779.6200000157114,342.81500001088716,754.670000023907,461.2949999864213,1652.4550000031013,1237.2700000123587,1563.4549999958836,625.705000013113,687.675000022864,973.1449999962933],"keys_pressed":["rightarrow","leftarrow","leftarrow","rightarrow","leftarrow","rightarrow","rightarrow","leftarrow","leftarrow","leftarrow"],"horizon":10,"forced_choices":["rightarrow","leftarrow","leftarrow","rightarrow"],"right_color":"lightblue","left_color":"orange","left_mu":40,"right_mu":36,"left_numbers":[56,57,35,37,41,29,50,45,38,53],"right_numbers":[34,26,37,39,32,42,25,41,28,32],"points_earned":409,"trial_type":"horizons-task","trial_index":42,"time_elapsed":1413264,"internal_node_id":"0.0-38.0"},{"response_times":[841.0549999971408,925.4549999895971,1012.3550000134856,604.9549999879673,778.9950000005774],"keys_pressed":["leftarrow","rightarrow","rightarrow","rightarrow","leftarrow"],"horizon":5,"forced_choices":["leftarrow","rightarrow","rightarrow","rightarrow"],"right_color":"orange","left_color":"lightblue","left_mu":40,"right_mu":52,"left_numbers":[43,36,46,20,25],"right_numbers":[54,45,45,65,52],"points_earned":223,"trial_type":"horizons-task","trial_index":43,"time_elapsed":1418934,"internal_node_id":"0.0-39.0"},{"response_times":[658.9349999849219,438.4000000136439,731.0299999953713,729.7549999784678,1032.2150000138208],"keys_pressed":["rightarrow","leftarrow","leftarrow","rightarrow","rightarrow"],"horizon":5,"forced_choices":["rightarrow","leftarrow","leftarrow","rightarrow"],"right_color":"lightblue","left_color":"orange","left_mu":60,"right_mu":72,"left_numbers":[56,57,43,59,66],"right_numbers":[81,56,68,71,63],"points_earned":315,"trial_type":"horizons-task","trial_index":44,"time_elapsed":1424029,"internal_node_id":"0.0-40.0"},{"response_times":[734.7000000008848,1012.1149999904446,705.4000000061933,628.6850000033155,2337.6850000058766],"keys_pressed":["leftarrow","leftarrow","rightarrow","leftarrow","leftarrow"],"horizon":5,"forced_choices":["leftarrow","leftarrow","rightarrow","leftarrow"],"right_color":"orange","left_color":"lightblue","left_mu":40,"right_mu":36,"left_numbers":[49,46,43,40,44],"right_numbers":[56,28,42,44,29],"points_earned":221,"trial_type":"horizons-task","trial_index":45,"time_elapsed":1430953,"internal_node_id":"0.0-41.0"},{"response_times":[727.2850000008475,664.2749999882653,1329.2249999940395,570.2449999807868,1447.7999999944586],"keys_pressed":["rightarrow","leftarrow","leftarrow","leftarrow","leftarrow"],"horizon":5,"forced_choices":["rightarrow","leftarrow","leftarrow","leftarrow"],"right_color":"lightblue","left_color":"orange","left_mu":60,"right_mu":48,"left_numbers":[68,69,56,55,58],"right_numbers":[40,46,43,68,54],"points_earned":278,"trial_type":"horizons-task","trial_index":46,"time_elapsed":1437198,"internal_node_id":"0.0-42.0"},{"response_times":[920.6499999854714,921.4499999943655,843.5799999861047,485.7649999903515,454.26500000758097,2070.2600000076927,772.8899999929126,1313.7099999876227,302.91500000748783,688.865000003716],"keys_pressed":["rightarrow","leftarrow","leftarrow","rightarrow","leftarrow","leftarrow","leftarrow","rightarrow","leftarrow","leftarrow"],"horizon":10,"forced_choices":["rightarrow","leftarrow","leftarrow","rightarrow"],"right_color":"lightblue","left_color":"orange","left_mu":40,"right_mu":28,"left_numbers":[40,37,52,41,47,38,45,24,34,39],"right_numbers":[35,21,31,26,25,40,31,10,11,32],"points_earned":363,"trial_type":"horizons-task","trial_index":47,"time_elapsed":1447478,"internal_node_id":"0.0-43.0"},{"response_times":[951.8300000054296,708.1150000158232,436.1499999940861,487.27000001235865,435.4000000166707,4210.190000012517,529.3850000016391,313.26500000432134,871.9000000273809,559.6249999944121],"keys_pressed":["rightarrow","rightarrow","leftarrow","rightarrow","leftarrow","leftarrow","rightarrow","leftarrow","leftarrow","leftarrow"],"horizon":10,"forced_choices":["rightarrow","rightarrow","leftarrow","rightarrow"],"right_color":"orange","left_color":"lightblue","left_mu":60,"right_mu":48,"left_numbers":[67,52,71,64,45,46,64,58,62,60],"right_numbers":[42,55,49,54,42,47,51,49,56,42],"points_earned":544,"trial_type":"horizons-task","trial_index":48,"time_elapsed":1458488,"internal_node_id":"0.0-44.0"},{"view_history":"[{\"page_index\":0,\"viewing_time\":35995.40000001434},{\"page_index\":1,\"viewing_time\":7416.19499999797}]","rt":43412.899999995716,"trial_type":"instructions","trial_index":49,"time_elapsed":1501905,"internal_node_id":"0.0-45.0"},{"response_times":[2489.044999994803,509.5499999879394,952.8500000014901,482.1899999806192,1920.2300000179093],"keys_pressed":["rightarrow","leftarrow","leftarrow","rightarrow","leftarrow"],"horizon":5,"forced_choices":["rightarrow","leftarrow","leftarrow","rightarrow"],"right_color":"lightblue","left_color":"orange","left_mu":40,"right_mu":20,"left_numbers":[40,33,29,43,42],"right_numbers":[10,21,13,20,14],"points_earned":134,"trial_type":"horizons-task","trial_index":50,"time_elapsed":1509783,"internal_node_id":"0.0-46.0"},{"response_times":[592.2450000070967,500.1699999847915,823.2349999889266,792.0049999956973,1136.6550000093412],"keys_pressed":["leftarrow","rightarrow","leftarrow","leftarrow","leftarrow"],"horizon":5,"forced_choices":["leftarrow","rightarrow","leftarrow","leftarrow"],"right_color":"lightblue","left_color":"orange","left_mu":60,"right_mu":56,"left_numbers":[72,56,61,64,58],"right_numbers":[44,40,55,51,68],"points_earned":295,"trial_type":"horizons-task","trial_index":51,"time_elapsed":1515132,"internal_node_id":"0.0-47.0"},{"response_times":[810.3249999985565,1037.3299999919254,470.62500001629815,630.0950000004377,1174.4850000250153],"keys_pressed":["rightarrow","rightarrow","rightarrow","leftarrow","rightarrow"],"horizon":5,"forced_choices":["rightarrow","rightarrow","rightarrow","leftarrow"],"right_color":"orange","left_color":"lightblue","left_mu":60,"right_mu":80,"left_numbers":[62,64,58,52,58],"right_numbers":[75,82,67,84,76],"points_earned":352,"trial_type":"horizons-task","trial_index":52,"time_elapsed":1520760,"internal_node_id":"0.0-48.0"},{"response_times":[648.2199999736622,675.3700000117533,518.6500000127126,611.6650000039954,1785.3199999954086,678.604999993695,1125.9749999735504,536.2549999845214,817.4400000134483,605.6150000076741],"keys_pressed":["rightarrow","rightarrow","leftarrow","leftarrow","leftarrow","leftarrow","leftarrow","rightarrow","rightarrow","rightarrow"],"horizon":10,"forced_choices":["rightarrow","rightarrow","leftarrow","leftarrow"],"right_color":"orange","left_color":"lightblue","left_mu":60,"right_mu":64,"left_numbers":[71,63,63,61,72,57,51,55,57,74],"right_numbers":[56,57,62,63,79,67,54,58,70,63],"points_earned":608,"trial_type":"horizons-task","trial_index":53,"time_elapsed":1530271,"internal_node_id":"0.0-49.0"},{"response_times":[830.4350000107661,479.68499999842606,621.3149999966845,540.5949999985751,4706.425000011222,546.6900000174064,544.8000000033062,475.7149999786634,898.5249999968801,570.9299999871291],"keys_pressed":["leftarrow","rightarrow","leftarrow","rightarrow","rightarrow","rightarrow","rightarrow","leftarrow","leftarrow","rightarrow"],"horizon":10,"forced_choices":["leftarrow","rightarrow","leftarrow","rightarrow"],"right_color":"orange","left_color":"lightblue","left_mu":60,"right_mu":68,"left_numbers":[64,54,58,60,68,64,73,73,52,52],"right_numbers":[67,67,66,66,76,62,62,60,55,64],"points_earned":644,"trial_type":"horizons-task","trial_index":54,"time_elapsed":1541993,"internal_node_id":"0.0-50.0"},{"response_times":[790.7899999991059,560.3249999985565,643.1249999732245,644.3500000168569,1335.7000000250991],"keys_pressed":["leftarrow","rightarrow","rightarrow","leftarrow","rightarrow"],"horizon":5,"forced_choices":["leftarrow","rightarrow","rightarrow","leftarrow"],"right_color":"lightblue","left_color":"orange","left_mu":40,"right_mu":60,"left_numbers":[39,41,55,40,30],"right_numbers":[65,55,53,60,68],"points_earned":255,"trial_type":"horizons-task","trial_index":55,"time_elapsed":1547473,"internal_node_id":"0.0-51.0"},{"response_times":[671.0349999775644,665.2549999998882,487.10999998729676,589.6599999978207,1354.5949999825098],"keys_pressed":["rightarrow","leftarrow","rightarrow","rightarrow","leftarrow"],"horizon":5,"forced_choices":["rightarrow","leftarrow","rightarrow","rightarrow"],"right_color":"orange","left_color":"lightblue","left_mu":60,"right_mu":48,"left_numbers":[61,60,57,43,50],"right_numbers":[54,38,53,54,55],"points_earned":271,"trial_type":"horizons-task","trial_index":56,"time_elapsed":1552772,"internal_node_id":"0.0-52.0"},{"response_times":[654.0300000051502,1139.1099999891594,530.0749999878462,527.7849999838509,1385.6849999865517,1005.1950000051875,1049.074999988079,819.2699999781325,670.1499999908265,1309.7500000149012],"keys_pressed":["leftarrow","leftarrow","leftarrow","rightarrow","leftarrow","leftarrow","rightarrow","leftarrow","leftarrow","leftarrow"],"horizon":10,"forced_choices":["leftarrow","leftarrow","leftarrow","rightarrow"],"right_color":"lightblue","left_color":"orange","left_mu":40,"right_mu":10,"left_numbers":[42,45,46,35,46,30,46,41,44,43],"right_numbers":[8,13,4,2,0,2,17,10,10,12],"points_earned":356,"trial_type":"horizons-task","trial_index":57,"time_elapsed":1563369,"internal_node_id":"0.0-53.0"},{"response_times":[705.3650000016205,511.36000000406057,479.75500000757165,765.2950000192504,1185.284999985015,1406.4200000138953,739.8050000192598,809.2950000136625,1131.7250000138301,683.6999999941327],"keys_pressed":["leftarrow","rightarrow","rightarrow","leftarrow","leftarrow","leftarrow","leftarrow","leftarrow","rightarrow","leftarrow"],"horizon":10,"forced_choices":["leftarrow","rightarrow","rightarrow","leftarrow"],"right_color":"lightblue","left_color":"orange","left_mu":60,"right_mu":56,"left_numbers":[55,62,64,58,58,72,67,57,66,55],"right_numbers":[53,48,66,49,58,56,53,60,47,45],"points_earned":583,"trial_type":"horizons-task","trial_index":58,"time_elapsed":1573293,"internal_node_id":"0.0-54.0"},{"response_times":[839.5600000221748,1369.749999983469,997.4199999996927,599.2149999947287,728.1349999830127,2170.4099999915343,597.8350000223145,629.8900000110734,451.35499999742024,267.0550000038929],"keys_pressed":["leftarrow","rightarrow","rightarrow","rightarrow","leftarrow","leftarrow","rightarrow","rightarrow","rightarrow","rightarrow"],"horizon":10,"forced_choices":["leftarrow","rightarrow","rightarrow","rightarrow"],"right_color":"orange","left_color":"lightblue","left_mu":40,"right_mu":44,"left_numbers":[48,26,34,32,38,33,34,32,46,44],"right_numbers":[49,53,42,47,42,57,44,46,41,33],"points_earned":425,"trial_type":"horizons-task","trial_index":59,"time_elapsed":1583450,"internal_node_id":"0.0-55.0"},{"response_times":[750.8249999955297,1617.0949999941513,560.1800000004005,668.424999981653,639.9250000249594],"keys_pressed":["leftarrow","leftarrow","rightarrow","rightarrow","leftarrow"],"horizon":5,"forced_choices":["leftarrow","leftarrow","rightarrow","rightarrow"],"right_color":"orange","left_color":"lightblue","left_mu":40,"right_mu":48,"left_numbers":[40,37,43,43,36],"right_numbers":[40,40,44,49,46],"points_earned":206,"trial_type":"horizons-task","trial_index":60,"time_elapsed":1589203,"internal_node_id":"0.0-56.0"},{"response_times":[2474.3299999972805,275.2850000106264,1177.7599999913946,619.3750000093132,1360.3400000138208,811.760000011418,1051.500000001397,604.81499999878,770.6000000180211,276.9100000150502],"keys_pressed":["leftarrow","leftarrow","rightarrow","leftarrow","leftarrow","leftarrow","rightarrow","leftarrow","leftarrow","leftarrow"],"horizon":10,"forced_choices":["leftarrow","leftarrow","rightarrow","leftarrow"],"right_color":"lightblue","left_color":"orange","left_mu":60,"right_mu":30,"left_numbers":[71,57,58,57,56,66,70,73,72,61],"right_numbers":[18,21,20,24,15,26,15,21,28,34],"points_earned":548,"trial_type":"horizons-task","trial_index":61,"time_elapsed":1600136,"internal_node_id":"0.0-57.0"},{"response_times":[775.2899999904912,619.4949999917299,529.7199999913573,638.3800000185147,1256.7550000094343],"keys_pressed":["leftarrow","rightarrow","leftarrow","rightarrow","leftarrow"],"horizon":5,"forced_choices":["leftarrow","rightarrow","leftarrow","rightarrow"],"right_color":"orange","left_color":"lightblue","left_mu":40,"right_mu":32,"left_numbers":[43,50,41,45,35],"right_numbers":[50,25,46,16,37],"points_earned":160,"trial_type":"horizons-task","trial_index":62,"time_elapsed":1605466,"internal_node_id":"0.0-58.0"},{"response_times":[657.1450000046752,758.1550000177231,460.0849999987986,877.8299999830779,921.7599999974482],"keys_pressed":["rightarrow","rightarrow","leftarrow","leftarrow","leftarrow"],"horizon":5,"forced_choices":["rightarrow","rightarrow","leftarrow","leftarrow"],"right_color":"orange","left_color":"lightblue","left_mu":60,"right_mu":52,"left_numbers":[53,68,60,65,70],"right_numbers":[45,44,63,46,49],"points_earned":284,"trial_type":"horizons-task","trial_index":63,"time_elapsed":1610653,"internal_node_id":"0.0-59.0"},{"response_times":[699.800000002142,720.4100000089966,474.36999998171814,1007.8800000192132,1589.0349999826867,748.1299999926705,14100.370000000112,72477.49500002828,1507.5249999936204,557.5649999955203],"keys_pressed":["leftarrow","leftarrow","rightarrow","rightarrow","rightarrow","rightarrow","rightarrow","rightarrow","leftarrow","rightarrow"],"horizon":10,"forced_choices":["leftarrow","leftarrow","rightarrow","rightarrow"],"right_color":"lightblue","left_color":"orange","left_mu":60,"right_mu":72,"left_numbers":[54,59,55,48,55,53,54,60,52,52],"right_numbers":[60,58,78,85,70,93,78,60,73,76],"points_earned":705,"trial_type":"horizons-task","trial_index":64,"time_elapsed":1706045,"internal_node_id":"0.0-60.0"},{"response_times":[732.4099999968894,723.9000000117812,486.8600000045262,1115.3250000206754,1781.909999990603],"keys_pressed":["leftarrow","leftarrow","leftarrow","rightarrow","leftarrow"],"horizon":5,"forced_choices":["leftarrow","leftarrow","leftarrow","rightarrow"],"right_color":"orange","left_color":"lightblue","left_mu":40,"right_mu":44,"left_numbers":[54,23,39,42,49],"right_numbers":[30,47,32,35,42],"points_earned":200,"trial_type":"horizons-task","trial_index":65,"time_elapsed":1712391,"internal_node_id":"0.0-61.0"},{"response_times":[821.5349999954924,491.5049999835901,645.1200000010431,1347.8400000021793,1519.8099999979604],"keys_pressed":["leftarrow","leftarrow","rightarrow","rightarrow","leftarrow"],"horizon":5,"forced_choices":["leftarrow","leftarrow","rightarrow","rightarrow"],"right_color":"lightblue","left_color":"orange","left_mu":60,"right_mu":40,"left_numbers":[57,59,56,72,55],"right_numbers":[42,48,21,49,33],"points_earned":241,"trial_type":"horizons-task","trial_index":66,"time_elapsed":1718723,"internal_node_id":"0.0-62.0"},{"response_times":[593.4049999923445,445.3700000012759,451.8649999808986,556.6249999974389,1426.2199999939185],"keys_pressed":["leftarrow","rightarrow","leftarrow","rightarrow","leftarrow"],"horizon":5,"forced_choices":["leftarrow","rightarrow","leftarrow","rightarrow"],"right_color":"orange","left_color":"lightblue","left_mu":60,"right_mu":30,"left_numbers":[60,66,54,80,38],"right_numbers":[14,15,23,26,14],"points_earned":193,"trial_type":"horizons-task","trial_index":67,"time_elapsed":1723706,"internal_node_id":"0.0-63.0"},{"response_times":[604.2499999748543,718.1900000141468,469.97000000556,596.5349999896716,2034.010000003036],"keys_pressed":["leftarrow","leftarrow","rightarrow","rightarrow","rightarrow"],"horizon":5,"forced_choices":["leftarrow","leftarrow","rightarrow","rightarrow"],"right_color":"orange","left_color":"lightblue","left_mu":40,"right_mu":48,"left_numbers":[38,35,40,40,42],"right_numbers":[57,66,46,41,54],"points_earned":214,"trial_type":"horizons-task","trial_index":68,"time_elapsed":1729635,"internal_node_id":"0.0-64.0"},{"response_times":[711.1999999906402,673.0400000233203,765.4900000197813,898.8050000043586,4289.770000003045],"keys_pressed":["rightarrow","rightarrow","rightarrow","leftarrow","leftarrow"],"horizon":5,"forced_choices":["rightarrow","rightarrow","rightarrow","leftarrow"],"right_color":"lightblue","left_color":"orange","left_mu":40,"right_mu":28,"left_numbers":[35,42,49,55,42],"right_numbers":[25,23,33,27,30],"points_earned":178,"trial_type":"horizons-task","trial_index":69,"time_elapsed":1738480,"internal_node_id":"0.0-65.0"},{"response_times":[707.7250000147615,614.4950000161771,1512.6999999920372,557.9499999876134,1420.1600000087637],"keys_pressed":["rightarrow","leftarrow","leftarrow","rightarrow","leftarrow"],"horizon":5,"forced_choices":["rightarrow","leftarrow","leftarrow","rightarrow"],"right_color":"lightblue","left_color":"orange","left_mu":40,"right_mu":32,"left_numbers":[54,40,36,30,40],"right_numbers":[20,31,20,24,29],"points_earned":160,"trial_type":"horizons-task","trial_index":70,"time_elapsed":1744803,"internal_node_id":"0.0-66.0"},{"response_times":[689.8599999840371,543.4199999726843,550.4450000007637,492.25499999010935,2999.6550000214484,903.180000022985,2691.740000009304,3016.0150000010617,609.7050000098534,1353.8249999983236],"keys_pressed":["rightarrow","leftarrow","rightarrow","leftarrow","rightarrow","leftarrow","leftarrow","leftarrow","leftarrow","rightarrow"],"horizon":10,"forced_choices":["rightarrow","leftarrow","rightarrow","leftarrow"],"right_color":"orange","left_color":"lightblue","left_mu":40,"right_mu":10,"left_numbers":[51,46,22,39,24,42,32,37,33,46],"right_numbers":[5,14,0,5,0,11,0,8,5,18],"points_earned":252,"trial_type":"horizons-task","trial_index":71,"time_elapsed":1760205,"internal_node_id":"0.0-67.0"},{"response_times":[593.8800000003539,477.81499999109656,733.1349999876693,714.9700000009034,1487.185000005411,643.884999997681,496.225000009872,773.7600000109524,672.7700000046752,1056.0399999958463],"keys_pressed":["leftarrow","rightarrow","rightarrow","rightarrow","rightarrow","rightarrow","rightarrow","rightarrow","rightarrow","rightarrow"],"horizon":10,"forced_choices":["leftarrow","rightarrow","rightarrow","rightarrow"],"right_color":"orange","left_color":"lightblue","left_mu":60,"right_mu":64,"left_numbers":[64,64,62,57,57,70,75,96,74,74],"right_numbers":[66,73,60,68,73,68,54,68,54,62],"points_earned":644,"trial_type":"horizons-task","trial_index":72,"time_elapsed":1769374,"internal_node_id":"0.0-68.0"},{"response_times":[1077.7949999901466,598.4400000015739,600.735000014538,635.6499999819789,2079.9500000139233,770.3200000105426,2121.2200000009034,627.4000000266824,546.9499999890104,541.9700000202283],"keys_pressed":["leftarrow","rightarrow","leftarrow","rightarrow","leftarrow","leftarrow","rightarrow","leftarrow","leftarrow","leftarrow"],"horizon":10,"forced_choices":["leftarrow","rightarrow","leftarrow","rightarrow"],"right_color":"lightblue","left_color":"orange","left_mu":40,"right_mu":32,"left_numbers":[29,47,30,38,38,50,45,44,31,48],"right_numbers":[33,36,23,37,10,27,30,23,41,40],"points_earned":373,"trial_type":"horizons-task","trial_index":73,"time_elapsed":1780485,"internal_node_id":"0.0-69.0"},{"response_times":[692.6800000073854,505.87999998242594,588.6599999794271,1348.8599999982398,3250.9750000026543,714.5799999998417,585.4399999952875,528.4999999857973,562.0049999852199,534.9250000144821],"keys_pressed":["leftarrow","rightarrow","leftarrow","leftarrow","leftarrow","rightarrow","rightarrow","rightarrow","rightarrow","rightarrow"],"horizon":10,"forced_choices":["leftarrow","rightarrow","leftarrow","leftarrow"],"right_color":"orange","left_color":"lightblue","left_mu":40,"right_mu":60,"left_numbers":[22,32,41,43,37,46,35,31,25,37],"right_numbers":[63,51,50,63,61,68,63,59,67,58],"points_earned":509,"trial_type":"horizons-task","trial_index":74,"time_elapsed":1791308,"internal_node_id":"0.0-70.0"},{"response_times":[1312.2000000148546,581.5000000002328,3881.3649999792688,1259.315000002971,1089.1150000097696],"keys_pressed":["leftarrow","rightarrow","rightarrow","leftarrow","leftarrow"],"horizon":5,"forced_choices":["leftarrow","rightarrow","rightarrow","leftarrow"],"right_color":"lightblue","left_color":"orange","left_mu":60,"right_mu":56,"left_numbers":[39,55,75,65,68],"right_numbers":[50,51,64,54,54],"points_earned":287,"trial_type":"horizons-task","trial_index":75,"time_elapsed":1800945,"internal_node_id":"0.0-71.0"},{"response_times":[896.1100000014994,929.6249999897555,506.25000000582077,533.030000020517,1403.970000013942,763.7999999860767,395.65500000026077,447.9099999880418,628.6249999830034,505.6849999818951],"keys_pressed":["leftarrow","leftarrow","rightarrow","leftarrow","leftarrow","leftarrow","rightarrow","leftarrow","leftarrow","leftarrow"],"horizon":10,"forced_choices":["leftarrow","leftarrow","rightarrow","leftarrow"],"right_color":"orange","left_color":"lightblue","left_mu":40,"right_mu":10,"left_numbers":[35,29,36,35,34,43,42,32,35,37],"right_numbers":[5,7,8,3,6,5,0,0,0,2],"points_earned":288,"trial_type":"horizons-task","trial_index":76,"time_elapsed":1809465,"internal_node_id":"0.0-72.0"},{"response_times":[744.9600000109058,1228.5599999886472,511.02500001434237,874.0549999929499,1044.7200000053272],"keys_pressed":["rightarrow","rightarrow","leftarrow","rightarrow","rightarrow"],"horizon":5,"forced_choices":["rightarrow","rightarrow","leftarrow","rightarrow"],"right_color":"lightblue","left_color":"orange","left_mu":60,"right_mu":68,"left_numbers":[68,43,58,55,61],"right_numbers":[78,71,77,66,72],"points_earned":345,"trial_type":"horizons-task","trial_index":77,"time_elapsed":1815373,"internal_node_id":"0.0-73.0"},{"response_times":[803.844999987632,548.3100000128616,960.350000008475,505.5500000016764,5311.520000017481,905.0700000079814,1145.3850000107195,838.5949999792501,494.8549999971874,947.9149999970105],"keys_pressed":["leftarrow","rightarrow","rightarrow","rightarrow","leftarrow","leftarrow","leftarrow","leftarrow","leftarrow","leftarrow"],"horizon":10,"forced_choices":["leftarrow","rightarrow","rightarrow","rightarrow"],"right_color":"orange","left_color":"lightblue","left_mu":40,"right_mu":28,"left_numbers":[34,27,42,24,53,41,49,44,43,31],"right_numbers":[35,14,18,36,20,35,35,35,29,23],"points_earned":363,"trial_type":"horizons-task","trial_index":78,"time_elapsed":1829344,"internal_node_id":"0.0-74.0"},{"response_times":[724.820000003092,592.8450000064913,1055.2399999869522,1212.6849999767728,827.4399999936577],"keys_pressed":["rightarrow","rightarrow","leftarrow","rightarrow","rightarrow"],"horizon":5,"forced_choices":["rightarrow","rightarrow","leftarrow","rightarrow"],"right_color":"orange","left_color":"lightblue","left_mu":60,"right_mu":90,"left_numbers":[63,55,67,50,68],"right_numbers":[93,92,79,88,76],"points_earned":416,"trial_type":"horizons-task","trial_index":79,"time_elapsed":1835264,"internal_node_id":"0.0-75.0"},{"response_times":[659.0750000032131,376.13499999861233,638.3499999938067,479.4300000066869,498.9650000061374,902.2100000001956,2614.7449999989476,543.7050000182353,759.0100000088569,468.0149999912828],"keys_pressed":["rightarrow","leftarrow","leftarrow","leftarrow","rightarrow","leftarrow","rightarrow","leftarrow","rightarrow","rightarrow"],"horizon":10,"forced_choices":["rightarrow","leftarrow","leftarrow","leftarrow"],"right_color":"lightblue","left_color":"orange","left_mu":40,"right_mu":36,"left_numbers":[33,36,57,40,54,38,29,40,32,36],"right_numbers":[44,49,42,41,39,34,48,20,45,30],"points_earned":417,"trial_type":"horizons-task","trial_index":80,"time_elapsed":1844713,"internal_node_id":"0.0-76.0"},{"response_times":[926.0950000025332,750.0500000023749,637.3850000090897,2003.2699999865144,1924.944999977015],"keys_pressed":["rightarrow","leftarrow","leftarrow","leftarrow","rightarrow"],"horizon":5,"forced_choices":["rightarrow","leftarrow","leftarrow","leftarrow"],"right_color":"orange","left_color":"lightblue","left_mu":40,"right_mu":52,"left_numbers":[32,22,37,47,34],"right_numbers":[49,50,56,62,47],"points_earned":202,"trial_type":"horizons-task","trial_index":81,"time_elapsed":1852463,"internal_node_id":"0.0-77.0"},{"response_times":[763.1800000090152,821.685000002617,567.4249999865424,940.0800000003073,2274.360000010347,548.1549999967683,481.0799999977462,352.83000001800247,515.6499999866355,22654.640000022482],"keys_pressed":["rightarrow","leftarrow","rightarrow","rightarrow","rightarrow","rightarrow","rightarrow","rightarrow","rightarrow","rightarrow"],"horizon":10,"forced_choices":["rightarrow","leftarrow","rightarrow","rightarrow"],"right_color":"lightblue","left_color":"orange","left_mu":60,"right_mu":90,"left_numbers":[60,62,55,74,58,60,77,55,52,55],"right_numbers":[96,84,86,97,99,80,96,83,89,74],"points_earned":862,"trial_type":"horizons-task","trial_index":82,"time_elapsed":1883889,"internal_node_id":"0.0-78.0"},{"response_times":[694.0699999977369,499.1450000088662,412.5650000059977,838.3150000008754,999.965000024531],"keys_pressed":["leftarrow","rightarrow","rightarrow","rightarrow","rightarrow"],"horizon":5,"forced_choices":["leftarrow","rightarrow","rightarrow","rightarrow"],"right_color":"orange","left_color":"lightblue","left_mu":60,"right_mu":80,"left_numbers":[47,63,57,74,57],"right_numbers":[83,81,90,83,73],"points_earned":374,"trial_type":"horizons-task","trial_index":83,"time_elapsed":1888842,"internal_node_id":"0.0-79.0"},{"response_times":[1054.3049999978393,178.4650000045076,2695.0699999870267,1966.2799999932759,1713.1250000093132],"keys_pressed":["rightarrow","rightarrow","leftarrow","rightarrow","rightarrow"],"horizon":5,"forced_choices":["rightarrow","rightarrow","leftarrow","rightarrow"],"right_color":"lightblue","left_color":"orange","left_mu":40,"right_mu":48,"left_numbers":[57,27,31,26,40],"right_numbers":[46,49,45,59,51],"points_earned":236,"trial_type":"horizons-task","trial_index":84,"time_elapsed":1897958,"internal_node_id":"0.0-80.0"},{"response_times":[578.1149999820627,453.0199999862816,701.1800000036601,750.3500000166241,1182.215000008,9.695000015199184,122.18000000575557,2466.3199999777135,1020.5900000000838,916.86500000651],"keys_pressed":["leftarrow","rightarrow","rightarrow","rightarrow","rightarrow","leftarrow","leftarrow","rightarrow","rightarrow","rightarrow"],"horizon":10,"forced_choices":["leftarrow","rightarrow","rightarrow","rightarrow"],"right_color":"lightblue","left_color":"orange","left_mu":60,"right_mu":80,"left_numbers":[69,61,65,54,53,68,65,55,59,56],"right_numbers":[87,87,79,84,74,80,76,84,67,101],"points_earned":778,"trial_type":"horizons-task","trial_index":85,"time_elapsed":1907703,"internal_node_id":"0.0-81.0"},{"response_times":[746.9050000072457,432.0749999897089,695.6349999818485,474.96000002138317,2098.314999981085,956.0199999832548,976.0250000108499,955.1800000190269,440.2150000096299,189.2400000069756],"keys_pressed":["leftarrow","rightarrow","rightarrow","rightarrow","leftarrow","rightarrow","rightarrow","rightarrow","leftarrow","rightarrow"],"horizon":10,"forced_choices":["leftarrow","rightarrow","rightarrow","rightarrow"],"right_color":"orange","left_color":"lightblue","left_mu":40,"right_mu":60,"left_numbers":[47,28,39,46,39,49,49,41,41,41],"right_numbers":[51,59,67,74,50,71,68,65,71,61],"points_earned":592,"trial_type":"horizons-task","trial_index":86,"time_elapsed":1917193,"internal_node_id":"0.0-82.0"},{"response_times":[769.4349999947008,948.3450000116136,406.105000001844,487.90000000735745,1546.5100000146776,851.4250000007451,600.7600000011735,725.5549999827053,826.6949999961071,644.1599999961909],"keys_pressed":["leftarrow","rightarrow","leftarrow","rightarrow","leftarrow","rightarrow","rightarrow","leftarrow","leftarrow","rightarrow"],"horizon":10,"forced_choices":["leftarrow","rightarrow","leftarrow","rightarrow"],"right_color":"lightblue","left_color":"orange","left_mu":40,"right_mu":32,"left_numbers":[37,50,29,44,43,23,43,47,34,44],"right_numbers":[24,41,36,28,31,44,41,34,44,28],"points_earned":372,"trial_type":"horizons-task","trial_index":87,"time_elapsed":1926518,"internal_node_id":"0.0-83.0"},{"response_times":[563.0250000103842,552.6200000022072,710.7099999848288,609.7149999986868,1154.8150000162423],"keys_pressed":["rightarrow","leftarrow","leftarrow","rightarrow","leftarrow"],"horizon":5,"forced_choices":["rightarrow","leftarrow","leftarrow","rightarrow"],"right_color":"lightblue","left_color":"orange","left_mu":60,"right_mu":72,"left_numbers":[57,58,89,76,63],"right_numbers":[76,70,75,69,70],"points_earned":355,"trial_type":"horizons-task","trial_index":88,"time_elapsed":1931631,"internal_node_id":"0.0-84.0"},{"response_times":[667.0950000116136,289.49500000453554,539.0349999943282,2242.839999991702,1487.3800000059418],"keys_pressed":["rightarrow","leftarrow","rightarrow","rightarrow","leftarrow"],"horizon":5,"forced_choices":["rightarrow","leftarrow","rightarrow","rightarrow"],"right_color":"lightblue","left_color":"orange","left_mu":40,"right_mu":10,"left_numbers":[24,31,56,43,41],"right_numbers":[6,8,0,15,32],"points_earned":93,"trial_type":"horizons-task","trial_index":89,"time_elapsed":1938370,"internal_node_id":"0.0-85.0"},{"rt":112947.00499999453,"responses":{"age":"31","gender-categorical":"Female","gender-free-response":"","ethnicity":"Hispanic or Latino","race":["American Indian/Alaska Native"],"language":"Yes","fluency":"Very well"},"survey":"demographics","trial_type":"survey-demo","trial_index":90,"time_elapsed":2051349,"internal_node_id":"0.0-86.0"},{"rt":101271.48500000499,"responses":{"difficulty":"4","fun":"4","clarity":"5","strategy":"yes i did","feedback":"the task is somewhat fun"},"survey":"debrief","trial_type":"survey-debrief","trial_index":91,"time_elapsed":2152632,"internal_node_id":"0.0-87.0","interactions":"[]"}]