[{"view_history":"[{\"page_index\":0,\"viewing_time\":3200.5999999964843}]","rt":3202.755000005709,"trial_type":"instructions","trial_index":0,"time_elapsed":3224,"internal_node_id":"0.0-0.0"},{"item_order":[6,7,10,3,11,9,2,1,4,5,12,0,8],"responses":{"Q07":"3","Q08":"2","Q11":"1","Q04":"0","Q12":"0","Q10":"0","Q03":"0","Q02":"0","Q05":"0","Q06":"1","Q13":"4","Q01":"0","Q09":"0"},"radio_events":[6243.330000012065,13160.93000001274,16981.59000001033,21534.43500000867,23425.900000002002,25075.280000004568,27039.730000004056,30444.354999999632,36280.01500001119,43870.30000000959,49432.52500001108,52876.66500000341,58470.59500000614,59502.05000001006],"key_events":[],"mouse_events":[0.255000006291084,6243.330000012065,8815.01500000013,12445.060000012745,13160.93000001274,16981.59000001033,21534.43500000867,23425.900000002002,25075.280000004568,27039.730000004056,30444.354999999632,36280.01500001119,43870.30000000959,49432.52500001108,52876.66500000341,58470.59500000614,59502.05000001006,60407.54500000912],"rt":60414.790000009816,"survey":"ius12","trial_type":"survey-template","trial_index":1,"time_elapsed":63655,"internal_node_id":"0.0-1.0"},{"item_order":[16,3,6,10,4,8,11,0,13,9,15,5,12,2,14,1,7],"responses":{"Q17":"0","Q04":"1","Q07":"0","Q11":"0","Q05":"1","Q09":"2","Q12":"0","Q01":"2","Q14":"0","Q10":"1","Q16":"1","Q06":"0","Q13":"2","Q03":"0","Q15":"0","Q02":"0","Q08":"2"},"radio_events":[3334.099999992759,24248.655000003055,26548.63999999361,37748.89499999699,45658.379999993485,50984.80500000005,55765.06999999401,62278.73499999987,65848.21500000544,70558.67499999295,71886.62000000477,75234.90999999922,84078.38999999512,86408.20999999414,88978.75500000373,92048.55999999563,97376.21000000217],"key_events":[],"mouse_events":[3334.099999992759,24248.655000003055,26548.63999999361,35678.98500000592,37748.89499999699,44016.74500000081,45658.379999993485,50984.80500000005,55765.06999999401,60188.72999999439,62278.73499999987,65848.21500000544,70558.67499999295,71886.62000000477,75234.90999999922,80228.5600000032,82538.43499999493,84078.38999999512,86408.20999999414,88978.75500000373,92048.55999999563,95479.57999999926,96388.62499999232,97376.21000000217,98608.46999999194],"rt":98616.320000001,"survey":"pswq","trial_type":"survey-template","trial_index":2,"time_elapsed":162294,"internal_node_id":"0.0-2.0"},{"view_history":"[{\"page_index\":0,\"viewing_time\":2957.2150000021793},{\"page_index\":1,\"viewing_time\":4809.554999999818},{\"page_index\":2,\"viewing_time\":6580.860000001849},{\"page_index\":3,\"viewing_time\":5967.29499999492},{\"page_index\":4,\"viewing_time\":5391.830000007758},{\"page_index\":5,\"viewing_time\":4089.8199999937788},{\"page_index\":6,\"viewing_time\":4636.534999997821},{\"page_index\":7,\"viewing_time\":7213.395000013406},{\"page_index\":8,\"viewing_time\":7860.194999986561},{\"page_index\":9,\"viewing_time\":8530.170000012731}]","rt":58037.64500000398,"trial_type":"instructions","trial_index":3,"time_elapsed":220343,"internal_node_id":"0.0-3.0-0.0"},{"response_times":[11096.689999991213,1769.4400000036694,878.6350000009406,802.4500000028638,1336.0350000002654],"keys_pressed":["rightarrow","leftarrow","rightarrow","rightarrow","leftarrow"],"horizon":5,"forced_choices":["rightarrow","leftarrow","rightarrow","rightarrow"],"right_color":"lightblue","left_color":"orange","left_mu":40,"right_mu":20,"left_numbers":[40,32,42,43,35],"right_numbers":[13,39,15,13,23],"points_earned":108,"trial_type":"horizons-task","trial_index":4,"time_elapsed":237761,"internal_node_id":"0.0-3.0-1.0"},{"response_times":[952.9049999982817,822.9100000025937,831.9099999935133,647.8599999973085,4637.419999999111,2187.8450000076555,1053.8050000031944,3515.220000001136,1187.805000008666,1974.6400000003632],"keys_pressed":["leftarrow","leftarrow","rightarrow","rightarrow","rightarrow","leftarrow","rightarrow","leftarrow","rightarrow","rightarrow"],"horizon":10,"forced_choices":["leftarrow","leftarrow","rightarrow","rightarrow"],"right_color":"orange","left_color":"lightblue","left_mu":60,"right_mu":70,"left_numbers":[57,68,64,61,51,61,52,48,64,55],"right_numbers":[68,72,54,71,74,76,74,73,80,79],"points_earned":666,"trial_type":"horizons-task","trial_index":5,"time_elapsed":257080,"internal_node_id":"0.0-3.0-2.0"},{"view_history":"[{\"page_index\":0,\"viewing_time\":2593.9650000073016},{\"page_index\":1,\"viewing_time\":3155.4699999978766},{\"page_index\":2,\"viewing_time\":3614.1349999961676},{\"page_index\":3,\"viewing_time\":2268.5749999945983}]","rt":11632.475000005797,"trial_type":"instructions","trial_index":6,"time_elapsed":268715,"internal_node_id":"0.0-3.0-3.0"},{"responses":["true","false","false","true"],"num_errors":0,"rt":16332.580000002054,"trial_type":"horizons-comprehension","trial_index":7,"time_elapsed":285050,"internal_node_id":"0.0-3.0-4.0"},{"view_history":"[{\"page_index\":0,\"viewing_time\":2063.094999990426},{\"page_index\":1,\"viewing_time\":3162.015000008978}]","rt":5225.884999992559,"trial_type":"instructions","trial_index":8,"time_elapsed":290283,"internal_node_id":"0.0-4.0"},{"response_times":[1478.2700000068871,1002.6950000028592,582.5100000074599,612.0000000082655,1545.4849999950966,2245.329999990645,3489.7449999989476,513.039999990724,470.8950000058394,646.9249999936437],"keys_pressed":["leftarrow","leftarrow","rightarrow","rightarrow","leftarrow","leftarrow","rightarrow","leftarrow","leftarrow","leftarrow"],"horizon":10,"forced_choices":["leftarrow","leftarrow","rightarrow","rightarrow"],"right_color":"orange","left_color":"lightblue","left_mu":60,"right_mu":30,"left_numbers":[54,67,56,59,60,59,60,50,55,52],"right_numbers":[28,19,34,25,19,37,18,38,24,35],"points_earned":474,"trial_type":"horizons-task","trial_index":9,"time_elapsed":304391,"internal_node_id":"0.0-5.0"},{"response_times":[858.1750000012107,583.0199999909382,728.2300000078976,698.0550000007497,1398.2899999973597],"keys_pressed":["rightarrow","rightarrow","rightarrow","leftarrow","leftarrow"],"horizon":5,"forced_choices":["rightarrow","rightarrow","rightarrow","leftarrow"],"right_color":"lightblue","left_color":"orange","left_mu":60,"right_mu":30,"left_numbers":[58,61,60,64,54],"right_numbers":[29,34,17,33,12],"points_earned":198,"trial_type":"horizons-task","trial_index":10,"time_elapsed":310171,"internal_node_id":"0.0-6.0"},{"response_times":[554.3800000014016,929.1099999973085,553.5200000012992,992.4900000041816,1255.460000000312],"keys_pressed":["leftarrow","rightarrow","rightarrow","leftarrow","rightarrow"],"horizon":5,"forced_choices":["leftarrow","rightarrow","rightarrow","leftarrow"],"right_color":"orange","left_color":"lightblue","left_mu":60,"right_mu":80,"left_numbers":[73,61,68,51,54],"right_numbers":[86,73,92,77,68],"points_earned":357,"trial_type":"horizons-task","trial_index":11,"time_elapsed":315970,"internal_node_id":"0.0-7.0"},{"response_times":[522.9249999974854,674.7000000032131,792.3799999989569,629.1149999888148,735.0050000095507],"keys_pressed":["rightarrow","leftarrow","rightarrow","leftarrow","leftarrow"],"horizon":5,"forced_choices":["rightarrow","leftarrow","rightarrow","leftarrow"],"right_color":"orange","left_color":"lightblue","left_mu":60,"right_mu":40,"left_numbers":[59,71,59,61,68],"right_numbers":[35,27,36,38,26],"points_earned":271,"trial_type":"horizons-task","trial_index":12,"time_elapsed":320831,"internal_node_id":"0.0-8.0"},{"response_times":[595.6900000019232,505.61999999627005,512.3350000067148,823.6199999955716,1075.9649999963585],"keys_pressed":["rightarrow","rightarrow","leftarrow","leftarrow","leftarrow"],"horizon":5,"forced_choices":["rightarrow","rightarrow","leftarrow","leftarrow"],"right_color":"lightblue","left_color":"orange","left_mu":60,"right_mu":48,"left_numbers":[71,55,52,53,72],"right_numbers":[36,41,55,61,57],"points_earned":254,"trial_type":"horizons-task","trial_index":13,"time_elapsed":325851,"internal_node_id":"0.0-9.0"},{"response_times":[553.1750000081956,552.7699999947799,507.63999999617226,569.1149999911431,1467.4399999930756,1135.3649999946356,2287.5050000002375,911.5349999919999,648.8349999999627,644.4749999936903],"keys_pressed":["leftarrow","rightarrow","rightarrow","leftarrow","rightarrow","leftarrow","rightarrow","rightarrow","rightarrow","rightarrow"],"horizon":10,"forced_choices":["leftarrow","rightarrow","rightarrow","leftarrow"],"right_color":"orange","left_color":"lightblue","left_mu":40,"right_mu":44,"left_numbers":[46,33,37,26,35,37,33,42,30,30],"right_numbers":[40,58,47,43,29,39,42,41,53,40],"points_earned":419,"trial_type":"horizons-task","trial_index":14,"time_elapsed":336641,"internal_node_id":"0.0-10.0"},{"response_times":[569.8149999952875,610.1199999975506,473.07500000169966,528.7850000022445,1484.775000004447,1044.8749999923166,622.8949999931501,450.8800000039628,507.050000000163,406.37499999138527],"keys_pressed":["leftarrow","leftarrow","rightarrow","rightarrow","leftarrow","leftarrow","rightarrow","leftarrow","leftarrow","leftarrow"],"horizon":10,"forced_choices":["leftarrow","leftarrow","rightarrow","rightarrow"],"right_color":"lightblue","left_color":"orange","left_mu":60,"right_mu":48,"left_numbers":[45,54,53,69,58,52,65,59,62,65],"right_numbers":[50,55,51,51,41,43,45,52,47,49],"points_earned":542,"trial_type":"horizons-task","trial_index":15,"time_elapsed":344884,"internal_node_id":"0.0-11.0"},{"response_times":[389.6850000019185,444.78499999968335,624.7250000014901,394.3799999979092,1306.1349999916274],"keys_pressed":["leftarrow","rightarrow","rightarrow","leftarrow","leftarrow"],"horizon":5,"forced_choices":["leftarrow","rightarrow","rightarrow","leftarrow"],"right_color":"lightblue","left_color":"orange","left_mu":40,"right_mu":10,"left_numbers":[61,29,35,33,34],"right_numbers":[8,27,31,20,9],"points_earned":186,"trial_type":"horizons-task","trial_index":16,"time_elapsed":349555,"internal_node_id":"0.0-12.0"},{"response_times":[648.4700000000885,562.065000005532,497.2249999991618,410.6000000028871,1053.3750000031432,1126.8100000015693,632.2800000052666,622.5949999934528,417.6399999996647,391.74000000639353],"keys_pressed":["rightarrow","leftarrow","leftarrow","leftarrow","leftarrow","rightarrow","leftarrow","leftarrow","leftarrow","leftarrow"],"horizon":10,"forced_choices":["rightarrow","leftarrow","leftarrow","leftarrow"],"right_color":"lightblue","left_color":"orange","left_mu":60,"right_mu":52,"left_numbers":[37,61,62,61,42,50,63,63,53,60],"right_numbers":[49,53,62,42,61,49,58,59,50,56],"points_earned":563,"trial_type":"horizons-task","trial_index":17,"time_elapsed":357431,"internal_node_id":"0.0-13.0"},{"response_times":[677.3450000036974,460.7150000083493,611.6349999938393,998.0849999992643,2139.080000008107],"keys_pressed":["rightarrow","rightarrow","leftarrow","rightarrow","leftarrow"],"horizon":5,"forced_choices":["rightarrow","rightarrow","leftarrow","rightarrow"],"right_color":"lightblue","left_color":"orange","left_mu":40,"right_mu":44,"left_numbers":[33,37,41,36,40],"right_numbers":[25,41,43,53,31],"points_earned":200,"trial_type":"horizons-task","trial_index":18,"time_elapsed":363830,"internal_node_id":"0.0-14.0"},{"response_times":[614.7999999957392,522.7000000013504,524.0650000050664,806.1750000051688,1352.6649999985239,677.5550000020303,1461.4849999925354,457.5299999996787,452.13499999954365,480.3799999936018],"keys_pressed":["leftarrow","rightarrow","leftarrow","rightarrow","rightarrow","rightarrow","rightarrow","rightarrow","rightarrow","rightarrow"],"horizon":10,"forced_choices":["leftarrow","rightarrow","leftarrow","rightarrow"],"right_color":"lightblue","left_color":"orange","left_mu":40,"right_mu":70,"left_numbers":[38,37,31,35,40,39,35,27,42,40],"right_numbers":[66,60,60,77,77,63,69,71,62,73],"points_earned":621,"trial_type":"horizons-task","trial_index":19,"time_elapsed":372690,"internal_node_id":"0.0-15.0"},{"response_times":[3125.4699999990407,786.710000000312,729.9199999979464,747.2599999891827,732.54499999166],"keys_pressed":["rightarrow","leftarrow","leftarrow","rightarrow","rightarrow"],"horizon":5,"forced_choices":["rightarrow","leftarrow","leftarrow","rightarrow"],"right_color":"orange","left_color":"lightblue","left_mu":40,"right_mu":60,"left_numbers":[55,43,43,41,31],"right_numbers":[63,53,68,70,60],"points_earned":279,"trial_type":"horizons-task","trial_index":20,"time_elapsed":380318,"internal_node_id":"0.0-16.0"},{"response_times":[4264.950000011595,727.3500000010245,903.5799999983283,1274.9949999997625,2714.684999999008],"keys_pressed":["rightarrow","rightarrow","leftarrow","rightarrow","leftarrow"],"horizon":5,"forced_choices":["rightarrow","rightarrow","leftarrow","rightarrow"],"right_color":"lightblue","left_color":"orange","left_mu":60,"right_mu":56,"left_numbers":[63,53,62,64,64],"right_numbers":[64,48,35,64,47],"points_earned":302,"trial_type":"horizons-task","trial_index":21,"time_elapsed":391713,"internal_node_id":"0.0-17.0"},{"response_times":[648.1800000037765,702.980000001844,713.3449999964796,568.5249999951338,1165.290000004461],"keys_pressed":["leftarrow","leftarrow","leftarrow","rightarrow","rightarrow"],"horizon":5,"forced_choices":["leftarrow","leftarrow","leftarrow","rightarrow"],"right_color":"orange","left_color":"lightblue","left_mu":40,"right_mu":60,"left_numbers":[47,40,44,40,40],"right_numbers":[53,57,64,57,50],"points_earned":238,"trial_type":"horizons-task","trial_index":22,"time_elapsed":397020,"internal_node_id":"0.0-18.0"},{"response_times":[475.655000002007,586.4049999945564,662.1400000003632,648.8600000011502,946.0450000042329,580.0949999975273,1852.7350000076694,965.055000007851,786.1699999921257,1207.3299999901792],"keys_pressed":["rightarrow","leftarrow","rightarrow","leftarrow","leftarrow","leftarrow","leftarrow","leftarrow","rightarrow","leftarrow"],"horizon":10,"forced_choices":["rightarrow","leftarrow","rightarrow","leftarrow"],"right_color":"orange","left_color":"lightblue","left_mu":40,"right_mu":28,"left_numbers":[49,31,21,38,57,38,43,44,46,37],"right_numbers":[19,35,13,36,34,28,35,18,30,20],"points_earned":350,"trial_type":"horizons-task","trial_index":23,"time_elapsed":407243,"internal_node_id":"0.0-19.0"},{"response_times":[620.9149999922374,481.22000000148546,454.39499999338295,635.7250000000931,1005.8900000003632],"keys_pressed":["rightarrow","leftarrow","rightarrow","leftarrow","rightarrow"],"horizon":5,"forced_choices":["rightarrow","leftarrow","rightarrow","leftarrow"],"right_color":"lightblue","left_color":"orange","left_mu":40,"right_mu":52,"left_numbers":[28,23,51,40,35],"right_numbers":[51,51,53,49,48],"points_earned":215,"trial_type":"horizons-task","trial_index":24,"time_elapsed":411950,"internal_node_id":"0.0-20.0"},{"response_times":[603.4349999972619,463.4749999968335,508.2899999979418,459.40999999584164,795.6350000022212,1010.6349999987287,426.2949999974808,693.8450000016019,853.4450000006473,892.6099999953294],"keys_pressed":["leftarrow","leftarrow","leftarrow","rightarrow","rightarrow","rightarrow","rightarrow","rightarrow","rightarrow","rightarrow"],"horizon":10,"forced_choices":["leftarrow","leftarrow","leftarrow","rightarrow"],"right_color":"orange","left_color":"lightblue","left_mu":40,"right_mu":60,"left_numbers":[32,35,30,35,42,30,37,40,48,25],"right_numbers":[64,52,63,64,58,52,76,53,61,65],"points_earned":526,"trial_type":"horizons-task","trial_index":25,"time_elapsed":420171,"internal_node_id":"0.0-21.0"},{"response_times":[537.4200000078417,430.74999999953434,592.1899999957532,696.4200000074925,2599.63000001153],"keys_pressed":["leftarrow","leftarrow","rightarrow","rightarrow","leftarrow"],"horizon":5,"forced_choices":["leftarrow","leftarrow","rightarrow","rightarrow"],"right_color":"lightblue","left_color":"orange","left_mu":60,"right_mu":52,"left_numbers":[71,65,53,49,55],"right_numbers":[61,47,59,63,48],"points_earned":313,"trial_type":"horizons-task","trial_index":26,"time_elapsed":426540,"internal_node_id":"0.0-22.0"},{"response_times":[383.64000000001397,526.9800000096438,623.3050000009825,641.6700000117999,759.554999996908],"keys_pressed":["rightarrow","rightarrow","leftarrow","rightarrow","rightarrow"],"horizon":5,"forced_choices":["rightarrow","rightarrow","leftarrow","rightarrow"],"right_color":"lightblue","left_color":"orange","left_mu":60,"right_mu":80,"left_numbers":[63,64,56,52,51],"right_numbers":[84,82,77,92,70],"points_earned":384,"trial_type":"horizons-task","trial_index":27,"time_elapsed":430987,"internal_node_id":"0.0-23.0"},{"response_times":[470.66500000073574,399.0099999937229,447.61499999731313,644.3900000012945,2112.5650000030873,858.6750000104075,698.355000000447,528.7249999964843,408.1799999985378,384.38000000314787],"keys_pressed":["leftarrow","rightarrow","leftarrow","rightarrow","leftarrow","rightarrow","leftarrow","leftarrow","leftarrow","leftarrow"],"horizon":10,"forced_choices":["leftarrow","rightarrow","leftarrow","rightarrow"],"right_color":"orange","left_color":"lightblue","left_mu":40,"right_mu":32,"left_numbers":[46,32,29,43,38,47,46,35,35,38],"right_numbers":[22,34,36,37,23,37,44,33,65,42],"points_earned":375,"trial_type":"horizons-task","trial_index":28,"time_elapsed":439451,"internal_node_id":"0.0-24.0"},{"response_times":[522.9700000054436,381.1100000020815,630.8449999924051,526.9399999961024,1530.7549999997718,1014.0899999969406,757.9550000082236,496.50999999721535,446.31999998819083,711.5049999993062],"keys_pressed":["rightarrow","leftarrow","leftarrow","rightarrow","rightarrow","rightarrow","rightarrow","rightarrow","rightarrow","rightarrow"],"horizon":10,"forced_choices":["rightarrow","leftarrow","leftarrow","rightarrow"],"right_color":"lightblue","left_color":"orange","left_mu":40,"right_mu":44,"left_numbers":[27,40,27,36,43,52,36,31,42,42],"right_numbers":[39,33,44,55,44,58,43,57,38,23],"points_earned":424,"trial_type":"horizons-task","trial_index":29,"time_elapsed":447980,"internal_node_id":"0.0-25.0"},{"response_times":[1274.8549999960233,1718.9450000005309,812.434999999823,803.71500000183,1477.1899999905145],"keys_pressed":["leftarrow","leftarrow","rightarrow","rightarrow","leftarrow"],"horizon":5,"forced_choices":["leftarrow","leftarrow","rightarrow","rightarrow"],"right_color":"orange","left_color":"lightblue","left_mu":60,"right_mu":52,"left_numbers":[61,47,79,53,52],"right_numbers":[52,46,57,47,47],"points_earned":264,"trial_type":"horizons-task","trial_index":30,"time_elapsed":455580,"internal_node_id":"0.0-26.0"},{"response_times":[554.3299999990268,423.6500000115484,637.7899999934016,850.6300000008196,2408.8950000004843,641.1899999948218,1443.3749999880092,1014.7200000064913,822.1650000050431,478.69500001252163],"keys_pressed":["rightarrow","rightarrow","leftarrow","rightarrow","rightarrow","leftarrow","rightarrow","leftarrow","leftarrow","leftarrow"],"horizon":10,"forced_choices":["rightarrow","rightarrow","leftarrow","rightarrow"],"right_color":"lightblue","left_color":"orange","left_mu":60,"right_mu":68,"left_numbers":[39,49,52,50,52,56,41,67,61,60],"right_numbers":[55,74,74,52,69,69,52,56,73,62],"points_earned":598,"trial_type":"horizons-task","trial_index":31,"time_elapsed":466371,"internal_node_id":"0.0-27.0"},{"response_times":[653.4400000091409,645.9150000009686,568.5999999986961,466.48499999719206,691.5449999942211],"keys_pressed":["leftarrow","leftarrow","rightarrow","rightarrow","rightarrow"],"horizon":5,"forced_choices":["leftarrow","leftarrow","rightarrow","rightarrow"],"right_color":"lightblue","left_color":"orange","left_mu":40,"right_mu":48,"left_numbers":[38,38,39,41,39],"right_numbers":[58,46,44,57,57],"points_earned":234,"trial_type":"horizons-task","trial_index":32,"time_elapsed":470911,"internal_node_id":"0.0-28.0"},{"response_times":[584.1000000073109,607.4550000048475,589.334999996936,520.1249999954598,3608.7050000060117],"keys_pressed":["leftarrow","leftarrow","leftarrow","rightarrow","leftarrow"],"horizon":5,"forced_choices":["leftarrow","leftarrow","leftarrow","rightarrow"],"right_color":"orange","left_color":"lightblue","left_mu":60,"right_mu":68,"left_numbers":[62,60,70,53,58],"right_numbers":[90,69,53,72,74],"points_earned":322,"trial_type":"horizons-task","trial_index":33,"time_elapsed":478330,"internal_node_id":"0.0-29.0"},{"response_times":[466.57499999855645,669.0399999934016,1040.0900000095135,809.0349999984028,918.6300000001211],"keys_pressed":["rightarrow","leftarrow","leftarrow","leftarrow","rightarrow"],"horizon":5,"forced_choices":["rightarrow","leftarrow","leftarrow","leftarrow"],"right_color":"lightblue","left_color":"orange","left_mu":60,"right_mu":72,"left_numbers":[46,59,63,62,70],"right_numbers":[75,78,71,79,60],"points_earned":319,"trial_type":"horizons-task","trial_index":34,"time_elapsed":483748,"internal_node_id":"0.0-30.0"},{"response_times":[610.59500000556,558.2749999884982,562.1050000045216,905.2099999971688,1188.8099999923725,600.4350000002887,420.6599999888567,403.7499999976717,454.66999999189284,369.71500000800006],"keys_pressed":["leftarrow","leftarrow","rightarrow","leftarrow","rightarrow","rightarrow","rightarrow","rightarrow","rightarrow","rightarrow"],"horizon":10,"forced_choices":["leftarrow","leftarrow","rightarrow","leftarrow"],"right_color":"lightblue","left_color":"orange","left_mu":40,"right_mu":70,"left_numbers":[37,35,30,38,40,38,37,39,49,31],"right_numbers":[57,69,59,68,80,61,78,69,83,74],"points_earned":614,"trial_type":"horizons-task","trial_index":35,"time_elapsed":491331,"internal_node_id":"0.0-31.0"},{"response_times":[674.1899999906309,1064.3649999983609,1171.7099999950733,1535.0749999925029,2285.894999993616],"keys_pressed":["rightarrow","leftarrow","leftarrow","rightarrow","leftarrow"],"horizon":5,"forced_choices":["rightarrow","leftarrow","leftarrow","rightarrow"],"right_color":"orange","left_color":"lightblue","left_mu":40,"right_mu":28,"left_numbers":[56,26,49,37,39],"right_numbers":[45,25,26,27,28],"points_earned":186,"trial_type":"horizons-task","trial_index":36,"time_elapsed":499574,"internal_node_id":"0.0-32.0"},{"response_times":[376.685000010184,389.87500000803266,576.1700000002747,760.4399999981979,1036.5299999975832],"keys_pressed":["rightarrow","leftarrow","leftarrow","leftarrow","rightarrow"],"horizon":5,"forced_choices":["rightarrow","leftarrow","leftarrow","leftarrow"],"right_color":"orange","left_color":"lightblue","left_mu":60,"right_mu":90,"left_numbers":[47,51,62,36,60],"right_numbers":[79,81,97,79,97],"points_earned":325,"trial_type":"horizons-task","trial_index":37,"time_elapsed":504220,"internal_node_id":"0.0-33.0"},{"response_times":[434.4450000062352,424.7449999966193,654.9200000008568,549.4099999923492,1657.2400000004563,716.3000000000466,493.9500000036787,443.67000000784174,423.8199999963399,356.81000001204666],"keys_pressed":["rightarrow","leftarrow","rightarrow","rightarrow","rightarrow","leftarrow","rightarrow","rightarrow","rightarrow","rightarrow"],"horizon":10,"forced_choices":["rightarrow","leftarrow","rightarrow","rightarrow"],"right_color":"orange","left_color":"lightblue","left_mu":40,"right_mu":52,"left_numbers":[33,42,44,35,43,33,31,42,49,46],"right_numbers":[46,65,49,42,48,61,61,52,44,70],"points_earned":487,"trial_type":"horizons-task","trial_index":38,"time_elapsed":511891,"internal_node_id":"0.0-34.0"},{"response_times":[417.6750000042375,729.7799999942072,1026.7800000001444,597.3200000007637,2214.3400000059046,548.7750000029337,555.1699999923585,389.0499999979511,239.34499999450054,332.3999999993248],"keys_pressed":["rightarrow","rightarrow","leftarrow","rightarrow","leftarrow","rightarrow","rightarrow","rightarrow","rightarrow","rightarrow"],"horizon":10,"forced_choices":["rightarrow","rightarrow","leftarrow","rightarrow"],"right_color":"orange","left_color":"lightblue","left_mu":60,"right_mu":72,"left_numbers":[68,60,63,60,62,59,64,52,59,56],"right_numbers":[66,69,73,72,58,69,74,76,79,69],"points_earned":699,"trial_type":"horizons-task","trial_index":39,"time_elapsed":520450,"internal_node_id":"0.0-35.0"},{"response_times":[491.5550000005169,472.98000000591855,770.154999991064,1049.010000002454,1634.1000000102213],"keys_pressed":["rightarrow","leftarrow","rightarrow","leftarrow","leftarrow"],"horizon":5,"forced_choices":["rightarrow","leftarrow","rightarrow","leftarrow"],"right_color":"orange","left_color":"lightblue","left_mu":60,"right_mu":52,"left_numbers":[68,69,63,58,59],"right_numbers":[60,55,55,60,66],"points_earned":301,"trial_type":"horizons-task","trial_index":40,"time_elapsed":526380,"internal_node_id":"0.0-36.0"},{"response_times":[524.7200000012526,417.4150000035297,590.2299999870593,613.1599999935133,2029.2500000068685,765.7500000059372,490.75000001175795,592.2100000025239,532.1100000001024,534.2700000037439],"keys_pressed":["leftarrow","rightarrow","leftarrow","rightarrow","leftarrow","rightarrow","leftarrow","leftarrow","rightarrow","leftarrow"],"horizon":10,"forced_choices":["leftarrow","rightarrow","leftarrow","rightarrow"],"right_color":"lightblue","left_color":"orange","left_mu":40,"right_mu":28,"left_numbers":[43,48,26,48,41,39,35,32,56,36],"right_numbers":[22,22,35,37,26,33,27,32,14,29],"points_earned":319,"trial_type":"horizons-task","trial_index":41,"time_elapsed":534980,"internal_node_id":"0.0-37.0"},{"response_times":[637.6149999996414,495.9400000079768,722.6949999894714,683.244999992894,853.4849999996368,678.71500000183,1055.289999989327,313.04999999701977,385.22500000544824,419.68500000075437],"keys_pressed":["rightarrow","leftarrow","rightarrow","leftarrow","leftarrow","leftarrow","leftarrow","leftarrow","leftarrow","leftarrow"],"horizon":10,"forced_choices":["rightarrow","leftarrow","rightarrow","leftarrow"],"right_color":"orange","left_color":"lightblue","left_mu":40,"right_mu":20,"left_numbers":[39,45,45,47,31,35,53,47,49,43],"right_numbers":[9,11,25,12,16,26,28,33,11,28],"points_earned":384,"trial_type":"horizons-task","trial_index":42,"time_elapsed":542730,"internal_node_id":"0.0-38.0"},{"response_times":[541.8899999931455,915.2699999976903,591.8999999994412,631.4650000131223,1135.2049999986775],"keys_pressed":["leftarrow","leftarrow","rightarrow","leftarrow","rightarrow"],"horizon":5,"forced_choices":["leftarrow","leftarrow","rightarrow","leftarrow"],"right_color":"lightblue","left_color":"orange","left_mu":60,"right_mu":90,"left_numbers":[55,62,61,57,46],"right_numbers":[93,100,81,109,96],"points_earned":351,"trial_type":"horizons-task","trial_index":43,"time_elapsed":548061,"internal_node_id":"0.0-39.0"},{"response_times":[553.4350000089034,753.6499999987427,762.6350000064122,524.7050000034506,2086.815000002389,758.6349999910453,1494.7099999990314,526.5100000106031,403.9900000061607,321.364999996149],"keys_pressed":["leftarrow","leftarrow","leftarrow","rightarrow","rightarrow","leftarrow","rightarrow","rightarrow","rightarrow","rightarrow"],"horizon":10,"forced_choices":["leftarrow","leftarrow","leftarrow","rightarrow"],"right_color":"orange","left_color":"lightblue","left_mu":40,"right_mu":48,"left_numbers":[50,37,43,31,39,46,42,44,30,43],"right_numbers":[52,69,59,41,48,37,53,57,34,56],"points_earned":465,"trial_type":"horizons-task","trial_index":44,"time_elapsed":557760,"internal_node_id":"0.0-40.0"},{"response_times":[757.0750000013504,687.3849999974482,766.6650000028312,1057.1000000054482,1159.0799999976298,1836.0649999958696,882.9250000126194,846.2949999957345,407.76000000187196,462.7150000014808],"keys_pressed":["rightarrow","leftarrow","leftarrow","rightarrow","leftarrow","leftarrow","leftarrow","leftarrow","leftarrow","leftarrow"],"horizon":10,"forced_choices":["rightarrow","leftarrow","leftarrow","rightarrow"],"right_color":"lightblue","left_color":"orange","left_mu":40,"right_mu":28,"left_numbers":[49,36,36,36,38,48,52,52,45,35],"right_numbers":[36,14,34,33,27,16,32,30,22,38],"points_earned":411,"trial_type":"horizons-task","trial_index":45,"time_elapsed":568130,"internal_node_id":"0.0-41.0"},{"response_times":[635.3050000034273,710.109999999986,865.3749999939464,2194.900000002235,3339.6599999978207],"keys_pressed":["leftarrow","leftarrow","rightarrow","rightarrow","rightarrow"],"horizon":5,"forced_choices":["leftarrow","leftarrow","rightarrow","rightarrow"],"right_color":"orange","left_color":"lightblue","left_mu":40,"right_mu":48,"left_numbers":[53,37,51,43,51],"right_numbers":[46,44,47,48,35],"points_earned":220,"trial_type":"horizons-task","trial_index":46,"time_elapsed":577388,"internal_node_id":"0.0-42.0"},{"response_times":[715.6200000026729,539.824999999837,556.5399999904912,669.0900000103284,1692.1850000071572,1433.1850000016857,908.7950000102865,349.2249999981141,249.46999999519903,1430.609999995795],"keys_pressed":["rightarrow","rightarrow","leftarrow","rightarrow","rightarrow","rightarrow","rightarrow","rightarrow","rightarrow","rightarrow"],"horizon":10,"forced_choices":["rightarrow","rightarrow","leftarrow","rightarrow"],"right_color":"lightblue","left_color":"orange","left_mu":40,"right_mu":52,"left_numbers":[28,27,32,51,46,27,48,37,25,30],"right_numbers":[48,44,47,60,59,45,56,46,41,46],"points_earned":477,"trial_type":"horizons-task","trial_index":47,"time_elapsed":587445,"internal_node_id":"0.0-43.0"},{"response_times":[698.7700000026962,551.0849999991478,698.1449999875622,1017.45500000834,1911.7499999993015,400.8200000098441,442.5599999958649,376.04499999724794,325.42999999714084,323.52499999979045],"keys_pressed":["leftarrow","rightarrow","leftarrow","leftarrow","rightarrow","leftarrow","leftarrow","leftarrow","leftarrow","leftarrow"],"horizon":10,"forced_choices":["leftarrow","rightarrow","leftarrow","leftarrow"],"right_color":"lightblue","left_color":"orange","left_mu":60,"right_mu":56,"left_numbers":[65,74,60,57,54,60,59,57,64,51],"right_numbers":[40,52,63,53,53,39,55,49,52,49],"points_earned":578,"trial_type":"horizons-task","trial_index":48,"time_elapsed":595699,"internal_node_id":"0.0-44.0"},{"view_history":"[{\"page_index\":0,\"viewing_time\":2741.615000006277},{\"page_index\":1,\"viewing_time\":2318.5749999975087}]","rt":5061.3400000002,"trial_type":"instructions","trial_index":49,"time_elapsed":600763,"internal_node_id":"0.0-45.0"},{"response_times":[1270.7899999950314,476.345000002766,513.3800000039628,3095.919999992475,1410.0299999990966,893.709999989369,639.4800000125542,283.7149999977555,374.12000000767875,528.9199999970151],"keys_pressed":["rightarrow","rightarrow","leftarrow","leftarrow","rightarrow","rightarrow","rightarrow","rightarrow","rightarrow","rightarrow"],"horizon":10,"forced_choices":["rightarrow","rightarrow","leftarrow","leftarrow"],"right_color":"lightblue","left_color":"orange","left_mu":40,"right_mu":60,"left_numbers":[45,26,39,18,50,41,50,35,42,51],"right_numbers":[62,50,71,59,61,61,66,55,55,60],"points_earned":527,"trial_type":"horizons-task","trial_index":50,"time_elapsed":611768,"internal_node_id":"0.0-46.0"},{"response_times":[970.099999991362,1129.849999997532,670.2600000135135,900.6749999971362,1056.735000005574,882.9999999870779,1190.3149999998277,1025.0300000043353,336.6000000096392,401.94000001065433],"keys_pressed":["leftarrow","leftarrow","rightarrow","rightarrow","leftarrow","leftarrow","rightarrow","leftarrow","leftarrow","leftarrow"],"horizon":10,"forced_choices":["leftarrow","leftarrow","rightarrow","rightarrow"],"right_color":"orange","left_color":"lightblue","left_mu":60,"right_mu":52,"left_numbers":[52,71,52,58,52,44,50,55,57,57],"right_numbers":[46,57,46,55,48,57,52,58,50,57],"points_earned":541,"trial_type":"horizons-task","trial_index":51,"time_elapsed":621851,"internal_node_id":"0.0-47.0"},{"response_times":[785.8550000091782,1381.0950000042794,3055.4899999988265,1264.3749999988358,2339.5949999976438],"keys_pressed":["leftarrow","leftarrow","leftarrow","rightarrow","rightarrow"],"horizon":5,"forced_choices":["leftarrow","leftarrow","leftarrow","rightarrow"],"right_color":"lightblue","left_color":"orange","left_mu":40,"right_mu":60,"left_numbers":[30,56,43,48,31],"right_numbers":[76,60,49,58,63],"points_earned":250,"trial_type":"horizons-task","trial_index":52,"time_elapsed":632191,"internal_node_id":"0.0-48.0"},{"response_times":[677.865000005113,628.8749999948777,549.0799999970477,672.5299999961862,524.5599999907427],"keys_pressed":["rightarrow","leftarrow","rightarrow","rightarrow","leftarrow"],"horizon":5,"forced_choices":["rightarrow","leftarrow","rightarrow","rightarrow"],"right_color":"orange","left_color":"lightblue","left_mu":60,"right_mu":30,"left_numbers":[61,70,51,54,85],"right_numbers":[16,32,19,23,34],"points_earned":213,"trial_type":"horizons-task","trial_index":53,"time_elapsed":636750,"internal_node_id":"0.0-49.0"},{"response_times":[692.5000000046566,544.3749999976717,622.6350000069942,1839.8700000107056,984.889999992447],"keys_pressed":["leftarrow","leftarrow","rightarrow","leftarrow","leftarrow"],"horizon":5,"forced_choices":["leftarrow","leftarrow","rightarrow","leftarrow"],"right_color":"lightblue","left_color":"orange","left_mu":40,"right_mu":48,"left_numbers":[43,41,35,42,36],"right_numbers":[51,66,28,68,66],"points_earned":190,"trial_type":"horizons-task","trial_index":54,"time_elapsed":642940,"internal_node_id":"0.0-50.0"},{"response_times":[546.3349999918137,560.9150000091176,502.2600000083912,526.7250000033528,3812.405000004219,1287.2650000063004,415.0850000005448,378.06499999715015,404.0099999983795,527.1350000111852],"keys_pressed":["leftarrow","rightarrow","rightarrow","rightarrow","rightarrow","leftarrow","rightarrow","rightarrow","rightarrow","rightarrow"],"horizon":10,"forced_choices":["leftarrow","rightarrow","rightarrow","rightarrow"],"right_color":"lightblue","left_color":"orange","left_mu":60,"right_mu":56,"left_numbers":[56,51,55,58,45,56,67,57,66,61],"right_numbers":[62,63,59,50,62,54,59,52,56,42],"points_earned":555,"trial_type":"horizons-task","trial_index":55,"time_elapsed":653408,"internal_node_id":"0.0-51.0"},{"response_times":[852.2249999950873,386.160000009113,701.7199999972945,1727.985000004992,5000.445000012405],"keys_pressed":["rightarrow","rightarrow","leftarrow","leftarrow","leftarrow"],"horizon":5,"forced_choices":["rightarrow","rightarrow","leftarrow","leftarrow"],"right_color":"lightblue","left_color":"orange","left_mu":40,"right_mu":36,"left_numbers":[55,46,37,38,36],"right_numbers":[51,20,31,34,27],"points_earned":182,"trial_type":"horizons-task","trial_index":56,"time_elapsed":663582,"internal_node_id":"0.0-52.0"},{"response_times":[717.3700000130339,1080.4950000019744,762.5850000040373,887.669999996433,1993.1700000015553],"keys_pressed":["rightarrow","rightarrow","rightarrow","leftarrow","rightarrow"],"horizon":5,"forced_choices":["rightarrow","rightarrow","rightarrow","leftarrow"],"right_color":"orange","left_color":"lightblue","left_mu":40,"right_mu":48,"left_numbers":[39,45,25,35,48],"right_numbers":[51,73,43,58,42],"points_earned":244,"trial_type":"horizons-task","trial_index":57,"time_elapsed":670530,"internal_node_id":"0.0-53.0"},{"response_times":[424.4099999923492,447.54000000830274,949.3249999941327,676.1750000005122,757.9200000036508],"keys_pressed":["leftarrow","rightarrow","leftarrow","rightarrow","rightarrow"],"horizon":5,"forced_choices":["leftarrow","rightarrow","leftarrow","rightarrow"],"right_color":"lightblue","left_color":"orange","left_mu":60,"right_mu":90,"left_numbers":[65,61,56,55,52],"right_numbers":[80,80,86,96,84],"points_earned":381,"trial_type":"horizons-task","trial_index":58,"time_elapsed":675290,"internal_node_id":"0.0-54.0"},{"response_times":[483.5599999933038,430.0549999898067,427.12000000756234,743.1650000071386,1920.6100000010338,545.4350000072736,427.1450000087498,247.61999999464024,285.2849999908358,370.93999999342486],"keys_pressed":["rightarrow","leftarrow","rightarrow","rightarrow","rightarrow","rightarrow","rightarrow","rightarrow","rightarrow","rightarrow"],"horizon":10,"forced_choices":["rightarrow","leftarrow","rightarrow","rightarrow"],"right_color":"lightblue","left_color":"orange","left_mu":40,"right_mu":44,"left_numbers":[26,28,28,56,52,49,44,30,45,31],"right_numbers":[38,45,47,31,49,41,50,52,40,35],"points_earned":411,"trial_type":"horizons-task","trial_index":59,"time_elapsed":682677,"internal_node_id":"0.0-55.0"},{"response_times":[462.2899999958463,588.145000001532,473.96499999740627,609.309999999823,597.2600000095554],"keys_pressed":["rightarrow","rightarrow","rightarrow","leftarrow","rightarrow"],"horizon":5,"forced_choices":["rightarrow","rightarrow","rightarrow","leftarrow"],"right_color":"orange","left_color":"lightblue","left_mu":60,"right_mu":68,"left_numbers":[63,51,56,59,62],"right_numbers":[74,71,81,68,70],"points_earned":355,"trial_type":"horizons-task","trial_index":60,"time_elapsed":686919,"internal_node_id":"0.0-56.0"},{"response_times":[522.6600000023609,516.7899999942165,601.3249999959953,609.5899999927497,1644.5549999916693,633.8250000117114,2450.3250000125263,570.4150000092341,1198.0600000097184,3139.0400000091176],"keys_pressed":["leftarrow","leftarrow","leftarrow","rightarrow","rightarrow","rightarrow","rightarrow","rightarrow","leftarrow","leftarrow"],"horizon":10,"forced_choices":["leftarrow","leftarrow","leftarrow","rightarrow"],"right_color":"lightblue","left_color":"orange","left_mu":60,"right_mu":68,"left_numbers":[67,60,42,57,53,42,59,54,72,58],"right_numbers":[77,72,69,80,77,60,78,59,69,58],"points_earned":653,"trial_type":"horizons-task","trial_index":61,"time_elapsed":700315,"internal_node_id":"0.0-57.0"},{"response_times":[699.5900000038091,1073.405000002822,769.9049999937415,806.1699999962002,1643.2500000082655],"keys_pressed":["leftarrow","rightarrow","rightarrow","leftarrow","rightarrow"],"horizon":5,"forced_choices":["leftarrow","rightarrow","rightarrow","leftarrow"],"right_color":"orange","left_color":"lightblue","left_mu":40,"right_mu":48,"left_numbers":[26,29,31,55,41],"right_numbers":[48,58,51,51,41],"points_earned":231,"trial_type":"horizons-task","trial_index":62,"time_elapsed":706812,"internal_node_id":"0.0-58.0"},{"response_times":[389.4999999902211,574.6849999995902,524.7049999888986,646.5300000127172,995.6200000015087],"keys_pressed":["rightarrow","leftarrow","leftarrow","leftarrow","leftarrow"],"horizon":5,"forced_choices":["rightarrow","leftarrow","leftarrow","leftarrow"],"right_color":"orange","left_color":"lightblue","left_mu":40,"right_mu":28,"left_numbers":[42,32,35,39,52],"right_numbers":[23,27,22,25,23],"points_earned":181,"trial_type":"horizons-task","trial_index":63,"time_elapsed":711448,"internal_node_id":"0.0-59.0"},{"response_times":[544.1049999935785,830.8850000030361,1840.4050000099232,1714.4100000004983,924.1299999994226,932.874999998603,1282.8650000010384,704.8699999868404,719.1100000054576,392.81999999366235],"keys_pressed":["leftarrow","rightarrow","rightarrow","leftarrow","rightarrow","rightarrow","rightarrow","rightarrow","rightarrow","rightarrow"],"horizon":10,"forced_choices":["leftarrow","rightarrow","rightarrow","leftarrow"],"right_color":"lightblue","left_color":"orange","left_mu":40,"right_mu":60,"left_numbers":[35,35,37,24,41,45,48,47,37,59],"right_numbers":[63,48,61,65,64,59,63,69,67,48],"points_earned":538,"trial_type":"horizons-task","trial_index":64,"time_elapsed":722849,"internal_node_id":"0.0-60.0"},{"response_times":[412.83499999553896,460.09000000776723,454.6750000008615,518.9149999932852,1189.3849999905797,1094.744999994873,1154.114999997546,775.6249999947613,858.5750000056578,406.2100000010105],"keys_pressed":["rightarrow","leftarrow","rightarrow","leftarrow","rightarrow","leftarrow","leftarrow","rightarrow","rightarrow","rightarrow"],"horizon":10,"forced_choices":["rightarrow","leftarrow","rightarrow","leftarrow"],"right_color":"orange","left_color":"lightblue","left_mu":40,"right_mu":52,"left_numbers":[46,41,48,47,34,55,40,36,42,44],"right_numbers":[56,55,53,48,43,57,51,66,68,63],"points_earned":532,"trial_type":"horizons-task","trial_index":65,"time_elapsed":731688,"internal_node_id":"0.0-61.0"},{"response_times":[669.964999993681,574.9900000082562,582.0699999894714,443.89999999839347,1709.4400000059977,587.6749999879394,544.739999997546,809.4049999926938,438.22999999974854,426.0000000067521],"keys_pressed":["leftarrow","leftarrow","rightarrow","leftarrow","leftarrow","leftarrow","leftarrow","rightarrow","leftarrow","leftarrow"],"horizon":10,"forced_choices":["leftarrow","leftarrow","rightarrow","leftarrow"],"right_color":"orange","left_color":"lightblue","left_mu":40,"right_mu":36,"left_numbers":[51,43,43,47,41,40,38,35,48,24],"right_numbers":[32,38,39,31,50,27,36,27,33,45],"points_earned":398,"trial_type":"horizons-task","trial_index":66,"time_elapsed":739988,"internal_node_id":"0.0-62.0"},{"response_times":[487.01500000606757,499.76999999489635,816.4000000106171,725.1850000029663,895.2200000057928],"keys_pressed":["leftarrow","rightarrow","rightarrow","rightarrow","rightarrow"],"horizon":5,"forced_choices":["leftarrow","rightarrow","rightarrow","rightarrow"],"right_color":"orange","left_color":"lightblue","left_mu":40,"right_mu":48,"left_numbers":[39,42,44,29,44],"right_numbers":[50,43,46,51,44],"points_earned":223,"trial_type":"horizons-task","trial_index":67,"time_elapsed":744916,"internal_node_id":"0.0-63.0"},{"response_times":[459.4749999960186,432.27000000479165,627.6849999994738,1278.374999994412,3748.66500000644,1141.6349999926751,544.9000000080559,452.0199999969918,408.90999999828637,388.649999993504],"keys_pressed":["rightarrow","leftarrow","leftarrow","leftarrow","leftarrow","rightarrow","leftarrow","leftarrow","leftarrow","leftarrow"],"horizon":10,"forced_choices":["rightarrow","leftarrow","leftarrow","leftarrow"],"right_color":"lightblue","left_color":"orange","left_mu":60,"right_mu":48,"left_numbers":[58,65,54,52,56,39,60,62,59,53],"right_numbers":[53,55,47,52,45,41,45,56,43,47],"points_earned":555,"trial_type":"horizons-task","trial_index":68,"time_elapsed":755909,"internal_node_id":"0.0-64.0"},{"response_times":[681.0750000004191,599.4799999898532,939.0850000054343,667.0400000002701,1257.4699999968288,643.6099999991711,429.34500001138076,899.9849999963772,484.760000006645,437.5699999945937],"keys_pressed":["leftarrow","leftarrow","rightarrow","rightarrow","rightarrow","rightarrow","rightarrow","rightarrow","rightarrow","rightarrow"],"horizon":10,"forced_choices":["leftarrow","leftarrow","rightarrow","rightarrow"],"right_color":"orange","left_color":"lightblue","left_mu":60,"right_mu":68,"left_numbers":[56,57,73,60,74,56,53,62,55,58],"right_numbers":[72,84,66,92,72,62,64,78,62,73],"points_earned":682,"trial_type":"horizons-task","trial_index":69,"time_elapsed":764462,"internal_node_id":"0.0-65.0"},{"response_times":[394.7550000011688,337.5450000021374,642.8549999982351,939.3200000049546,1860.4950000008103],"keys_pressed":["rightarrow","leftarrow","leftarrow","leftarrow","leftarrow"],"horizon":5,"forced_choices":["rightarrow","leftarrow","leftarrow","leftarrow"],"right_color":"orange","left_color":"lightblue","left_mu":60,"right_mu":40,"left_numbers":[71,63,79,49,59],"right_numbers":[52,49,36,34,31],"points_earned":302,"trial_type":"horizons-task","trial_index":70,"time_elapsed":770143,"internal_node_id":"0.0-66.0"},{"response_times":[443.69000000006054,512.2799999953713,493.62499998824205,624.3700000050012,813.7600000045495,472.1949999948265,385.7399999978952,897.7199999935692,697.4449999979697,409.6799999970244],"keys_pressed":["leftarrow","rightarrow","leftarrow","rightarrow","rightarrow","rightarrow","rightarrow","rightarrow","rightarrow","rightarrow"],"horizon":10,"forced_choices":["leftarrow","rightarrow","leftarrow","rightarrow"],"right_color":"orange","left_color":"lightblue","left_mu":40,"right_mu":52,"left_numbers":[38,38,33,46,43,40,43,34,42,46],"right_numbers":[60,49,51,47,55,52,44,55,65,48],"points_earned":486,"trial_type":"horizons-task","trial_index":71,"time_elapsed":777398,"internal_node_id":"0.0-67.0"},{"response_times":[650.9950000036042,605.26499999105,564.1650000034133,4098.169999997481,908.8000000047032,551.8300000112504,514.340000008815,504.480000003241,538.3949999959441,470.31499999866355],"keys_pressed":["rightarrow","leftarrow","rightarrow","rightarrow","rightarrow","rightarrow","rightarrow","rightarrow","rightarrow","rightarrow"],"horizon":10,"forced_choices":["rightarrow","leftarrow","rightarrow","rightarrow"],"right_color":"lightblue","left_color":"orange","left_mu":60,"right_mu":90,"left_numbers":[48,64,59,44,51,64,62,71,57,58],"right_numbers":[102,85,97,95,92,95,86,92,85,73],"points_earned":881,"trial_type":"horizons-task","trial_index":72,"time_elapsed":788320,"internal_node_id":"0.0-68.0"},{"response_times":[463.63499999279156,470.6399999995483,871.6649999987567,678.1199999968521,1201.889999996638],"keys_pressed":["rightarrow","leftarrow","leftarrow","rightarrow","rightarrow"],"horizon":5,"forced_choices":["rightarrow","leftarrow","leftarrow","rightarrow"],"right_color":"orange","left_color":"lightblue","left_mu":60,"right_mu":68,"left_numbers":[45,64,56,51,42],"right_numbers":[70,66,60,69,66],"points_earned":325,"trial_type":"horizons-task","trial_index":73,"time_elapsed":793519,"internal_node_id":"0.0-69.0"},{"response_times":[736.2299999949755,568.3250000001863,651.1099999916041,633.2249999977648,1166.060000003199,665.2349999931175,452.1999999997206,397.98500000324566,463.450000010198,447.8150000068126],"keys_pressed":["leftarrow","leftarrow","leftarrow","rightarrow","rightarrow","rightarrow","rightarrow","rightarrow","rightarrow","rightarrow"],"horizon":10,"forced_choices":["leftarrow","leftarrow","leftarrow","rightarrow"],"right_color":"orange","left_color":"lightblue","left_mu":40,"right_mu":44,"left_numbers":[27,24,42,44,44,34,46,48,47,32],"right_numbers":[38,43,54,45,40,42,41,40,30,57],"points_earned":388,"trial_type":"horizons-task","trial_index":74,"time_elapsed":801211,"internal_node_id":"0.0-70.0"},{"response_times":[1159.299999999348,548.2749999937369,465.29500000178814,777.9450000089128,520.5650000134483],"keys_pressed":["leftarrow","leftarrow","rightarrow","rightarrow","leftarrow"],"horizon":5,"forced_choices":["leftarrow","leftarrow","rightarrow","rightarrow"],"right_color":"orange","left_color":"lightblue","left_mu":60,"right_mu":30,"left_numbers":[50,69,61,64,46],"right_numbers":[27,44,28,23,39],"points_earned":216,"trial_type":"horizons-task","trial_index":75,"time_elapsed":806190,"internal_node_id":"0.0-71.0"},{"response_times":[534.3399999983376,543.7200000014855,522.3249999980908,959.9949999974342,2294.4250000000466,1255.2299999952083,505.3749999933643,885.7149999967078,1559.739999996964,8723.64500000549],"keys_pressed":["leftarrow","leftarrow","rightarrow","leftarrow","rightarrow","leftarrow","rightarrow","rightarrow","leftarrow","leftarrow"],"horizon":10,"forced_choices":["leftarrow","leftarrow","rightarrow","leftarrow"],"right_color":"lightblue","left_color":"orange","left_mu":40,"right_mu":44,"left_numbers":[35,47,27,49,26,39,45,43,45,29],"right_numbers":[54,57,47,54,43,34,40,36,46,32],"points_earned":410,"trial_type":"horizons-task","trial_index":76,"time_elapsed":825488,"internal_node_id":"0.0-72.0"},{"response_times":[472.8399999876274,528.1200000026729,585.7949999917764,854.9499999935506,1261.0849999909988,1212.6450000068871,481.2799999926938,488.23499999707565,698.2949999946868,360.95500001101755],"keys_pressed":["rightarrow","leftarrow","rightarrow","leftarrow","rightarrow","rightarrow","rightarrow","rightarrow","rightarrow","rightarrow"],"horizon":10,"forced_choices":["rightarrow","leftarrow","rightarrow","leftarrow"],"right_color":"lightblue","left_color":"orange","left_mu":60,"right_mu":80,"left_numbers":[48,47,58,59,67,61,69,52,61,49],"right_numbers":[78,87,82,92,60,78,85,72,80,89],"points_earned":730,"trial_type":"horizons-task","trial_index":77,"time_elapsed":833940,"internal_node_id":"0.0-73.0"},{"response_times":[678.764999989653,530.5400000070222,817.0300000056159,1387.220000004163,1648.8050000043586,530.1949999993667,505.44999999692664,326.4350000099512,293.98000000219326,284.5999999990454],"keys_pressed":["leftarrow","leftarrow","rightarrow","leftarrow","rightarrow","leftarrow","leftarrow","leftarrow","leftarrow","leftarrow"],"horizon":10,"forced_choices":["leftarrow","leftarrow","rightarrow","leftarrow"],"right_color":"orange","left_color":"lightblue","left_mu":60,"right_mu":48,"left_numbers":[56,44,61,64,58,63,52,54,52,60],"right_numbers":[46,55,50,60,48,47,56,52,47,53],"points_earned":543,"trial_type":"horizons-task","trial_index":78,"time_elapsed":842448,"internal_node_id":"0.0-74.0"},{"response_times":[1092.5799999968149,457.6649999944493,579.1900000040187,1153.96999999939,649.4850000017323],"keys_pressed":["rightarrow","leftarrow","rightarrow","rightarrow","rightarrow"],"horizon":5,"forced_choices":["rightarrow","leftarrow","rightarrow","rightarrow"],"right_color":"orange","left_color":"lightblue","left_mu":60,"right_mu":64,"left_numbers":[53,48,58,79,64],"right_numbers":[47,63,54,70,70],"points_earned":289,"trial_type":"horizons-task","trial_index":79,"time_elapsed":847895,"internal_node_id":"0.0-75.0"},{"response_times":[583.1050000124378,513.5549999977229,449.5349999924656,887.1000000071945,1419.8900000046706,952.804999993532,781.7100000102073,870.8449999976438,561.0849999939092,318.56499999412335],"keys_pressed":["rightarrow","rightarrow","leftarrow","rightarrow","leftarrow","leftarrow","leftarrow","leftarrow","leftarrow","leftarrow"],"horizon":10,"forced_choices":["rightarrow","rightarrow","leftarrow","rightarrow"],"right_color":"lightblue","left_color":"orange","left_mu":60,"right_mu":48,"left_numbers":[70,58,56,56,75,58,53,61,56,62],"right_numbers":[54,48,39,37,50,45,49,51,51,50],"points_earned":560,"trial_type":"horizons-task","trial_index":80,"time_elapsed":856740,"internal_node_id":"0.0-76.0"},{"response_times":[381.26999999803957,449.74999999976717,567.7649999997811,609.3499999988126,1350.720000002184,747.7899999939837,665.1600000041071,719.5650000066962,403.3950000011828,392.0899999939138],"keys_pressed":["rightarrow","rightarrow","leftarrow","leftarrow","rightarrow","rightarrow","rightarrow","rightarrow","rightarrow","rightarrow"],"horizon":10,"forced_choices":["rightarrow","rightarrow","leftarrow","leftarrow"],"right_color":"orange","left_color":"lightblue","left_mu":60,"right_mu":68,"left_numbers":[52,71,61,74,61,57,68,60,65,44],"right_numbers":[75,73,82,55,76,77,65,66,69,68],"points_earned":704,"trial_type":"horizons-task","trial_index":81,"time_elapsed":864540,"internal_node_id":"0.0-77.0"},{"response_times":[527.9849999933504,460.55499999783933,696.0899999976391,599.8749999998836,1135.389999995823],"keys_pressed":["leftarrow","rightarrow","rightarrow","rightarrow","leftarrow"],"horizon":5,"forced_choices":["leftarrow","rightarrow","rightarrow","rightarrow"],"right_color":"orange","left_color":"lightblue","left_mu":60,"right_mu":40,"left_numbers":[49,55,63,65,57],"right_numbers":[41,40,44,44,46],"points_earned":234,"trial_type":"horizons-task","trial_index":82,"time_elapsed":869471,"internal_node_id":"0.0-78.0"},{"response_times":[627.3949999886099,792.105000000447,729.1350000014063,1385.0600000005215,894.5300000050338],"keys_pressed":["rightarrow","leftarrow","leftarrow","leftarrow","rightarrow"],"horizon":5,"forced_choices":["rightarrow","leftarrow","leftarrow","leftarrow"],"right_color":"lightblue","left_color":"orange","left_mu":60,"right_mu":90,"left_numbers":[61,61,53,59,58],"right_numbers":[88,97,89,89,88],"points_earned":349,"trial_type":"horizons-task","trial_index":83,"time_elapsed":875430,"internal_node_id":"0.0-79.0"},{"response_times":[972.1950000093784,901.8049999867799,828.0550000054063,695.7149999943795,799.7849999956088,421.2600000028033,414.14999999688007,475.6599999964237,417.1550000028219,472.2649999894202],"keys_pressed":["leftarrow","rightarrow","leftarrow","rightarrow","rightarrow","rightarrow","rightarrow","rightarrow","rightarrow","rightarrow"],"horizon":10,"forced_choices":["leftarrow","rightarrow","leftarrow","rightarrow"],"right_color":"orange","left_color":"lightblue","left_mu":60,"right_mu":90,"left_numbers":[68,63,59,62,62,55,58,70,56,62],"right_numbers":[87,100,87,91,80,95,79,91,91,91],"points_earned":845,"trial_type":"horizons-task","trial_index":84,"time_elapsed":883340,"internal_node_id":"0.0-80.0"},{"response_times":[533.8699999992969,776.834999996936,659.5949999900768,842.3949999996694,674.7199999954319],"keys_pressed":["rightarrow","rightarrow","leftarrow","leftarrow","rightarrow"],"horizon":5,"forced_choices":["rightarrow","rightarrow","leftarrow","leftarrow"],"right_color":"orange","left_color":"lightblue","left_mu":60,"right_mu":90,"left_numbers":[62,54,62,47,56],"right_numbers":[89,80,89,78,79],"points_earned":357,"trial_type":"horizons-task","trial_index":85,"time_elapsed":888339,"internal_node_id":"0.0-81.0"},{"response_times":[432.505000004312,435.5500000092434,542.1650000062073,580.6100000045262,589.0149999904679],"keys_pressed":["rightarrow","leftarrow","leftarrow","rightarrow","leftarrow"],"horizon":5,"forced_choices":["rightarrow","leftarrow","leftarrow","rightarrow"],"right_color":"orange","left_color":"lightblue","left_mu":60,"right_mu":52,"left_numbers":[61,67,62,70,61],"right_numbers":[53,38,42,45,55],"points_earned":288,"trial_type":"horizons-task","trial_index":86,"time_elapsed":892429,"internal_node_id":"0.0-82.0"},{"response_times":[368.5750000004191,370.7799999974668,555.5049999966286,402.86999999079853,434.47500000183936,1769.479999988107,2123.0849999992643,660.505000007106,257.49000000359956,328.0349999986356],"keys_pressed":["leftarrow","rightarrow","rightarrow","rightarrow","rightarrow","leftarrow","leftarrow","leftarrow","leftarrow","leftarrow"],"horizon":10,"forced_choices":["leftarrow","rightarrow","rightarrow","rightarrow"],"right_color":"lightblue","left_color":"orange","left_mu":60,"right_mu":40,"left_numbers":[71,56,55,65,60,53,71,64,56,68],"right_numbers":[35,38,46,45,39,40,24,38,32,28],"points_earned":551,"trial_type":"horizons-task","trial_index":87,"time_elapsed":901210,"internal_node_id":"0.0-83.0"},{"response_times":[580.180000004475,560.910000000149,553.700000004028,902.4499999941327,465.5849999981001],"keys_pressed":["leftarrow","rightarrow","leftarrow","rightarrow","leftarrow"],"horizon":5,"forced_choices":["leftarrow","rightarrow","leftarrow","rightarrow"],"right_color":"orange","left_color":"lightblue","left_mu":60,"right_mu":30,"left_numbers":[55,51,79,55,44],"right_numbers":[20,44,18,30,35],"points_earned":252,"trial_type":"horizons-task","trial_index":88,"time_elapsed":905783,"internal_node_id":"0.0-84.0"},{"response_times":[393.81500000308733,564.8050000017975,766.3749999919673,487.8400000015972,658.2800000032876,1010.2849999966566,531.2200000043958,411.324999993667,292.51499999372754,366.75000000104774],"keys_pressed":["leftarrow","leftarrow","rightarrow","rightarrow","leftarrow","leftarrow","leftarrow","leftarrow","leftarrow","leftarrow"],"horizon":10,"forced_choices":["leftarrow","leftarrow","rightarrow","rightarrow"],"right_color":"orange","left_color":"lightblue","left_mu":60,"right_mu":52,"left_numbers":[51,56,69,64,57,61,59,58,55,77],"right_numbers":[38,56,44,47,61,55,46,48,45,58],"points_earned":565,"trial_type":"horizons-task","trial_index":89,"time_elapsed":912780,"internal_node_id":"0.0-85.0"},{"rt":14343.415000010282,"responses":{"age":"24","gender-categorical":"Male","gender-free-response":"","ethnicity":"Not Hispanic or Latino","race":["White"],"language":"Yes","fluency":"Very well"},"survey":"demographics","trial_type":"survey-demo","trial_index":90,"time_elapsed":927131,"internal_node_id":"0.0-86.0"},{"rt":30207.91999998619,"responses":{"difficulty":"5","fun":"5","clarity":"5","strategy":"Just did a rough average of each side when choosing the next one","feedback":""},"survey":"debrief","trial_type":"survey-debrief","trial_index":91,"time_elapsed":957356,"internal_node_id":"0.0-87.0","interactions":"[]"}]