[{"view_history":"[{\"page_index\":0,\"viewing_time\":5753.865000006044}]","rt":5755.485000001499,"trial_type":"instructions","trial_index":0,"time_elapsed":5770,"internal_node_id":"0.0-0.0"},{"item_order":[0,2,14,12,4,10,7,3,5,16,11,1,9,8,13,6,15],"responses":{"Q01":"3","Q03":"2","Q15":"1","Q13":"2","Q05":"2","Q11":"2","Q08":"2","Q04":"3","Q06":"3","Q17":"0","Q12":"0","Q02":"0","Q10":"3","Q09":"0","Q14":"0","Q07":"0","Q16":"2"},"radio_events":[19598.03500000271,28356.50500000338,30955.55500000046,80566.74999999814,91376.39499999932,114292.47500000201,119402.28000000207,123930.41000000085,126854.01500000444,135408.90500000387,138232.79999999795,142565.79000000056,150952.47499999823,156240.89000000095,159525.37000000302,163041.49999999936,169364.75500000233],"key_events":[],"mouse_events":[0.2300000051036477,19598.03500000271,26468.560000001162,28356.50500000338,30955.55500000046,80566.74999999814,89852.77499999938,91376.39499999932,101209.62500000314,114292.47500000201,117913.04500000115,119402.28000000207,123930.41000000085,124724.60500000307,126854.01500000444,135408.90500000387,138232.79999999795,142565.79000000056,150952.47499999823,156240.89000000095,159525.37000000302,163041.49999999936,164134.5350000047,169364.75500000233,173733.2000000024],"rt":173736.9699999981,"survey":"pswq","trial_type":"survey-template","trial_index":1,"time_elapsed":179520,"internal_node_id":"0.0-1.0"},{"item_order":[7,2,0,4,8,1,12,11,10,9,6,3,5],"responses":{"Q08":"0","Q03":"0","Q01":"0","Q05":"0","Q09":"0","Q02":"0","Q13":"4","Q12":"0","Q11":"1","Q10":"1","Q07":"1","Q04":"1","Q06":"1"},"radio_events":[10077.499999999418,12157.13500000129,14686.399999998685,22476.80499999842,23865.084999997634,35024.83999999822,40267.9799999969,41784.759999995,51517.220000001544,68624.88999999914,140009.16999999754,141077.21499999752,143049.41500000132,143655.85499999725,144808.72499999532],"key_events":[],"mouse_events":[5524.704999996175,10077.499999999418,12157.13500000129,14686.399999998685,18525.10500000062,19625.00999999611,20945.099999997183,22476.80499999842,23865.084999997634,35024.83999999822,40267.9799999969,41784.759999995,49306.189999995695,51517.220000001544,68624.88999999914,80687.85999999818,82226.54499999771,82640.51499999914,139633.07499999792,140009.16999999754,141077.21499999752,141729.4699999984,143049.41500000132,143655.85499999725,144808.72499999532,162657.65999999712],"rt":162660.08999999758,"survey":"ius12","trial_type":"survey-template","trial_index":2,"time_elapsed":342191,"internal_node_id":"0.0-2.0"},{"view_history":"[{\"page_index\":0,\"viewing_time\":11466.964999999618},{\"page_index\":1,\"viewing_time\":9782.44999999879},{\"page_index\":2,\"viewing_time\":16291.174999998475},{\"page_index\":3,\"viewing_time\":6388.534999998228},{\"page_index\":4,\"viewing_time\":7571.5000000054715},{\"page_index\":5,\"viewing_time\":6288.000000000466},{\"page_index\":6,\"viewing_time\":10393.935000000056},{\"page_index\":7,\"viewing_time\":12338.784999999916},{\"page_index\":8,\"viewing_time\":4080.259999995178},{\"page_index\":9,\"viewing_time\":8695.395000002463}]","rt":93297.46000000159,"trial_type":"instructions","trial_index":3,"time_elapsed":435490,"internal_node_id":"0.0-3.0-0.0"},{"response_times":[6550.5600000033155,5660.765000000538,4906.994999997551,1743.5100000002421,2059.880000000703],"keys_pressed":["rightarrow","leftarrow","rightarrow","rightarrow","leftarrow"],"horizon":5,"forced_choices":["rightarrow","leftarrow","rightarrow","rightarrow"],"right_color":"lightblue","left_color":"orange","left_mu":40,"right_mu":20,"left_numbers":[55,50,48,50,47],"right_numbers":[32,18,19,12,9],"points_earned":160,"trial_type":"horizons-task","trial_index":4,"time_elapsed":457931,"internal_node_id":"0.0-3.0-1.0"},{"response_times":[4554.605000004813,999.4750000041677,3026.2599999987287,1574.030000003404,2338.5049999997136,4570.2000000019325,2139.7849999993923,1131.2849999958416,1408.080000001064,1317.685000001802],"keys_pressed":["leftarrow","leftarrow","rightarrow","rightarrow","leftarrow","leftarrow","leftarrow","rightarrow","leftarrow","leftarrow"],"horizon":10,"forced_choices":["leftarrow","leftarrow","rightarrow","rightarrow"],"right_color":"orange","left_color":"lightblue","left_mu":60,"right_mu":70,"left_numbers":[67,59,52,44,78,62,60,57,53,73],"right_numbers":[79,70,65,65,79,74,75,69,86,62],"points_earned":651,"trial_type":"horizons-task","trial_index":5,"time_elapsed":482497,"internal_node_id":"0.0-3.0-2.0"},{"view_history":"[{\"page_index\":0,\"viewing_time\":3592.1000000016647},{\"page_index\":1,\"viewing_time\":10216.33500000462},{\"page_index\":2,\"viewing_time\":5704.2249999940395},{\"page_index\":3,\"viewing_time\":2465.6949999989592}]","rt":21978.805000006105,"trial_type":"instructions","trial_index":6,"time_elapsed":504476,"internal_node_id":"0.0-3.0-3.0"},{"responses":["true","false","true","true"],"num_errors":1,"rt":27090.81000000157,"trial_type":"horizons-comprehension","trial_index":7,"time_elapsed":531572,"internal_node_id":"0.0-3.0-4.0"},{"view_history":"[{\"page_index\":0,\"viewing_time\":4451.659999998868},{\"page_index\":1,\"viewing_time\":9011.514999998268}]","rt":13464.394999995478,"trial_type":"instructions","trial_index":8,"time_elapsed":545040,"internal_node_id":"0.0-4.0"},{"response_times":[2610.9600000054343,1847.9949999965029,1931.5800000040326,1408.3699999973178,5100.335000002757],"keys_pressed":["leftarrow","rightarrow","leftarrow","rightarrow","rightarrow"],"horizon":5,"forced_choices":["leftarrow","rightarrow","leftarrow","rightarrow"],"right_color":"orange","left_color":"lightblue","left_mu":60,"right_mu":80,"left_numbers":[57,60,71,48,62],"right_numbers":[78,85,88,77,86],"points_earned":376,"trial_type":"horizons-task","trial_index":9,"time_elapsed":559463,"internal_node_id":"0.0-5.0"},{"response_times":[3001.4049999953713,3003.8849999983795,1976.5650000044843,1767.6199999987148,6891.839999996591],"keys_pressed":["rightarrow","leftarrow","leftarrow","leftarrow","leftarrow"],"horizon":5,"forced_choices":["rightarrow","leftarrow","leftarrow","leftarrow"],"right_color":"lightblue","left_color":"orange","left_mu":40,"right_mu":52,"left_numbers":[54,32,41,37,42],"right_numbers":[43,52,47,41,53],"points_earned":195,"trial_type":"horizons-task","trial_index":10,"time_elapsed":577611,"internal_node_id":"0.0-6.0"},{"response_times":[2092.8199999979697,1522.095000000205,1419.3149999991292,1208.3599999968428,3800.860000003013],"keys_pressed":["leftarrow","rightarrow","leftarrow","rightarrow","leftarrow"],"horizon":5,"forced_choices":["leftarrow","rightarrow","leftarrow","rightarrow"],"right_color":"orange","left_color":"lightblue","left_mu":40,"right_mu":10,"left_numbers":[16,44,26,38,52],"right_numbers":[2,4,5,17,1],"points_earned":115,"trial_type":"horizons-task","trial_index":11,"time_elapsed":589160,"internal_node_id":"0.0-7.0"},{"response_times":[1873.3699999938253,1711.6000000024214,1176.8450000018347,1611.0249999983935,3692.0949999984587],"keys_pressed":["rightarrow","leftarrow","leftarrow","rightarrow","rightarrow"],"horizon":5,"forced_choices":["rightarrow","leftarrow","leftarrow","rightarrow"],"right_color":"orange","left_color":"lightblue","left_mu":40,"right_mu":36,"left_numbers":[43,41,43,35,39],"right_numbers":[45,34,56,44,36],"points_earned":209,"trial_type":"horizons-task","trial_index":12,"time_elapsed":600732,"internal_node_id":"0.0-8.0"},{"response_times":[3053.90500000061,1467.9699999978766,1582.134999996866,1609.755000004894,4317.794999995269,2411.2349999995204,1670.9699999991572,1328.8200000023935,1790.1650000057416,1132.934999994235],"keys_pressed":["rightarrow","leftarrow","rightarrow","leftarrow","leftarrow","leftarrow","leftarrow","leftarrow","leftarrow","leftarrow"],"horizon":10,"forced_choices":["rightarrow","leftarrow","rightarrow","leftarrow"],"right_color":"orange","left_color":"lightblue","left_mu":40,"right_mu":32,"left_numbers":[43,30,30,40,41,39,57,36,35,45],"right_numbers":[19,22,36,33,22,16,30,31,51,35],"points_earned":378,"trial_type":"horizons-task","trial_index":13,"time_elapsed":622605,"internal_node_id":"0.0-9.0"},{"response_times":[1716.9950000025565,4272.21499999729,2393.579999996349,1466.1649999979418,1421.025000003283],"keys_pressed":["rightarrow","rightarrow","leftarrow","rightarrow","rightarrow"],"horizon":5,"forced_choices":["rightarrow","rightarrow","leftarrow","rightarrow"],"right_color":"orange","left_color":"lightblue","left_mu":40,"right_mu":60,"left_numbers":[52,44,44,32,49],"right_numbers":[55,75,61,61,55],"points_earned":290,"trial_type":"horizons-task","trial_index":14,"time_elapsed":635380,"internal_node_id":"0.0-10.0"},{"response_times":[1513.6149999962654,1574.6749999963213,1451.8850000023376,1352.390000000014,3814.440000001923,1442.2950000008568,1151.9899999984773,1591.2499999976717,1392.4200000037672,1807.9950000029057],"keys_pressed":["rightarrow","leftarrow","rightarrow","rightarrow","rightarrow","rightarrow","rightarrow","rightarrow","rightarrow","rightarrow"],"horizon":10,"forced_choices":["rightarrow","leftarrow","rightarrow","rightarrow"],"right_color":"orange","left_color":"lightblue","left_mu":40,"right_mu":44,"left_numbers":[33,46,42,41,31,47,32,49,38,32],"right_numbers":[38,39,40,44,56,61,51,66,55,33],"points_earned":490,"trial_type":"horizons-task","trial_index":15,"time_elapsed":653987,"internal_node_id":"0.0-11.0"},{"response_times":[1623.9899999999907,2819.6549999993294,1760.7849999986356,1810.1949999982025,1830.1599999975879,2805.8149999997113,1471.994999999879,1012.3299999977462,1159.7150000014808,1327.180000000284],"keys_pressed":["rightarrow","rightarrow","leftarrow","rightarrow","leftarrow","leftarrow","leftarrow","leftarrow","leftarrow","rightarrow"],"horizon":10,"forced_choices":["rightarrow","rightarrow","leftarrow","rightarrow"],"right_color":"lightblue","left_color":"orange","left_mu":40,"right_mu":32,"left_numbers":[47,27,43,42,42,53,54,47,38,42],"right_numbers":[29,37,34,36,46,25,41,34,23,32],"points_earned":411,"trial_type":"horizons-task","trial_index":16,"time_elapsed":673119,"internal_node_id":"0.0-12.0"},{"response_times":[1654.47500000312,1701.2400000020862,1590.6900000046007,1609.3499999988126,3079.3200000043726,1781.7900000009686,2057.610000003362,2082.1999999971595,1358.8349999990314,1939.0999999959022],"keys_pressed":["rightarrow","leftarrow","rightarrow","rightarrow","leftarrow","leftarrow","leftarrow","leftarrow","leftarrow","leftarrow"],"horizon":10,"forced_choices":["rightarrow","leftarrow","rightarrow","rightarrow"],"right_color":"lightblue","left_color":"orange","left_mu":60,"right_mu":48,"left_numbers":[57,60,68,47,77,57,55,76,48,67],"right_numbers":[50,59,44,44,36,46,54,42,57,51],"points_earned":578,"trial_type":"horizons-task","trial_index":17,"time_elapsed":693481,"internal_node_id":"0.0-13.0"},{"response_times":[1774.665000004461,1471.4999999996508,1428.3050000012154,1479.70999999973,3615.7600000005914],"keys_pressed":["rightarrow","leftarrow","rightarrow","rightarrow","leftarrow"],"horizon":5,"forced_choices":["rightarrow","leftarrow","rightarrow","rightarrow"],"right_color":"orange","left_color":"lightblue","left_mu":40,"right_mu":28,"left_numbers":[48,43,45,48,39],"right_numbers":[31,21,25,24,18],"points_earned":162,"trial_type":"horizons-task","trial_index":18,"time_elapsed":704756,"internal_node_id":"0.0-14.0"},{"response_times":[1618.1849999993574,1940.4450000000652,1960.3999999964144,1367.030000001192,2265.059999997844],"keys_pressed":["rightarrow","leftarrow","rightarrow","rightarrow","rightarrow"],"horizon":5,"forced_choices":["rightarrow","leftarrow","rightarrow","rightarrow"],"right_color":"orange","left_color":"lightblue","left_mu":60,"right_mu":72,"left_numbers":[62,63,50,62,61],"right_numbers":[80,91,73,70,65],"points_earned":351,"trial_type":"horizons-task","trial_index":19,"time_elapsed":715413,"internal_node_id":"0.0-15.0"},{"response_times":[2160.8549999946263,1314.3400000043912,1465.7249999946216,2493.210000000545,5388.635000003036,1057.764999997802,948.47999999905,1112.9199999995762,950.8750000023283,1015.8850000007078],"keys_pressed":["leftarrow","leftarrow","rightarrow","leftarrow","leftarrow","leftarrow","leftarrow","leftarrow","leftarrow","leftarrow"],"horizon":10,"forced_choices":["leftarrow","leftarrow","rightarrow","leftarrow"],"right_color":"orange","left_color":"lightblue","left_mu":60,"right_mu":40,"left_numbers":[66,54,65,61,56,63,46,53,62,54],"right_numbers":[39,50,27,23,35,27,36,42,37,49],"points_earned":542,"trial_type":"horizons-task","trial_index":20,"time_elapsed":734829,"internal_node_id":"0.0-16.0"},{"response_times":[1666.0449999981793,1881.8400000019465,1390.8850000007078,1276.9399999961024,1442.9400000008754,1047.7800000008428,1081.770000004326,990.1949999984354,1317.4950000029057,1570.5550000056392],"keys_pressed":["rightarrow","rightarrow","leftarrow","leftarrow","leftarrow","leftarrow","leftarrow","leftarrow","leftarrow","leftarrow"],"horizon":10,"forced_choices":["rightarrow","rightarrow","leftarrow","leftarrow"],"right_color":"orange","left_color":"lightblue","left_mu":60,"right_mu":52,"left_numbers":[51,61,63,68,66,57,61,64,51,61],"right_numbers":[67,45,51,35,58,54,63,43,65,65],"points_earned":603,"trial_type":"horizons-task","trial_index":21,"time_elapsed":750000,"internal_node_id":"0.0-17.0"},{"response_times":[1526.8649999997579,1992.4650000028778,2494.8399999993853,1267.6700000010896,2204.2050000017043],"keys_pressed":["rightarrow","rightarrow","leftarrow","leftarrow","leftarrow"],"horizon":5,"forced_choices":["rightarrow","rightarrow","leftarrow","leftarrow"],"right_color":"lightblue","left_color":"orange","left_mu":60,"right_mu":30,"left_numbers":[57,57,68,47,62],"right_numbers":[35,25,27,20,27],"points_earned":237,"trial_type":"horizons-task","trial_index":22,"time_elapsed":760993,"internal_node_id":"0.0-18.0"},{"response_times":[1654.3749999983702,1541.1500000045635,4559.410000001779,69026.50500000163,3060.925000005169,3897.485000001383,1432.8049999967916,1428.3600000053411,1484.0499999991152,1237.694999996107],"keys_pressed":["rightarrow","rightarrow","rightarrow","leftarrow","rightarrow","rightarrow","rightarrow","rightarrow","rightarrow","rightarrow"],"horizon":10,"forced_choices":["rightarrow","rightarrow","rightarrow","leftarrow"],"right_color":"orange","left_color":"lightblue","left_mu":40,"right_mu":36,"left_numbers":[32,48,45,40,21,47,43,32,28,31],"right_numbers":[35,46,48,32,29,41,44,31,33,42],"points_earned":389,"trial_type":"horizons-task","trial_index":23,"time_elapsed":851822,"internal_node_id":"0.0-19.0"},{"response_times":[1652.589999997872,2321.060000002035,2558.6550000007264,2063.19500000251,1985.4399999966845,1353.9099999979371,1197.6450000002515,800.0299999983981,699.6999999973923,979.9700000003213],"keys_pressed":["rightarrow","leftarrow","leftarrow","rightarrow","rightarrow","rightarrow","rightarrow","rightarrow","rightarrow","rightarrow"],"horizon":10,"forced_choices":["rightarrow","leftarrow","leftarrow","rightarrow"],"right_color":"orange","left_color":"lightblue","left_mu":40,"right_mu":44,"left_numbers":[46,38,41,26,36,43,37,43,44,41],"right_numbers":[43,40,35,62,54,40,51,47,48,43],"points_earned":467,"trial_type":"horizons-task","trial_index":24,"time_elapsed":868939,"internal_node_id":"0.0-20.0"},{"response_times":[1876.3949999993201,1499.6250000039581,1559.9099999964237,1432.3549999971874,3527.605000003008],"keys_pressed":["leftarrow","rightarrow","rightarrow","rightarrow","leftarrow"],"horizon":5,"forced_choices":["leftarrow","rightarrow","rightarrow","rightarrow"],"right_color":"orange","left_color":"lightblue","left_mu":60,"right_mu":48,"left_numbers":[68,65,63,63,71],"right_numbers":[50,45,31,39,43],"points_earned":254,"trial_type":"horizons-task","trial_index":25,"time_elapsed":880340,"internal_node_id":"0.0-21.0"},{"response_times":[2240.4499999975087,1253.299999996554,1435.7349999991711,1565.3050000037765,3534.509999997681],"keys_pressed":["leftarrow","leftarrow","rightarrow","rightarrow","rightarrow"],"horizon":5,"forced_choices":["leftarrow","leftarrow","rightarrow","rightarrow"],"right_color":"lightblue","left_color":"orange","left_mu":60,"right_mu":72,"left_numbers":[61,63,49,66,55],"right_numbers":[58,74,52,81,66],"points_earned":323,"trial_type":"horizons-task","trial_index":26,"time_elapsed":891876,"internal_node_id":"0.0-22.0"},{"response_times":[4339.154999994207,1540.1750000019092,2207.9949999969685,1912.7050000025192,2667.520000002696],"keys_pressed":["leftarrow","leftarrow","rightarrow","leftarrow","leftarrow"],"horizon":5,"forced_choices":["leftarrow","leftarrow","rightarrow","leftarrow"],"right_color":"orange","left_color":"lightblue","left_mu":60,"right_mu":40,"left_numbers":[66,60,50,51,74],"right_numbers":[32,27,20,44,35],"points_earned":271,"trial_type":"horizons-task","trial_index":27,"time_elapsed":906049,"internal_node_id":"0.0-23.0"},{"response_times":[1833.7549999996554,1532.3800000041956,1279.405000001192,1615.9600000028731,1723.9999999947613,1489.264999996405,1188.72000000556,970.3699999954551,840.714999998454,859.1499999965308],"keys_pressed":["rightarrow","leftarrow","leftarrow","rightarrow","leftarrow","leftarrow","leftarrow","leftarrow","leftarrow","leftarrow"],"horizon":10,"forced_choices":["rightarrow","leftarrow","leftarrow","rightarrow"],"right_color":"lightblue","left_color":"orange","left_mu":40,"right_mu":28,"left_numbers":[37,49,51,44,41,40,36,42,43,25],"right_numbers":[25,38,24,30,19,10,26,20,30,30],"points_earned":382,"trial_type":"horizons-task","trial_index":28,"time_elapsed":920888,"internal_node_id":"0.0-24.0"},{"response_times":[2257.2650000001304,1290.0799999989104,1659.160000002943,1370.8150000020396,1563.1099999954458,1667.264999996405,1575.510000002454,1434.030000003986,2299.589999995078,1120.5100000007078],"keys_pressed":["leftarrow","leftarrow","rightarrow","leftarrow","rightarrow","rightarrow","rightarrow","rightarrow","rightarrow","rightarrow"],"horizon":10,"forced_choices":["leftarrow","leftarrow","rightarrow","leftarrow"],"right_color":"lightblue","left_color":"orange","left_mu":60,"right_mu":68,"left_numbers":[63,64,61,60,60,57,55,57,73,61],"right_numbers":[58,62,81,79,65,67,78,72,75,51],"points_earned":676,"trial_type":"horizons-task","trial_index":29,"time_elapsed":938640,"internal_node_id":"0.0-25.0"},{"response_times":[2382.3399999963585,1631.7049999998417,1340.9000000029337,1786.834999998915,2833.019999998156],"keys_pressed":["leftarrow","rightarrow","rightarrow","leftarrow","rightarrow"],"horizon":5,"forced_choices":["leftarrow","rightarrow","rightarrow","leftarrow"],"right_color":"orange","left_color":"lightblue","left_mu":60,"right_mu":72,"left_numbers":[65,65,53,70,59],"right_numbers":[65,66,81,75,68],"points_earned":350,"trial_type":"horizons-task","trial_index":30,"time_elapsed":950121,"internal_node_id":"0.0-26.0"},{"response_times":[2593.149999993271,1196.4749999970663,1101.1999999973923,1122.7599999983795,1765.0099999955855,1593.2200000025332,1562.7300000051036,1499.1700000027195,1077.8949999948964,979.9549999953015],"keys_pressed":["rightarrow","leftarrow","leftarrow","leftarrow","leftarrow","rightarrow","rightarrow","rightarrow","rightarrow","rightarrow"],"horizon":10,"forced_choices":["rightarrow","leftarrow","leftarrow","leftarrow"],"right_color":"lightblue","left_color":"orange","left_mu":40,"right_mu":44,"left_numbers":[40,32,45,35,43,34,39,35,37,31],"right_numbers":[47,35,45,42,41,50,30,48,39,45],"points_earned":414,"trial_type":"horizons-task","trial_index":31,"time_elapsed":966119,"internal_node_id":"0.0-27.0"},{"response_times":[1837.6550000029383,1864.7849999979371,1634.389999999199,1379.525000003865,1140.230000004638],"keys_pressed":["rightarrow","leftarrow","rightarrow","rightarrow","leftarrow"],"horizon":5,"forced_choices":["rightarrow","leftarrow","rightarrow","rightarrow"],"right_color":"orange","left_color":"lightblue","left_mu":40,"right_mu":20,"left_numbers":[42,36,36,31,35],"right_numbers":[10,10,7,5,15],"points_earned":93,"trial_type":"horizons-task","trial_index":32,"time_elapsed":975481,"internal_node_id":"0.0-28.0"},{"response_times":[3614.9000000003725,1884.8300000026356,1043.1899999966845,1000.8700000034878,2350.8399999991525,160.13999999989755,1647.6449999972247,1072.1100000010338,719.505000000936,588.1750000044703],"keys_pressed":["leftarrow","rightarrow","leftarrow","rightarrow","rightarrow","rightarrow","rightarrow","rightarrow","rightarrow","rightarrow"],"horizon":10,"forced_choices":["leftarrow","rightarrow","leftarrow","rightarrow"],"right_color":"lightblue","left_color":"orange","left_mu":60,"right_mu":80,"left_numbers":[62,53,54,57,64,45,43,57,63,53],"right_numbers":[92,76,83,85,75,70,86,83,73,95],"points_earned":759,"trial_type":"horizons-task","trial_index":33,"time_elapsed":991069,"internal_node_id":"0.0-29.0"},{"response_times":[2401.8799999976764,1063.5599999949336,2059.8449999961304,2760.250000006752,4049.3849999983795,1272.2450000001118,895.1699999962002,924.2099999974016,799.2199999934528,659.1450000050245],"keys_pressed":["rightarrow","rightarrow","leftarrow","rightarrow","leftarrow","leftarrow","leftarrow","leftarrow","leftarrow","leftarrow"],"horizon":10,"forced_choices":["rightarrow","rightarrow","leftarrow","rightarrow"],"right_color":"orange","left_color":"lightblue","left_mu":60,"right_mu":48,"left_numbers":[65,65,53,75,43,60,57,72,66,56],"right_numbers":[30,52,40,42,42,44,48,59,51,48],"points_earned":531,"trial_type":"horizons-task","trial_index":34,"time_elapsed":1009460,"internal_node_id":"0.0-30.0"},{"response_times":[2688.0850000015926,1307.8000000022585,2520.304999998305,1539.2700000010664,1240.059999996447],"keys_pressed":["leftarrow","rightarrow","leftarrow","leftarrow","rightarrow"],"horizon":5,"forced_choices":["leftarrow","rightarrow","leftarrow","leftarrow"],"right_color":"lightblue","left_color":"orange","left_mu":40,"right_mu":60,"left_numbers":[54,45,40,39,58],"right_numbers":[50,62,54,59,73],"points_earned":268,"trial_type":"horizons-task","trial_index":35,"time_elapsed":1020261,"internal_node_id":"0.0-31.0"},{"response_times":[2056.810000001802,2445.544999995036,908.4599999987986,1048.4150000046939,1623.9500000011176,997.3299999982119,453.41499999631196,280.6449999989709,259.3949999936158,200.46000000007916],"keys_pressed":["rightarrow","leftarrow","rightarrow","leftarrow","leftarrow","leftarrow","leftarrow","leftarrow","leftarrow","leftarrow"],"horizon":10,"forced_choices":["rightarrow","leftarrow","rightarrow","leftarrow"],"right_color":"lightblue","left_color":"orange","left_mu":40,"right_mu":10,"left_numbers":[43,34,38,34,32,15,48,52,30,55],"right_numbers":[2,14,10,1,2,8,0,13,24,17],"points_earned":312,"trial_type":"horizons-task","trial_index":36,"time_elapsed":1032042,"internal_node_id":"0.0-32.0"},{"response_times":[3254.204999997397,1488.519999998971,770.8050000001676,2220.529999998631,2719.510000002687],"keys_pressed":["leftarrow","rightarrow","leftarrow","rightarrow","leftarrow"],"horizon":5,"forced_choices":["leftarrow","rightarrow","leftarrow","rightarrow"],"right_color":"orange","left_color":"lightblue","left_mu":40,"right_mu":60,"left_numbers":[37,36,60,31,53],"right_numbers":[65,50,62,64,67],"points_earned":264,"trial_type":"horizons-task","trial_index":37,"time_elapsed":1044001,"internal_node_id":"0.0-33.0"},{"response_times":[1674.7399999948684,1319.4950000033714,999.6299999984913,967.7850000008475,2052.790000001667,2938.9849999933504,899.910000000149,800.0849999953061,300.4150000051595,160.5649999983143],"keys_pressed":["rightarrow","leftarrow","rightarrow","leftarrow","leftarrow","leftarrow","leftarrow","leftarrow","leftarrow","leftarrow"],"horizon":10,"forced_choices":["rightarrow","leftarrow","rightarrow","leftarrow"],"right_color":"lightblue","left_color":"orange","left_mu":60,"right_mu":48,"left_numbers":[71,67,64,52,59,73,72,58,64,52],"right_numbers":[49,42,48,48,45,49,52,65,43,43],"points_earned":594,"trial_type":"horizons-task","trial_index":38,"time_elapsed":1057622,"internal_node_id":"0.0-34.0"},{"response_times":[3273.450000000419,1296.5949999997392,969.5599999977276,1541.0849999971688,3171.3600000003353],"keys_pressed":["leftarrow","rightarrow","leftarrow","leftarrow","rightarrow"],"horizon":5,"forced_choices":["leftarrow","rightarrow","leftarrow","leftarrow"],"right_color":"lightblue","left_color":"orange","left_mu":40,"right_mu":44,"left_numbers":[41,39,33,27,42],"right_numbers":[43,54,39,45,32],"points_earned":187,"trial_type":"horizons-task","trial_index":39,"time_elapsed":1069381,"internal_node_id":"0.0-35.0"},{"response_times":[1923.729999994859,1311.0500000037719,1436.5150000012945,851.8750000002328,1212.2999999991152],"keys_pressed":["rightarrow","rightarrow","leftarrow","rightarrow","rightarrow"],"horizon":5,"forced_choices":["rightarrow","rightarrow","leftarrow","rightarrow"],"right_color":"orange","left_color":"lightblue","left_mu":60,"right_mu":80,"left_numbers":[70,68,58,49,71],"right_numbers":[71,95,81,67,81],"points_earned":372,"trial_type":"horizons-task","trial_index":40,"time_elapsed":1077622,"internal_node_id":"0.0-36.0"},{"response_times":[2832.4050000009593,1261.030000001425,1300.5949999934528,898.4000000054948,3284.8900000026915],"keys_pressed":["rightarrow","leftarrow","leftarrow","rightarrow","leftarrow"],"horizon":5,"forced_choices":["rightarrow","leftarrow","leftarrow","rightarrow"],"right_color":"lightblue","left_color":"orange","left_mu":40,"right_mu":32,"left_numbers":[42,26,31,37,35],"right_numbers":[31,36,25,29,19],"points_earned":152,"trial_type":"horizons-task","trial_index":41,"time_elapsed":1088705,"internal_node_id":"0.0-37.0"},{"response_times":[2391.239999996964,932.4649999979883,747.7399999990594,967.7200000004377,2319.8550000013784,832.2400000034831,579.4600000008941,221.36499999766238,419.03000000468455,219.72499999543652],"keys_pressed":["leftarrow","rightarrow","leftarrow","rightarrow","leftarrow","leftarrow","leftarrow","leftarrow","leftarrow","leftarrow"],"horizon":10,"forced_choices":["leftarrow","rightarrow","leftarrow","rightarrow"],"right_color":"orange","left_color":"lightblue","left_mu":60,"right_mu":48,"left_numbers":[77,64,71,49,51,69,61,68,46,76],"right_numbers":[47,54,54,54,50,38,32,54,46,39],"points_earned":627,"trial_type":"horizons-task","trial_index":42,"time_elapsed":1099842,"internal_node_id":"0.0-38.0"},{"response_times":[1863.9699999983422,799.0900000003166,1212.0100000028033,2108.845000002533,1747.0549999999348,843.914999997709,899.7449999952223,1060.7049999963492,639.6700000041164,199.78500000433996],"keys_pressed":["rightarrow","leftarrow","leftarrow","rightarrow","leftarrow","leftarrow","leftarrow","leftarrow","leftarrow","leftarrow"],"horizon":10,"forced_choices":["rightarrow","leftarrow","leftarrow","rightarrow"],"right_color":"lightblue","left_color":"orange","left_mu":40,"right_mu":20,"left_numbers":[31,39,42,36,13,46,42,40,53,38],"right_numbers":[12,21,21,24,22,29,17,8,7,26],"points_earned":349,"trial_type":"horizons-task","trial_index":43,"time_elapsed":1112722,"internal_node_id":"0.0-39.0"},{"response_times":[1913.3350000048522,1480.6099999987055,1087.7299999992829,852.1499999987427,1144.7299999999814],"keys_pressed":["leftarrow","leftarrow","leftarrow","rightarrow","leftarrow"],"horizon":5,"forced_choices":["leftarrow","leftarrow","leftarrow","rightarrow"],"right_color":"lightblue","left_color":"orange","left_mu":40,"right_mu":32,"left_numbers":[46,35,40,25,33],"right_numbers":[42,31,35,21,36],"points_earned":175,"trial_type":"horizons-task","trial_index":44,"time_elapsed":1120707,"internal_node_id":"0.0-40.0"},{"response_times":[1266.8899999989662,622.9499999971595,1639.4999999974389,1184.469999999972,1555.7649999973364,820.4599999953061,199.57000000425614,143.8400000045076,238.19500000518747,285.95999999390915],"keys_pressed":["rightarrow","leftarrow","leftarrow","rightarrow","leftarrow","leftarrow","leftarrow","leftarrow","leftarrow","leftarrow"],"horizon":10,"forced_choices":["rightarrow","leftarrow","leftarrow","rightarrow"],"right_color":"lightblue","left_color":"orange","left_mu":60,"right_mu":30,"left_numbers":[59,67,62,53,63,44,54,70,55,57],"right_numbers":[38,30,29,36,35,38,19,25,30,24],"points_earned":546,"trial_type":"horizons-task","trial_index":45,"time_elapsed":1130171,"internal_node_id":"0.0-41.0"},{"response_times":[1865.6950000005309,799.5250000022352,1167.3850000007078,1481.4299999999348,1159.135000001872,1112.6100000038277,579.4600000008941,179.87500000186265,190.02999999793246,410.00999999954365],"keys_pressed":["rightarrow","leftarrow","leftarrow","leftarrow","leftarrow","leftarrow","leftarrow","leftarrow","leftarrow","leftarrow"],"horizon":10,"forced_choices":["rightarrow","leftarrow","leftarrow","leftarrow"],"right_color":"lightblue","left_color":"orange","left_mu":60,"right_mu":52,"left_numbers":[67,57,61,66,49,71,49,61,59,61],"right_numbers":[56,59,56,62,44,58,39,54,39,69],"points_earned":590,"trial_type":"horizons-task","trial_index":46,"time_elapsed":1140622,"internal_node_id":"0.0-42.0"},{"response_times":[2138.3599999970756,1477.4150000012014,1378.9699999978766,1288.0549999973737,1859.2549999956973],"keys_pressed":["rightarrow","leftarrow","rightarrow","leftarrow","rightarrow"],"horizon":5,"forced_choices":["rightarrow","leftarrow","rightarrow","leftarrow"],"right_color":"orange","left_color":"lightblue","left_mu":60,"right_mu":56,"left_numbers":[64,53,59,49,62],"right_numbers":[79,44,48,59,53],"points_earned":282,"trial_type":"horizons-task","trial_index":47,"time_elapsed":1150270,"internal_node_id":"0.0-43.0"},{"response_times":[1388.1199999959208,1439.269999995362,1348.0150000031572,927.9749999986961,2044.5899999977555],"keys_pressed":["rightarrow","leftarrow","leftarrow","leftarrow","leftarrow"],"horizon":5,"forced_choices":["rightarrow","leftarrow","leftarrow","leftarrow"],"right_color":"orange","left_color":"lightblue","left_mu":40,"right_mu":36,"left_numbers":[42,46,43,30,37],"right_numbers":[38,22,32,51,47],"points_earned":194,"trial_type":"horizons-task","trial_index":48,"time_elapsed":1158923,"internal_node_id":"0.0-44.0"},{"view_history":"[{\"page_index\":0,\"viewing_time\":9099.114999997197},{\"page_index\":1,\"viewing_time\":2639.170000002254}]","rt":11738.719999993918,"trial_type":"instructions","trial_index":49,"time_elapsed":1170662,"internal_node_id":"0.0-45.0"},{"response_times":[4131.560000001686,1429.550000000745,1086.5849999971688,1372.089999997057,2231.6849999988917,740.9750000005588,259.4249999965541,147.67500000004657,140.0250000008382,151.9699999988079],"keys_pressed":["leftarrow","rightarrow","rightarrow","rightarrow","rightarrow","rightarrow","rightarrow","rightarrow","rightarrow","rightarrow"],"horizon":10,"forced_choices":["leftarrow","rightarrow","rightarrow","rightarrow"],"right_color":"lightblue","left_color":"orange","left_mu":60,"right_mu":56,"left_numbers":[58,64,63,64,56,58,58,60,45,54],"right_numbers":[59,61,44,45,42,73,46,54,48,68],"points_earned":539,"trial_type":"horizons-task","trial_index":50,"time_elapsed":1183862,"internal_node_id":"0.0-46.0"},{"response_times":[1544.4149999965448,924.5749999973923,1396.630000002915,1104.2799999995623,704.974999993341],"keys_pressed":["rightarrow","rightarrow","leftarrow","leftarrow","rightarrow"],"horizon":5,"forced_choices":["rightarrow","rightarrow","leftarrow","leftarrow"],"right_color":"lightblue","left_color":"orange","left_mu":60,"right_mu":90,"left_numbers":[60,69,62,61,58],"right_numbers":[84,83,83,95,92],"points_earned":382,"trial_type":"horizons-task","trial_index":51,"time_elapsed":1191043,"internal_node_id":"0.0-47.0"},{"response_times":[2952.7449999949895,1023.7350000024308,645.3699999982491,753.3400000031106,1951.8000000026077,1554.7050000024028,192.26999999955297,137.67000000388362,150.10500000067987,144.64000000595115],"keys_pressed":["leftarrow","rightarrow","leftarrow","rightarrow","leftarrow","leftarrow","leftarrow","leftarrow","leftarrow","leftarrow"],"horizon":10,"forced_choices":["leftarrow","rightarrow","leftarrow","rightarrow"],"right_color":"lightblue","left_color":"orange","left_mu":40,"right_mu":10,"left_numbers":[29,23,31,37,32,29,28,37,28,47],"right_numbers":[4,15,10,10,15,0,16,12,15,0],"points_earned":286,"trial_type":"horizons-task","trial_index":52,"time_elapsed":1202055,"internal_node_id":"0.0-48.0"},{"response_times":[1516.1149999985937,1162.8100000016857,1143.560000004014,700.2649999996647,1267.9300000017975],"keys_pressed":["leftarrow","leftarrow","rightarrow","leftarrow","leftarrow"],"horizon":5,"forced_choices":["leftarrow","leftarrow","rightarrow","leftarrow"],"right_color":"orange","left_color":"lightblue","left_mu":40,"right_mu":20,"left_numbers":[29,41,38,40,30],"right_numbers":[33,17,7,42,22],"points_earned":147,"trial_type":"horizons-task","trial_index":53,"time_elapsed":1209350,"internal_node_id":"0.0-49.0"},{"response_times":[1466.139999996638,1227.780000001192,879.7649999978021,1308.2199999990407,4575.774999997346],"keys_pressed":["leftarrow","rightarrow","leftarrow","rightarrow","leftarrow"],"horizon":5,"forced_choices":["leftarrow","rightarrow","leftarrow","rightarrow"],"right_color":"orange","left_color":"lightblue","left_mu":60,"right_mu":30,"left_numbers":[57,72,59,64,59],"right_numbers":[39,39,19,32,27],"points_earned":246,"trial_type":"horizons-task","trial_index":54,"time_elapsed":1220315,"internal_node_id":"0.0-50.0"},{"response_times":[2324.6249999939464,1430.855000006035,1394.6399999987334,1089.0800000051968,1923.1399999989662,1719.8550000027753,2219.8849999986123,320.75500000081956,239.13999999780208,195.2050000037998],"keys_pressed":["leftarrow","rightarrow","rightarrow","rightarrow","leftarrow","leftarrow","leftarrow","leftarrow","leftarrow","leftarrow"],"horizon":10,"forced_choices":["leftarrow","rightarrow","rightarrow","rightarrow"],"right_color":"lightblue","left_color":"orange","left_mu":40,"right_mu":28,"left_numbers":[42,49,24,52,26,41,35,46,29,22],"right_numbers":[31,33,23,36,28,33,35,35,25,31],"points_earned":333,"trial_type":"horizons-task","trial_index":55,"time_elapsed":1234678,"internal_node_id":"0.0-51.0"},{"response_times":[1919.5550000004005,1039.5749999952968,959.9049999960698,1080.1400000054855,2140.0949999950826,979.8800000061747,359.92999999877065,160.97000000439584,178.9749999952037,180.09000000171363],"keys_pressed":["leftarrow","rightarrow","rightarrow","rightarrow","rightarrow","rightarrow","rightarrow","rightarrow","rightarrow","rightarrow"],"horizon":10,"forced_choices":["leftarrow","rightarrow","rightarrow","rightarrow"],"right_color":"orange","left_color":"lightblue","left_mu":40,"right_mu":48,"left_numbers":[35,36,30,49,36,38,35,45,35,30],"right_numbers":[43,39,48,59,45,39,54,43,50,28],"points_earned":440,"trial_type":"horizons-task","trial_index":56,"time_elapsed":1245183,"internal_node_id":"0.0-52.0"},{"response_times":[1514.7900000009686,928.6250000004657,1211.5750000011176,1556.075000000652,958.8149999980815],"keys_pressed":["leftarrow","rightarrow","leftarrow","rightarrow","rightarrow"],"horizon":5,"forced_choices":["leftarrow","rightarrow","leftarrow","rightarrow"],"right_color":"orange","left_color":"lightblue","left_mu":60,"right_mu":72,"left_numbers":[54,73,59,60,79],"right_numbers":[78,60,89,67,61],"points_earned":301,"trial_type":"horizons-task","trial_index":57,"time_elapsed":1252859,"internal_node_id":"0.0-53.0"},{"response_times":[1439.7449999959208,1499.735000004992,1195.9750000024214,1224.3499999968335,1180.780000002589,258.67000000271946,155.38000000384636,190.01500000013039,192.56000000308268,193.3749999953434],"keys_pressed":["leftarrow","leftarrow","rightarrow","rightarrow","rightarrow","rightarrow","rightarrow","rightarrow","rightarrow","rightarrow"],"horizon":10,"forced_choices":["leftarrow","leftarrow","rightarrow","rightarrow"],"right_color":"orange","left_color":"lightblue","left_mu":60,"right_mu":56,"left_numbers":[57,38,47,56,55,64,70,61,66,63],"right_numbers":[53,54,56,53,62,57,55,50,64,48],"points_earned":540,"trial_type":"horizons-task","trial_index":58,"time_elapsed":1261895,"internal_node_id":"0.0-54.0"},{"response_times":[1782.2200000009034,1296.1849999991246,863.93500000122,2181.069999998901,1879.0699999954086,172.35499999509193,173.83999999566004,197.34500000043772,197.4850000042934,151.78000000002794],"keys_pressed":["rightarrow","leftarrow","rightarrow","rightarrow","rightarrow","rightarrow","rightarrow","rightarrow","rightarrow","rightarrow"],"horizon":10,"forced_choices":["rightarrow","leftarrow","rightarrow","rightarrow"],"right_color":"orange","left_color":"lightblue","left_mu":40,"right_mu":48,"left_numbers":[54,50,44,49,21,42,40,42,52,47],"right_numbers":[45,50,29,43,53,56,45,28,29,34],"points_earned":412,"trial_type":"horizons-task","trial_index":59,"time_elapsed":1272296,"internal_node_id":"0.0-55.0"},{"response_times":[1761.9449999984354,1716.4100000008475,1151.7749999985099,1291.895000002114,1739.9450000012293,147.95500000030734,243.78499999875203,185.9850000035949,209.89500000001863,202.34000000334345],"keys_pressed":["leftarrow","leftarrow","rightarrow","leftarrow","leftarrow","leftarrow","leftarrow","leftarrow","leftarrow","leftarrow"],"horizon":10,"forced_choices":["leftarrow","leftarrow","rightarrow","leftarrow"],"right_color":"orange","left_color":"lightblue","left_mu":40,"right_mu":32,"left_numbers":[39,55,50,35,45,35,24,25,37,29],"right_numbers":[16,30,30,38,32,24,33,28,22,20],"points_earned":354,"trial_type":"horizons-task","trial_index":60,"time_elapsed":1282454,"internal_node_id":"0.0-56.0"},{"response_times":[1731.9349999960978,1332.3299999975134,1157.1800000017975,2419.009999997914,603.4050000016578],"keys_pressed":["rightarrow","rightarrow","leftarrow","leftarrow","rightarrow"],"horizon":5,"forced_choices":["rightarrow","rightarrow","leftarrow","leftarrow"],"right_color":"orange","left_color":"lightblue","left_mu":40,"right_mu":70,"left_numbers":[35,43,30,40,29],"right_numbers":[74,76,92,63,66],"points_earned":286,"trial_type":"horizons-task","trial_index":61,"time_elapsed":1291203,"internal_node_id":"0.0-57.0"},{"response_times":[1715.8600000038277,1210.0099999951199,1007.6149999948684,1001.660000001546,1260.3600000003353,453.5450000038836,186.11000000243075,191.5450000015553,193.05499999620952,179.6699999975972],"keys_pressed":["leftarrow","leftarrow","leftarrow","rightarrow","rightarrow","rightarrow","rightarrow","rightarrow","rightarrow","rightarrow"],"horizon":10,"forced_choices":["leftarrow","leftarrow","leftarrow","rightarrow"],"right_color":"lightblue","left_color":"orange","left_mu":60,"right_mu":40,"left_numbers":[49,56,58,64,62,62,54,68,63,59],"right_numbers":[33,49,44,53,30,42,28,41,35,45],"points_earned":437,"trial_type":"horizons-task","trial_index":62,"time_elapsed":1300108,"internal_node_id":"0.0-58.0"},{"response_times":[1629.710000001127,968.78500000434,1227.2999999986496,1423.6949999977369,920.3699999998789],"keys_pressed":["leftarrow","rightarrow","leftarrow","rightarrow","leftarrow"],"horizon":5,"forced_choices":["leftarrow","rightarrow","leftarrow","rightarrow"],"right_color":"lightblue","left_color":"orange","left_mu":60,"right_mu":48,"left_numbers":[55,71,73,64,63],"right_numbers":[43,45,52,48,48],"points_earned":284,"trial_type":"horizons-task","trial_index":63,"time_elapsed":1307784,"internal_node_id":"0.0-59.0"},{"response_times":[1482.5999999956694,1188.9399999999441,1051.4149999944493,951.569999997504,2082.510000000242,185.31000000075437,326.365000000922,206.98999999882653,178.71500000194646,220.0100000044331],"keys_pressed":["leftarrow","leftarrow","rightarrow","leftarrow","leftarrow","leftarrow","leftarrow","leftarrow","leftarrow","leftarrow"],"horizon":10,"forced_choices":["leftarrow","leftarrow","rightarrow","leftarrow"],"right_color":"orange","left_color":"lightblue","left_mu":40,"right_mu":52,"left_numbers":[34,38,38,47,30,34,39,52,40,48],"right_numbers":[44,58,38,57,56,58,46,67,63,65],"points_earned":400,"trial_type":"horizons-task","trial_index":64,"time_elapsed":1317163,"internal_node_id":"0.0-60.0"},{"response_times":[1455.5450000043493,720.6250000016298,1099.3900000031572,979.9149999960791,820.0050000012852],"keys_pressed":["rightarrow","leftarrow","leftarrow","rightarrow","rightarrow"],"horizon":5,"forced_choices":["rightarrow","leftarrow","leftarrow","rightarrow"],"right_color":"lightblue","left_color":"orange","left_mu":60,"right_mu":64,"left_numbers":[44,63,53,48,59],"right_numbers":[68,59,72,70,64],"points_earned":318,"trial_type":"horizons-task","trial_index":65,"time_elapsed":1323743,"internal_node_id":"0.0-61.0"},{"response_times":[1175.8699999991804,779.7099999953061,829.0950000011362,871.4699999981094,984.18500000122],"keys_pressed":["leftarrow","rightarrow","leftarrow","rightarrow","rightarrow"],"horizon":5,"forced_choices":["leftarrow","rightarrow","leftarrow","rightarrow"],"right_color":"orange","left_color":"lightblue","left_mu":40,"right_mu":60,"left_numbers":[30,40,35,46,38],"right_numbers":[65,64,58,61,51],"points_earned":241,"trial_type":"horizons-task","trial_index":66,"time_elapsed":1329888,"internal_node_id":"0.0-62.0"},{"response_times":[1311.184999998659,768.1499999961816,1131.50499999756,1065.844999997178,833.9049999995623],"keys_pressed":["rightarrow","leftarrow","leftarrow","leftarrow","rightarrow"],"horizon":5,"forced_choices":["rightarrow","leftarrow","leftarrow","leftarrow"],"right_color":"orange","left_color":"lightblue","left_mu":60,"right_mu":40,"left_numbers":[58,64,62,60,59],"right_numbers":[30,48,39,30,36],"points_earned":252,"trial_type":"horizons-task","trial_index":67,"time_elapsed":1336504,"internal_node_id":"0.0-63.0"},{"response_times":[1934.495000001276,800.269999999553,928.025000001071,1692.5250000059605,995.4550000037998,439.76500000292435,205.16499999933876,194.12999999616295,183.06000000308268,309.2350000005681],"keys_pressed":["rightarrow","leftarrow","rightarrow","rightarrow","rightarrow","rightarrow","rightarrow","rightarrow","rightarrow","rightarrow"],"horizon":10,"forced_choices":["rightarrow","leftarrow","rightarrow","rightarrow"],"right_color":"orange","left_color":"lightblue","left_mu":40,"right_mu":60,"left_numbers":[35,37,39,35,20,40,43,33,32,36],"right_numbers":[61,57,58,65,46,43,70,59,67,64],"points_earned":570,"trial_type":"horizons-task","trial_index":68,"time_elapsed":1345691,"internal_node_id":"0.0-64.0"},{"response_times":[1381.9300000031944,1205.1949999951757,1640.2600000002421,1119.9500000001863,5128.194999997504],"keys_pressed":["leftarrow","rightarrow","rightarrow","leftarrow","rightarrow"],"horizon":5,"forced_choices":["leftarrow","rightarrow","rightarrow","leftarrow"],"right_color":"lightblue","left_color":"orange","left_mu":60,"right_mu":64,"left_numbers":[55,47,63,56,60],"right_numbers":[64,57,55,62,66],"points_earned":289,"trial_type":"horizons-task","trial_index":69,"time_elapsed":1357673,"internal_node_id":"0.0-65.0"},{"response_times":[2146.0399999998044,1919.5599999947008,1247.4949999961536,1943.9700000004377,1568.595000004163,221.00000000512227,162.90000000293367,203.76000000396743,142.10000000474975,211.51000000094064],"keys_pressed":["leftarrow","leftarrow","leftarrow","rightarrow","leftarrow","leftarrow","leftarrow","leftarrow","leftarrow","leftarrow"],"horizon":10,"forced_choices":["leftarrow","leftarrow","leftarrow","rightarrow"],"right_color":"orange","left_color":"lightblue","left_mu":40,"right_mu":20,"left_numbers":[41,45,37,40,45,39,46,51,45,59],"right_numbers":[13,26,34,18,13,10,27,21,0,28],"points_earned":426,"trial_type":"horizons-task","trial_index":70,"time_elapsed":1368946,"internal_node_id":"0.0-66.0"},{"response_times":[1092.8050000001676,1060.2349999970756,967.5700000007637,1532.7900000046939,2220.349999996135],"keys_pressed":["leftarrow","leftarrow","rightarrow","leftarrow","leftarrow"],"horizon":5,"forced_choices":["leftarrow","leftarrow","rightarrow","leftarrow"],"right_color":"orange","left_color":"lightblue","left_mu":40,"right_mu":70,"left_numbers":[44,52,35,39,38],"right_numbers":[70,64,65,61,65],"points_earned":238,"trial_type":"horizons-task","trial_index":71,"time_elapsed":1377325,"internal_node_id":"0.0-67.0"},{"response_times":[1658.7799999979325,1114.4800000039395,1141.2500000006985,1339.079999997979,896.3949999960605],"keys_pressed":["leftarrow","leftarrow","leftarrow","rightarrow","leftarrow"],"horizon":5,"forced_choices":["leftarrow","leftarrow","leftarrow","rightarrow"],"right_color":"lightblue","left_color":"orange","left_mu":40,"right_mu":44,"left_numbers":[35,38,50,47,23],"right_numbers":[54,42,44,56,38],"points_earned":202,"trial_type":"horizons-task","trial_index":72,"time_elapsed":1384981,"internal_node_id":"0.0-68.0"},{"response_times":[1017.0100000032689,901.0550000022631,1419.9650000010151,2902.104999993695,947.6750000030734],"keys_pressed":["leftarrow","rightarrow","rightarrow","leftarrow","leftarrow"],"horizon":5,"forced_choices":["leftarrow","rightarrow","rightarrow","leftarrow"],"right_color":"lightblue","left_color":"orange","left_mu":40,"right_mu":10,"left_numbers":[35,36,39,36,33],"right_numbers":[17,0,10,12,16],"points_earned":114,"trial_type":"horizons-task","trial_index":73,"time_elapsed":1393674,"internal_node_id":"0.0-69.0"},{"response_times":[1445.9250000000466,1076.1749999946915,1103.139999999432,959.9149999993388,700.3299999996088,919.9300000036601,2321.7149999979883,598.0399999970105,181.20999999530613,178.6950000023935],"keys_pressed":["rightarrow","leftarrow","leftarrow","rightarrow","leftarrow","rightarrow","leftarrow","leftarrow","leftarrow","leftarrow"],"horizon":10,"forced_choices":["rightarrow","leftarrow","leftarrow","rightarrow"],"right_color":"lightblue","left_color":"orange","left_mu":40,"right_mu":20,"left_numbers":[38,30,41,39,28,52,56,34,46,33],"right_numbers":[18,18,25,19,29,16,26,26,13,30],"points_earned":321,"trial_type":"horizons-task","trial_index":74,"time_elapsed":1404664,"internal_node_id":"0.0-70.0"},{"response_times":[1690.6650000019,848.814999997383,1113.775000005262,1084.6749999984168,925.29999999539,661.4350000019185,130.3750000006985,207.42499999329448,228.48499999963678,188.7949999945704],"keys_pressed":["rightarrow","leftarrow","leftarrow","rightarrow","leftarrow","leftarrow","leftarrow","leftarrow","leftarrow","leftarrow"],"horizon":10,"forced_choices":["rightarrow","leftarrow","leftarrow","rightarrow"],"right_color":"orange","left_color":"lightblue","left_mu":60,"right_mu":40,"left_numbers":[69,57,58,59,70,69,60,63,71,69],"right_numbers":[35,55,36,28,45,36,63,38,42,38],"points_earned":580,"trial_type":"horizons-task","trial_index":75,"time_elapsed":1413250,"internal_node_id":"0.0-71.0"},{"response_times":[1290.335000005085,702.4000000020023,1210.2799999993294,1686.9999999979045,1243.949999996461],"keys_pressed":["rightarrow","leftarrow","rightarrow","rightarrow","rightarrow"],"horizon":5,"forced_choices":["rightarrow","leftarrow","rightarrow","rightarrow"],"right_color":"lightblue","left_color":"orange","left_mu":40,"right_mu":52,"left_numbers":[43,39,41,23,37],"right_numbers":[50,59,47,57,37],"points_earned":230,"trial_type":"horizons-task","trial_index":76,"time_elapsed":1420889,"internal_node_id":"0.0-72.0"},{"response_times":[2038.910000002943,860.1500000003725,872.4350000047125,1047.3349999957718,1231.8049999957439],"keys_pressed":["leftarrow","rightarrow","leftarrow","rightarrow","leftarrow"],"horizon":5,"forced_choices":["leftarrow","rightarrow","leftarrow","rightarrow"],"right_color":"lightblue","left_color":"orange","left_mu":40,"right_mu":20,"left_numbers":[31,39,35,35,36],"right_numbers":[12,31,24,11,19],"points_earned":144,"trial_type":"horizons-task","trial_index":77,"time_elapsed":1428445,"internal_node_id":"0.0-73.0"},{"response_times":[1175.389999996638,828.2150000014808,930.855000006035,1339.0499999951571,2002.1199999973178,258.99999999813735,199.5999999998603,159.80999999749474,581.4249999967869,219.38000000244938],"keys_pressed":["rightarrow","leftarrow","rightarrow","rightarrow","rightarrow","rightarrow","rightarrow","rightarrow","rightarrow","rightarrow"],"horizon":10,"forced_choices":["rightarrow","leftarrow","rightarrow","rightarrow"],"right_color":"orange","left_color":"lightblue","left_mu":40,"right_mu":32,"left_numbers":[46,24,30,32,49,37,41,49,42,45],"right_numbers":[23,35,35,26,21,48,43,42,45,24],"points_earned":331,"trial_type":"horizons-task","trial_index":78,"time_elapsed":1437646,"internal_node_id":"0.0-74.0"},{"response_times":[1002.2649999954738,632.1050000041723,1155.8149999983143,991.1450000000186,953.9050000021234,980.5249999989755,178.5250000031665,188.14500000001863,228.98500000149943,163.13000000081956],"keys_pressed":["leftarrow","rightarrow","rightarrow","leftarrow","rightarrow","rightarrow","rightarrow","rightarrow","rightarrow","rightarrow"],"horizon":10,"forced_choices":["leftarrow","rightarrow","rightarrow","leftarrow"],"right_color":"orange","left_color":"lightblue","left_mu":40,"right_mu":36,"left_numbers":[31,30,52,43,19,35,34,41,46,42],"right_numbers":[30,36,33,27,32,46,34,29,28,49],"points_earned":361,"trial_type":"horizons-task","trial_index":79,"time_elapsed":1445626,"internal_node_id":"0.0-75.0"},{"response_times":[1542.0949999969453,1447.184999997262,962.2549999984913,1089.4899999983609,1891.5799999958836,808.8399999979883,232.03999999538064,199.91499999747612,181.8100000016857,225.81499999808148],"keys_pressed":["leftarrow","leftarrow","rightarrow","rightarrow","leftarrow","leftarrow","leftarrow","leftarrow","leftarrow","leftarrow"],"horizon":10,"forced_choices":["leftarrow","leftarrow","rightarrow","rightarrow"],"right_color":"orange","left_color":"lightblue","left_mu":40,"right_mu":32,"left_numbers":[56,37,29,43,55,58,46,38,45,25],"right_numbers":[34,33,36,31,30,33,22,32,22,27],"points_earned":427,"trial_type":"horizons-task","trial_index":80,"time_elapsed":1455713,"internal_node_id":"0.0-76.0"},{"response_times":[1306.5199999983888,761.1049999978859,739.1200000056997,824.1600000036415,795.2949999962002,200.02499999827705,189.5100000037346,178.76000000233762,174.40499999793246,211.4399999990128],"keys_pressed":["leftarrow","rightarrow","leftarrow","rightarrow","rightarrow","rightarrow","rightarrow","rightarrow","rightarrow","rightarrow"],"horizon":10,"forced_choices":["leftarrow","rightarrow","leftarrow","rightarrow"],"right_color":"lightblue","left_color":"orange","left_mu":60,"right_mu":72,"left_numbers":[51,59,49,73,54,67,45,61,61,42],"right_numbers":[67,66,71,74,64,71,65,51,60,66],"points_earned":617,"trial_type":"horizons-task","trial_index":81,"time_elapsed":1462600,"internal_node_id":"0.0-77.0"},{"response_times":[1060.440000001341,1620.105000001844,1183.9350000009872,1457.2550000012852,774.0000000048894],"keys_pressed":["leftarrow","leftarrow","leftarrow","rightarrow","leftarrow"],"horizon":5,"forced_choices":["leftarrow","leftarrow","leftarrow","rightarrow"],"right_color":"lightblue","left_color":"orange","left_mu":60,"right_mu":90,"left_numbers":[61,65,55,60,47],"right_numbers":[87,84,93,99,89],"points_earned":327,"trial_type":"horizons-task","trial_index":82,"time_elapsed":1470201,"internal_node_id":"0.0-78.0"},{"response_times":[1338.775000003865,840.0150000015274,1675.165000000503,972.4549999956507,952.5250000006054,1419.6149999988265,3183.5649999992456,945.4350000014529,475.4400000020396,84.3250000034459],"keys_pressed":["rightarrow","leftarrow","leftarrow","leftarrow","rightarrow","leftarrow","leftarrow","leftarrow","leftarrow","leftarrow"],"horizon":10,"forced_choices":["rightarrow","leftarrow","leftarrow","leftarrow"],"right_color":"orange","left_color":"lightblue","left_mu":40,"right_mu":28,"left_numbers":[38,40,18,44,39,38,43,35,46,38],"right_numbers":[43,20,20,34,31,38,36,35,25,39],"points_earned":376,"trial_type":"horizons-task","trial_index":83,"time_elapsed":1483594,"internal_node_id":"0.0-79.0"},{"response_times":[1026.9450000049546,1137.3300000051968,1401.8649999997579,1309.3100000042468,768.470000002766],"keys_pressed":["leftarrow","leftarrow","rightarrow","leftarrow","leftarrow"],"horizon":5,"forced_choices":["leftarrow","leftarrow","rightarrow","leftarrow"],"right_color":"lightblue","left_color":"orange","left_mu":60,"right_mu":40,"left_numbers":[65,59,54,67,51],"right_numbers":[37,31,38,40,30],"points_earned":280,"trial_type":"horizons-task","trial_index":84,"time_elapsed":1490745,"internal_node_id":"0.0-80.0"},{"response_times":[1322.9050000009593,1171.835000000894,1558.7099999974016,1301.2499999967404,2100.2700000025798],"keys_pressed":["leftarrow","rightarrow","rightarrow","rightarrow","rightarrow"],"horizon":5,"forced_choices":["leftarrow","rightarrow","rightarrow","rightarrow"],"right_color":"lightblue","left_color":"orange","left_mu":40,"right_mu":32,"left_numbers":[25,40,17,35,41],"right_numbers":[40,27,30,43,34],"points_earned":159,"trial_type":"horizons-task","trial_index":85,"time_elapsed":1499707,"internal_node_id":"0.0-81.0"},{"response_times":[4225.374999994645,1331.234999998007,1329.2950000031851,1407.6249999997672,1895.5700000005309,216.26999999722466,201.56500000297092,187.30499999946915,181.32499999785796,190.11999999941327],"keys_pressed":["rightarrow","leftarrow","rightarrow","leftarrow","leftarrow","leftarrow","leftarrow","leftarrow","leftarrow","leftarrow"],"horizon":10,"forced_choices":["rightarrow","leftarrow","rightarrow","leftarrow"],"right_color":"lightblue","left_color":"orange","left_mu":40,"right_mu":10,"left_numbers":[53,30,37,50,26,33,47,34,38,42],"right_numbers":[12,8,3,9,1,0,8,8,19,9],"points_earned":315,"trial_type":"horizons-task","trial_index":86,"time_elapsed":1512385,"internal_node_id":"0.0-82.0"},{"response_times":[1353.9349999991246,1699.880000000354,779.804999998305,1480.8799999954645,1430.4750000010245,209.20000000484288,164.18500000145286,241.0749999980908,214.07999999797903,175.9349999993574],"keys_pressed":["leftarrow","leftarrow","rightarrow","rightarrow","rightarrow","rightarrow","rightarrow","rightarrow","rightarrow","rightarrow"],"horizon":10,"forced_choices":["leftarrow","leftarrow","rightarrow","rightarrow"],"right_color":"lightblue","left_color":"orange","left_mu":40,"right_mu":70,"left_numbers":[53,34,41,30,32,47,59,27,26,45],"right_numbers":[73,70,65,68,67,70,70,71,75,64],"points_earned":637,"trial_type":"horizons-task","trial_index":87,"time_elapsed":1521641,"internal_node_id":"0.0-83.0"},{"response_times":[2033.5300000007264,823.6150000011548,1080.0749999980908,1021.8500000045169,1718.7249999986961,1602.5149999985006,2156.9700000036974,1227.5499999958556,252.13500000233762,199.97500000311993],"keys_pressed":["rightarrow","leftarrow","leftarrow","rightarrow","leftarrow","rightarrow","leftarrow","leftarrow","leftarrow","leftarrow"],"horizon":10,"forced_choices":["rightarrow","leftarrow","leftarrow","rightarrow"],"right_color":"lightblue","left_color":"orange","left_mu":40,"right_mu":32,"left_numbers":[36,37,51,40,32,39,38,45,52,39],"right_numbers":[23,53,33,46,32,44,31,37,46,11],"points_earned":407,"trial_type":"horizons-task","trial_index":88,"time_elapsed":1535266,"internal_node_id":"0.0-84.0"},{"response_times":[1500.7849999966566,1272.3550000009127,987.1649999986403,1857.7249999942724,1322.5450000027195],"keys_pressed":["rightarrow","rightarrow","leftarrow","leftarrow","rightarrow"],"horizon":5,"forced_choices":["rightarrow","rightarrow","leftarrow","leftarrow"],"right_color":"orange","left_color":"lightblue","left_mu":40,"right_mu":60,"left_numbers":[52,58,36,36,37],"right_numbers":[54,55,59,53,51],"points_earned":232,"trial_type":"horizons-task","trial_index":89,"time_elapsed":1543714,"internal_node_id":"0.0-85.0"},{"rt":29917.934999997495,"responses":{"age":"42","gender-categorical":"Male","gender-free-response":"","ethnicity":"Not Hispanic or Latino","race":["White"],"language":"Yes","fluency":"Very well"},"survey":"demographics","trial_type":"survey-demo","trial_index":90,"time_elapsed":1573638,"internal_node_id":"0.0-86.0"},{"rt":44541.92000000342,"responses":{"difficulty":"4","fun":"5","clarity":"5","strategy":"N/A","feedback":"N/A"},"survey":"debrief","trial_type":"survey-debrief","trial_index":91,"time_elapsed":1618184,"internal_node_id":"0.0-87.0","interactions":"[{\"event\":\"blur\",\"trial\":23,\"time\":813830},{\"event\":\"focus\",\"trial\":23,\"time\":833678},{\"event\":\"blur\",\"trial\":91,\"time\":1596516},{\"event\":\"focus\",\"trial\":91,\"time\":1604202}]"}]