[{"view_history":"[{\"page_index\":0,\"viewing_time\":51880}]","rt":51880,"trial_type":"instructions","trial_index":0,"time_elapsed":51884,"internal_node_id":"0.0-0.0"},{"item_order":[14,8,12,9,0,5,2,10,7,6,3,15,1,16,4,11,13],"responses":{"Q15":"3","Q09":"2","Q13":"1","Q10":"2","Q01":"2","Q06":"2","Q03":"2","Q11":"2","Q08":"2","Q07":"3","Q04":"3","Q16":"1","Q02":"1","Q17":"1","Q05":"3","Q12":"1","Q14":"1"},"radio_events":[8439,18711,26086,36687,39558,43158,48445,53430,56854,63614,67429,73029,76117,80252,88164,91804,94732],"key_events":[],"mouse_events":[1,7488,8439,18711,23591,25199,26086,30103,31254,36207,36687,38646,39118,39558,42638,43158,48445,53430,56005,56854,63614,67429,72541,73029,76117,80252,88164,91804,94732,95751],"rt":95751,"survey":"pswq","trial_type":"survey-template","trial_index":1,"time_elapsed":147694,"internal_node_id":"0.0-1.0"},{"item_order":[10,4,3,9,8,1,6,0,7,11,2,12,5],"responses":{"Q11":"2","Q05":"2","Q04":"2","Q10":"3","Q09":"2","Q02":"2","Q07":"2","Q01":"2","Q08":"1","Q12":"2","Q03":"2","Q13":"2","Q06":"2"},"radio_events":[4892,10996,16237,23308,29708,31452,32292,34564,39556,40876,41956,44300,45395],"key_events":[],"mouse_events":[4892,10996,16237,23308,29708,31452,32292,34564,39556,40876,41956,44300,45395,48221],"rt":48221,"survey":"ius12","trial_type":"survey-template","trial_index":2,"time_elapsed":195922,"internal_node_id":"0.0-2.0"},{"view_history":"[{\"page_index\":0,\"viewing_time\":8537},{\"page_index\":1,\"viewing_time\":11697},{\"page_index\":2,\"viewing_time\":17935},{\"page_index\":3,\"viewing_time\":11472},{\"page_index\":4,\"viewing_time\":40926},{\"page_index\":5,\"viewing_time\":6335},{\"page_index\":6,\"viewing_time\":9705},{\"page_index\":7,\"viewing_time\":17606},{\"page_index\":8,\"viewing_time\":11712},{\"page_index\":9,\"viewing_time\":17760}]","rt":153685,"trial_type":"instructions","trial_index":3,"time_elapsed":349609,"internal_node_id":"0.0-3.0-0.0"},{"response_times":[72190,2879,1216,1488,1848],"keys_pressed":["rightarrow","leftarrow","rightarrow","rightarrow","leftarrow"],"horizon":5,"forced_choices":["rightarrow","leftarrow","rightarrow","rightarrow"],"right_color":"lightblue","left_color":"orange","left_mu":40,"right_mu":20,"left_numbers":[38,40,42,22,44],"right_numbers":[15,15,23,4,22],"points_earned":126,"trial_type":"horizons-task","trial_index":4,"time_elapsed":430891,"internal_node_id":"0.0-3.0-1.0"},{"response_times":[1263,1560,1112,999,1369,47,1312,17,1215,26],"keys_pressed":["leftarrow","leftarrow","rightarrow","rightarrow","leftarrow","rightarrow","rightarrow","leftarrow","rightarrow","leftarrow"],"horizon":10,"forced_choices":["leftarrow","leftarrow","rightarrow","rightarrow"],"right_color":"orange","left_color":"lightblue","left_mu":60,"right_mu":70,"left_numbers":[53,64,64,44,61,51,62,65,49,59],"right_numbers":[61,70,66,79,66,63,52,84,70,67],"points_earned":632,"trial_type":"horizons-task","trial_index":5,"time_elapsed":441314,"internal_node_id":"0.0-3.0-2.0"},{"view_history":"[{\"page_index\":0,\"viewing_time\":5522},{\"page_index\":1,\"viewing_time\":7464},{\"page_index\":2,\"viewing_time\":1048},{\"page_index\":3,\"viewing_time\":3849}]","rt":17883,"trial_type":"instructions","trial_index":6,"time_elapsed":459197,"internal_node_id":"0.0-3.0-3.0"},{"responses":["true","false","false","true"],"num_errors":0,"rt":22574,"trial_type":"horizons-comprehension","trial_index":7,"time_elapsed":481774,"internal_node_id":"0.0-3.0-4.0"},{"view_history":"[{\"page_index\":0,\"viewing_time\":1539},{\"page_index\":1,\"viewing_time\":6136}]","rt":7675,"trial_type":"instructions","trial_index":8,"time_elapsed":489452,"internal_node_id":"0.0-4.0"},{"response_times":[719,536,535,464,679,21,772,15,497,15],"keys_pressed":["leftarrow","rightarrow","rightarrow","rightarrow","rightarrow","leftarrow","leftarrow","rightarrow","rightarrow","leftarrow"],"horizon":10,"forced_choices":["leftarrow","rightarrow","rightarrow","rightarrow"],"right_color":"orange","left_color":"lightblue","left_mu":60,"right_mu":52,"left_numbers":[60,66,68,55,63,64,53,81,44,61],"right_numbers":[48,49,58,51,59,53,44,63,49,50],"points_earned":567,"trial_type":"horizons-task","trial_index":9,"time_elapsed":495214,"internal_node_id":"0.0-5.0"},{"response_times":[577,545,439,504,576,89,543,24,576,17],"keys_pressed":["leftarrow","leftarrow","rightarrow","rightarrow","rightarrow","leftarrow","leftarrow","rightarrow","leftarrow","rightarrow"],"horizon":10,"forced_choices":["leftarrow","leftarrow","rightarrow","rightarrow"],"right_color":"orange","left_color":"lightblue","left_mu":60,"right_mu":68,"left_numbers":[59,52,58,64,70,48,65,57,66,55],"right_numbers":[67,72,64,67,75,78,79,69,59,70],"points_earned":635,"trial_type":"horizons-task","trial_index":10,"time_elapsed":500607,"internal_node_id":"0.0-6.0"},{"response_times":[816,551,416,504,384,639,16,608,17,503],"keys_pressed":["rightarrow","rightarrow","leftarrow","rightarrow","leftarrow","leftarrow","rightarrow","leftarrow","rightarrow","leftarrow"],"horizon":10,"forced_choices":["rightarrow","rightarrow","leftarrow","rightarrow"],"right_color":"lightblue","left_color":"orange","left_mu":40,"right_mu":10,"left_numbers":[38,30,48,28,36,35,39,39,44,46],"right_numbers":[12,10,12,2,4,0,0,0,15,19],"points_earned":243,"trial_type":"horizons-task","trial_index":11,"time_elapsed":506565,"internal_node_id":"0.0-7.0"},{"response_times":[537,544,592,495,505],"keys_pressed":["rightarrow","leftarrow","leftarrow","leftarrow","rightarrow"],"horizon":5,"forced_choices":["rightarrow","leftarrow","leftarrow","leftarrow"],"right_color":"orange","left_color":"lightblue","left_mu":40,"right_mu":60,"left_numbers":[46,40,41,37,36],"right_numbers":[61,53,49,57,68],"points_earned":247,"trial_type":"horizons-task","trial_index":12,"time_elapsed":510741,"internal_node_id":"0.0-8.0"},{"response_times":[505,424,496,456,663,24,600,16,688,21],"keys_pressed":["leftarrow","leftarrow","leftarrow","rightarrow","leftarrow","rightarrow","leftarrow","rightarrow","leftarrow","rightarrow"],"horizon":10,"forced_choices":["leftarrow","leftarrow","leftarrow","rightarrow"],"right_color":"lightblue","left_color":"orange","left_mu":60,"right_mu":80,"left_numbers":[42,78,58,59,57,51,61,70,47,63],"right_numbers":[89,85,93,81,83,88,76,77,77,84],"points_earned":673,"trial_type":"horizons-task","trial_index":13,"time_elapsed":516138,"internal_node_id":"0.0-9.0"},{"response_times":[493,561,448,672,503],"keys_pressed":["leftarrow","leftarrow","rightarrow","rightarrow","leftarrow"],"horizon":5,"forced_choices":["leftarrow","leftarrow","rightarrow","rightarrow"],"right_color":"orange","left_color":"lightblue","left_mu":60,"right_mu":90,"left_numbers":[51,53,66,68,60],"right_numbers":[88,73,81,86,94],"points_earned":331,"trial_type":"horizons-task","trial_index":14,"time_elapsed":520317,"internal_node_id":"0.0-10.0"},{"response_times":[594,440,464,416,473],"keys_pressed":["rightarrow","rightarrow","leftarrow","rightarrow","leftarrow"],"horizon":5,"forced_choices":["rightarrow","rightarrow","leftarrow","rightarrow"],"right_color":"orange","left_color":"lightblue","left_mu":60,"right_mu":90,"left_numbers":[60,77,57,57,70],"right_numbers":[97,97,99,90,106],"points_earned":411,"trial_type":"horizons-task","trial_index":15,"time_elapsed":524204,"internal_node_id":"0.0-11.0"},{"response_times":[523,359,369,423,536,17,583,23,464,17],"keys_pressed":["rightarrow","leftarrow","rightarrow","leftarrow","leftarrow","rightarrow","leftarrow","rightarrow","leftarrow","rightarrow"],"horizon":10,"forced_choices":["rightarrow","leftarrow","rightarrow","leftarrow"],"right_color":"lightblue","left_color":"orange","left_mu":40,"right_mu":10,"left_numbers":[38,47,32,53,52,34,33,37,42,49],"right_numbers":[10,32,3,6,20,18,16,20,13,12],"points_earned":290,"trial_type":"horizons-task","trial_index":16,"time_elapsed":529020,"internal_node_id":"0.0-12.0"},{"response_times":[633,392,448,408,552,16,504,16,512,17],"keys_pressed":["leftarrow","rightarrow","leftarrow","rightarrow","leftarrow","rightarrow","leftarrow","rightarrow","leftarrow","rightarrow"],"horizon":10,"forced_choices":["leftarrow","rightarrow","leftarrow","rightarrow"],"right_color":"orange","left_color":"lightblue","left_mu":40,"right_mu":60,"left_numbers":[47,38,48,39,41,47,38,30,42,55],"right_numbers":[61,58,57,44,53,46,57,58,50,45],"points_earned":467,"trial_type":"horizons-task","trial_index":17,"time_elapsed":534020,"internal_node_id":"0.0-13.0"},{"response_times":[506,376,448,423,553,16,495,18,495,16],"keys_pressed":["leftarrow","rightarrow","rightarrow","leftarrow","rightarrow","leftarrow","leftarrow","rightarrow","leftarrow","rightarrow"],"horizon":10,"forced_choices":["leftarrow","rightarrow","rightarrow","leftarrow"],"right_color":"lightblue","left_color":"orange","left_mu":60,"right_mu":48,"left_numbers":[66,58,51,51,67,56,69,77,59,55],"right_numbers":[57,57,36,56,39,42,47,54,52,49],"points_earned":536,"trial_type":"horizons-task","trial_index":18,"time_elapsed":538869,"internal_node_id":"0.0-14.0"},{"response_times":[520,360,377,424,503,32,513,18,605,15],"keys_pressed":["leftarrow","rightarrow","leftarrow","rightarrow","leftarrow","rightarrow","leftarrow","rightarrow","leftarrow","rightarrow"],"horizon":10,"forced_choices":["leftarrow","rightarrow","leftarrow","rightarrow"],"right_color":"orange","left_color":"lightblue","left_mu":60,"right_mu":40,"left_numbers":[58,52,60,59,67,73,50,63,69,48],"right_numbers":[41,47,24,29,45,39,43,33,53,37],"points_earned":489,"trial_type":"horizons-task","trial_index":19,"time_elapsed":543740,"internal_node_id":"0.0-15.0"},{"response_times":[530,351,441,383,512,15,464,17,527,48],"keys_pressed":["leftarrow","rightarrow","leftarrow","rightarrow","leftarrow","rightarrow","leftarrow","rightarrow","leftarrow","rightarrow"],"horizon":10,"forced_choices":["leftarrow","rightarrow","leftarrow","rightarrow"],"right_color":"lightblue","left_color":"orange","left_mu":60,"right_mu":72,"left_numbers":[64,53,60,54,58,61,79,66,61,47],"right_numbers":[78,80,65,69,62,84,73,82,68,56],"points_earned":693,"trial_type":"horizons-task","trial_index":20,"time_elapsed":548532,"internal_node_id":"0.0-16.0"},{"response_times":[622,360,416,552,497,2,541,17,471,16],"keys_pressed":["leftarrow","rightarrow","leftarrow","leftarrow","leftarrow","rightarrow","leftarrow","rightarrow","rightarrow","leftarrow"],"horizon":10,"forced_choices":["leftarrow","rightarrow","leftarrow","leftarrow"],"right_color":"lightblue","left_color":"orange","left_mu":40,"right_mu":36,"left_numbers":[35,24,51,35,31,43,49,37,41,31],"right_numbers":[22,44,51,46,20,43,22,57,45,48],"points_earned":421,"trial_type":"horizons-task","trial_index":21,"time_elapsed":553532,"internal_node_id":"0.0-17.0"},{"response_times":[450,456,408,1112,536],"keys_pressed":["leftarrow","leftarrow","rightarrow","rightarrow","leftarrow"],"horizon":5,"forced_choices":["leftarrow","leftarrow","rightarrow","rightarrow"],"right_color":"orange","left_color":"lightblue","left_mu":60,"right_mu":68,"left_numbers":[55,64,38,50,49],"right_numbers":[61,77,72,62,69],"points_earned":302,"trial_type":"horizons-task","trial_index":22,"time_elapsed":557995,"internal_node_id":"0.0-18.0"},{"response_times":[562,528,536,504,448],"keys_pressed":["leftarrow","leftarrow","rightarrow","leftarrow","leftarrow"],"horizon":5,"forced_choices":["leftarrow","leftarrow","rightarrow","leftarrow"],"right_color":"orange","left_color":"lightblue","left_mu":40,"right_mu":70,"left_numbers":[53,39,33,46,31],"right_numbers":[67,69,65,67,80],"points_earned":234,"trial_type":"horizons-task","trial_index":23,"time_elapsed":562076,"internal_node_id":"0.0-19.0"},{"response_times":[538,368,488,472,480],"keys_pressed":["leftarrow","rightarrow","leftarrow","rightarrow","leftarrow"],"horizon":5,"forced_choices":["leftarrow","rightarrow","leftarrow","rightarrow"],"right_color":"orange","left_color":"lightblue","left_mu":60,"right_mu":64,"left_numbers":[66,60,60,59,70],"right_numbers":[57,56,48,67,55],"points_earned":319,"trial_type":"horizons-task","trial_index":24,"time_elapsed":565923,"internal_node_id":"0.0-20.0"},{"response_times":[409,369,463,384,440],"keys_pressed":["leftarrow","rightarrow","leftarrow","rightarrow","leftarrow"],"horizon":5,"forced_choices":["leftarrow","rightarrow","leftarrow","rightarrow"],"right_color":"orange","left_color":"lightblue","left_mu":40,"right_mu":70,"left_numbers":[29,45,40,59,53],"right_numbers":[63,93,58,63,74],"points_earned":278,"trial_type":"horizons-task","trial_index":25,"time_elapsed":569492,"internal_node_id":"0.0-21.0"},{"response_times":[498,447,401,447,537,16,528,24,439,16],"keys_pressed":["rightarrow","leftarrow","rightarrow","leftarrow","leftarrow","rightarrow","leftarrow","rightarrow","leftarrow","rightarrow"],"horizon":10,"forced_choices":["rightarrow","leftarrow","rightarrow","leftarrow"],"right_color":"orange","left_color":"lightblue","left_mu":60,"right_mu":90,"left_numbers":[58,60,68,71,53,61,68,51,62,62],"right_numbers":[91,98,80,89,90,99,73,85,88,82],"points_earned":751,"trial_type":"horizons-task","trial_index":26,"time_elapsed":574347,"internal_node_id":"0.0-22.0"},{"response_times":[417,344,424,513,416,39,568,17,511,16],"keys_pressed":["leftarrow","rightarrow","rightarrow","rightarrow","leftarrow","rightarrow","leftarrow","rightarrow","leftarrow","rightarrow"],"horizon":10,"forced_choices":["leftarrow","rightarrow","rightarrow","rightarrow"],"right_color":"lightblue","left_color":"orange","left_mu":60,"right_mu":48,"left_numbers":[63,63,73,45,51,63,44,63,69,66],"right_numbers":[43,44,41,61,46,29,48,27,46,44],"points_earned":473,"trial_type":"horizons-task","trial_index":27,"time_elapsed":579115,"internal_node_id":"0.0-23.0"},{"response_times":[529,344,464,425,495,17,447,17,415,17],"keys_pressed":["leftarrow","rightarrow","rightarrow","leftarrow","leftarrow","rightarrow","rightarrow","leftarrow","rightarrow","leftarrow"],"horizon":10,"forced_choices":["leftarrow","rightarrow","rightarrow","leftarrow"],"right_color":"orange","left_color":"lightblue","left_mu":40,"right_mu":70,"left_numbers":[39,36,45,47,24,38,44,46,54,57],"right_numbers":[56,62,84,64,51,67,72,78,64,92],"points_earned":562,"trial_type":"horizons-task","trial_index":28,"time_elapsed":583786,"internal_node_id":"0.0-24.0"},{"response_times":[442,360,400,520,456],"keys_pressed":["leftarrow","rightarrow","leftarrow","rightarrow","leftarrow"],"horizon":5,"forced_choices":["leftarrow","rightarrow","leftarrow","rightarrow"],"right_color":"lightblue","left_color":"orange","left_mu":60,"right_mu":72,"left_numbers":[53,68,50,55,46],"right_numbers":[70,75,77,79,84],"points_earned":303,"trial_type":"horizons-task","trial_index":29,"time_elapsed":587466,"internal_node_id":"0.0-25.0"},{"response_times":[505,496,400,608,472],"keys_pressed":["rightarrow","rightarrow","leftarrow","leftarrow","leftarrow"],"horizon":5,"forced_choices":["rightarrow","rightarrow","leftarrow","leftarrow"],"right_color":"orange","left_color":"lightblue","left_mu":40,"right_mu":32,"left_numbers":[48,32,36,62,33],"right_numbers":[39,38,29,37,28],"points_earned":208,"trial_type":"horizons-task","trial_index":30,"time_elapsed":591451,"internal_node_id":"0.0-26.0"},{"response_times":[552,400,559,409,399],"keys_pressed":["leftarrow","rightarrow","leftarrow","rightarrow","leftarrow"],"horizon":5,"forced_choices":["leftarrow","rightarrow","leftarrow","rightarrow"],"right_color":"lightblue","left_color":"orange","left_mu":40,"right_mu":10,"left_numbers":[37,36,42,42,24],"right_numbers":[19,0,3,2,25],"points_earned":105,"trial_type":"horizons-task","trial_index":31,"time_elapsed":595274,"internal_node_id":"0.0-27.0"},{"response_times":[490,369,472,647,385],"keys_pressed":["leftarrow","rightarrow","leftarrow","leftarrow","leftarrow"],"horizon":5,"forced_choices":["leftarrow","rightarrow","leftarrow","leftarrow"],"right_color":"lightblue","left_color":"orange","left_mu":40,"right_mu":48,"left_numbers":[36,38,31,43,48],"right_numbers":[28,56,43,46,51],"points_earned":214,"trial_type":"horizons-task","trial_index":32,"time_elapsed":599138,"internal_node_id":"0.0-28.0"},{"response_times":[562,409,431,425,432,64,535,16,433,16],"keys_pressed":["leftarrow","rightarrow","rightarrow","rightarrow","leftarrow","rightarrow","leftarrow","rightarrow","leftarrow","rightarrow"],"horizon":10,"forced_choices":["leftarrow","rightarrow","rightarrow","rightarrow"],"right_color":"orange","left_color":"lightblue","left_mu":40,"right_mu":28,"left_numbers":[29,54,35,34,32,27,46,47,39,36],"right_numbers":[29,32,15,38,31,28,15,33,35,41],"points_earned":333,"trial_type":"horizons-task","trial_index":33,"time_elapsed":603962,"internal_node_id":"0.0-29.0"},{"response_times":[539,367,489,503,448],"keys_pressed":["leftarrow","rightarrow","leftarrow","leftarrow","leftarrow"],"horizon":5,"forced_choices":["leftarrow","rightarrow","leftarrow","leftarrow"],"right_color":"lightblue","left_color":"orange","left_mu":40,"right_mu":44,"left_numbers":[46,58,51,28,32],"right_numbers":[57,42,32,22,41],"points_earned":199,"trial_type":"horizons-task","trial_index":34,"time_elapsed":607810,"internal_node_id":"0.0-30.0"},{"response_times":[433,432,449,440,423,64,544,16,416,16],"keys_pressed":["rightarrow","leftarrow","leftarrow","leftarrow","rightarrow","leftarrow","leftarrow","rightarrow","leftarrow","rightarrow"],"horizon":10,"forced_choices":["rightarrow","leftarrow","leftarrow","leftarrow"],"right_color":"lightblue","left_color":"orange","left_mu":40,"right_mu":52,"left_numbers":[28,50,29,29,32,43,35,29,34,34],"right_numbers":[58,45,41,54,52,50,48,41,62,47],"points_earned":418,"trial_type":"horizons-task","trial_index":35,"time_elapsed":612546,"internal_node_id":"0.0-31.0"},{"response_times":[523,520,576,536,472],"keys_pressed":["leftarrow","leftarrow","leftarrow","rightarrow","leftarrow"],"horizon":5,"forced_choices":["leftarrow","leftarrow","leftarrow","rightarrow"],"right_color":"orange","left_color":"lightblue","left_mu":40,"right_mu":10,"left_numbers":[29,46,45,47,50],"right_numbers":[2,3,7,16,20],"points_earned":186,"trial_type":"horizons-task","trial_index":36,"time_elapsed":616674,"internal_node_id":"0.0-32.0"},{"response_times":[586,377,495,656,464],"keys_pressed":["leftarrow","rightarrow","leftarrow","rightarrow","leftarrow"],"horizon":5,"forced_choices":["leftarrow","rightarrow","leftarrow","rightarrow"],"right_color":"lightblue","left_color":"orange","left_mu":60,"right_mu":68,"left_numbers":[44,46,45,64,56],"right_numbers":[64,69,75,87,73],"points_earned":301,"trial_type":"horizons-task","trial_index":37,"time_elapsed":620754,"internal_node_id":"0.0-33.0"},{"response_times":[514,376,376,466,429,17,552,23,336,18],"keys_pressed":["rightarrow","leftarrow","rightarrow","rightarrow","leftarrow","rightarrow","leftarrow","rightarrow","leftarrow","rightarrow"],"horizon":10,"forced_choices":["rightarrow","leftarrow","rightarrow","rightarrow"],"right_color":"lightblue","left_color":"orange","left_mu":40,"right_mu":32,"left_numbers":[33,37,49,31,36,47,52,46,49,36],"right_numbers":[41,42,41,40,36,23,37,15,39,36],"points_earned":370,"trial_type":"horizons-task","trial_index":38,"time_elapsed":625363,"internal_node_id":"0.0-34.0"},{"response_times":[472,424,505,384,472,17,494,18,414,17],"keys_pressed":["leftarrow","leftarrow","leftarrow","rightarrow","leftarrow","rightarrow","leftarrow","rightarrow","leftarrow","rightarrow"],"horizon":10,"forced_choices":["leftarrow","leftarrow","leftarrow","rightarrow"],"right_color":"orange","left_color":"lightblue","left_mu":60,"right_mu":64,"left_numbers":[69,72,49,57,58,52,55,74,63,72],"right_numbers":[69,72,74,49,63,68,58,59,77,63],"points_earned":605,"trial_type":"horizons-task","trial_index":39,"time_elapsed":630082,"internal_node_id":"0.0-35.0"},{"response_times":[553,489,519,408,24],"keys_pressed":["leftarrow","rightarrow","leftarrow","leftarrow","rightarrow"],"horizon":5,"forced_choices":["leftarrow","rightarrow","leftarrow","leftarrow"],"right_color":"orange","left_color":"lightblue","left_mu":60,"right_mu":30,"left_numbers":[47,71,60,56,58],"right_numbers":[19,19,30,33,28],"points_earned":210,"trial_type":"horizons-task","trial_index":40,"time_elapsed":633577,"internal_node_id":"0.0-36.0"},{"response_times":[546,400,736,712,432],"keys_pressed":["rightarrow","leftarrow","leftarrow","leftarrow","leftarrow"],"horizon":5,"forced_choices":["rightarrow","leftarrow","leftarrow","leftarrow"],"right_color":"orange","left_color":"lightblue","left_mu":60,"right_mu":90,"left_numbers":[64,52,55,65,44],"right_numbers":[103,87,97,82,89],"points_earned":319,"trial_type":"horizons-task","trial_index":41,"time_elapsed":637905,"internal_node_id":"0.0-37.0"},{"response_times":[497,504,552,424,456,120,545,16,543,18],"keys_pressed":["rightarrow","leftarrow","leftarrow","rightarrow","leftarrow","rightarrow","leftarrow","rightarrow","leftarrow","rightarrow"],"horizon":10,"forced_choices":["rightarrow","leftarrow","leftarrow","rightarrow"],"right_color":"lightblue","left_color":"orange","left_mu":60,"right_mu":48,"left_numbers":[42,53,68,63,43,72,54,67,63,58],"right_numbers":[46,44,46,34,45,46,43,50,45,36],"points_earned":493,"trial_type":"horizons-task","trial_index":42,"time_elapsed":643082,"internal_node_id":"0.0-38.0"},{"response_times":[487,520,816,512,456],"keys_pressed":["rightarrow","rightarrow","rightarrow","leftarrow","leftarrow"],"horizon":5,"forced_choices":["rightarrow","rightarrow","rightarrow","leftarrow"],"right_color":"lightblue","left_color":"orange","left_mu":40,"right_mu":70,"left_numbers":[43,41,36,31,34],"right_numbers":[74,61,63,80,69],"points_earned":263,"trial_type":"horizons-task","trial_index":43,"time_elapsed":647377,"internal_node_id":"0.0-39.0"},{"response_times":[435,848,456,688,479,40,529,23,441,24],"keys_pressed":["rightarrow","rightarrow","leftarrow","leftarrow","rightarrow","leftarrow","leftarrow","rightarrow","leftarrow","rightarrow"],"horizon":10,"forced_choices":["rightarrow","rightarrow","leftarrow","leftarrow"],"right_color":"orange","left_color":"lightblue","left_mu":60,"right_mu":90,"left_numbers":[48,51,54,58,65,62,62,58,66,60],"right_numbers":[84,98,92,77,86,95,100,81,102,83],"points_earned":734,"trial_type":"horizons-task","trial_index":44,"time_elapsed":652840,"internal_node_id":"0.0-40.0"},{"response_times":[426,424,607,713,432],"keys_pressed":["rightarrow","leftarrow","leftarrow","leftarrow","leftarrow"],"horizon":5,"forced_choices":["rightarrow","leftarrow","leftarrow","leftarrow"],"right_color":"orange","left_color":"lightblue","left_mu":60,"right_mu":80,"left_numbers":[55,63,75,36,66],"right_numbers":[74,73,72,84,79],"points_earned":314,"trial_type":"horizons-task","trial_index":45,"time_elapsed":656944,"internal_node_id":"0.0-41.0"},{"response_times":[602,424,752,408,497],"keys_pressed":["leftarrow","rightarrow","rightarrow","leftarrow","leftarrow"],"horizon":5,"forced_choices":["leftarrow","rightarrow","rightarrow","leftarrow"],"right_color":"orange","left_color":"lightblue","left_mu":40,"right_mu":28,"left_numbers":[40,51,35,22,40],"right_numbers":[30,33,25,20,46],"points_earned":160,"trial_type":"horizons-task","trial_index":46,"time_elapsed":661127,"internal_node_id":"0.0-42.0"},{"response_times":[386,544,415,496,384],"keys_pressed":["leftarrow","leftarrow","rightarrow","rightarrow","leftarrow"],"horizon":5,"forced_choices":["leftarrow","leftarrow","rightarrow","rightarrow"],"right_color":"orange","left_color":"lightblue","left_mu":60,"right_mu":48,"left_numbers":[59,72,71,66,48],"right_numbers":[35,59,48,40,49],"points_earned":267,"trial_type":"horizons-task","trial_index":47,"time_elapsed":664856,"internal_node_id":"0.0-43.0"},{"response_times":[442,376,463,480,520,16,640,2,454,16],"keys_pressed":["rightarrow","rightarrow","leftarrow","leftarrow","leftarrow","rightarrow","leftarrow","rightarrow","leftarrow","rightarrow"],"horizon":10,"forced_choices":["rightarrow","rightarrow","leftarrow","leftarrow"],"right_color":"orange","left_color":"lightblue","left_mu":40,"right_mu":60,"left_numbers":[47,50,36,36,25,45,41,31,44,35],"right_numbers":[55,53,61,74,57,57,69,66,46,60],"points_earned":473,"trial_type":"horizons-task","trial_index":48,"time_elapsed":669766,"internal_node_id":"0.0-44.0"},{"view_history":"[{\"page_index\":0,\"viewing_time\":6557},{\"page_index\":1,\"viewing_time\":2488}]","rt":9045,"trial_type":"instructions","trial_index":49,"time_elapsed":678813,"internal_node_id":"0.0-45.0"},{"response_times":[791,440,464,377,576,16,624,16,479,17],"keys_pressed":["leftarrow","rightarrow","rightarrow","leftarrow","leftarrow","rightarrow","rightarrow","leftarrow","rightarrow","leftarrow"],"horizon":10,"forced_choices":["leftarrow","rightarrow","rightarrow","leftarrow"],"right_color":"orange","left_color":"lightblue","left_mu":60,"right_mu":52,"left_numbers":[55,56,47,54,62,69,64,46,57,60],"right_numbers":[62,54,45,49,62,46,43,55,67,45],"points_earned":532,"trial_type":"horizons-task","trial_index":50,"time_elapsed":684121,"internal_node_id":"0.0-46.0"},{"response_times":[502,440,481,888,352],"keys_pressed":["leftarrow","rightarrow","rightarrow","rightarrow","leftarrow"],"horizon":5,"forced_choices":["leftarrow","rightarrow","rightarrow","rightarrow"],"right_color":"orange","left_color":"lightblue","left_mu":40,"right_mu":70,"left_numbers":[54,35,35,42,42],"right_numbers":[69,73,73,77,85],"points_earned":319,"trial_type":"horizons-task","trial_index":51,"time_elapsed":688288,"internal_node_id":"0.0-47.0"},{"response_times":[553,505,463,528,400],"keys_pressed":["rightarrow","leftarrow","rightarrow","rightarrow","leftarrow"],"horizon":5,"forced_choices":["rightarrow","leftarrow","rightarrow","rightarrow"],"right_color":"orange","left_color":"lightblue","left_mu":40,"right_mu":32,"left_numbers":[45,35,36,49,45],"right_numbers":[32,30,43,36,26],"points_earned":191,"trial_type":"horizons-task","trial_index":52,"time_elapsed":692238,"internal_node_id":"0.0-48.0"},{"response_times":[506,424,392,464,488,16,463,18,390,8],"keys_pressed":["leftarrow","leftarrow","rightarrow","leftarrow","leftarrow","rightarrow","leftarrow","rightarrow","rightarrow","leftarrow"],"horizon":10,"forced_choices":["leftarrow","leftarrow","rightarrow","leftarrow"],"right_color":"orange","left_color":"lightblue","left_mu":60,"right_mu":80,"left_numbers":[62,60,67,54,52,54,56,69,48,50],"right_numbers":[75,66,86,80,78,74,80,85,74,74],"points_earned":653,"trial_type":"horizons-task","trial_index":53,"time_elapsed":696910,"internal_node_id":"0.0-49.0"},{"response_times":[433,648,407,568,504,16,488,40,447,17],"keys_pressed":["rightarrow","rightarrow","leftarrow","leftarrow","leftarrow","rightarrow","leftarrow","rightarrow","rightarrow","leftarrow"],"horizon":10,"forced_choices":["rightarrow","rightarrow","leftarrow","leftarrow"],"right_color":"orange","left_color":"lightblue","left_mu":60,"right_mu":30,"left_numbers":[64,63,58,65,66,64,68,57,50,72],"right_numbers":[27,29,39,29,24,7,42,37,45,43],"points_earned":474,"trial_type":"horizons-task","trial_index":54,"time_elapsed":701983,"internal_node_id":"0.0-50.0"},{"response_times":[1129,784,431,791,448,64,584,17,591,1095],"keys_pressed":["leftarrow","leftarrow","rightarrow","rightarrow","leftarrow","rightarrow","leftarrow","rightarrow","leftarrow","rightarrow"],"horizon":10,"forced_choices":["leftarrow","leftarrow","rightarrow","rightarrow"],"right_color":"lightblue","left_color":"orange","left_mu":60,"right_mu":40,"left_numbers":[49,66,64,60,60,58,59,60,48,76],"right_numbers":[54,32,40,37,50,47,51,30,45,41],"points_earned":477,"trial_type":"horizons-task","trial_index":55,"time_elapsed":709422,"internal_node_id":"0.0-51.0"},{"response_times":[625,368,584,448,536,17,479,17,406,18],"keys_pressed":["leftarrow","rightarrow","rightarrow","leftarrow","leftarrow","rightarrow","leftarrow","rightarrow","leftarrow","rightarrow"],"horizon":10,"forced_choices":["leftarrow","rightarrow","rightarrow","leftarrow"],"right_color":"lightblue","left_color":"orange","left_mu":40,"right_mu":48,"left_numbers":[42,39,50,32,32,52,26,37,53,31],"right_numbers":[58,56,45,44,45,61,51,37,54,48],"points_earned":432,"trial_type":"horizons-task","trial_index":56,"time_elapsed":714424,"internal_node_id":"0.0-52.0"},{"response_times":[513,591,401,975,528],"keys_pressed":["leftarrow","leftarrow","rightarrow","rightarrow","leftarrow"],"horizon":5,"forced_choices":["leftarrow","leftarrow","rightarrow","rightarrow"],"right_color":"lightblue","left_color":"orange","left_mu":40,"right_mu":44,"left_numbers":[30,44,41,25,35],"right_numbers":[47,53,37,44,39],"points_earned":190,"trial_type":"horizons-task","trial_index":57,"time_elapsed":718933,"internal_node_id":"0.0-53.0"},{"response_times":[699,432,560,664,424,592,24,552,17,1143],"keys_pressed":["rightarrow","leftarrow","leftarrow","leftarrow","rightarrow","leftarrow","rightarrow","leftarrow","rightarrow","leftarrow"],"horizon":10,"forced_choices":["rightarrow","leftarrow","leftarrow","leftarrow"],"right_color":"lightblue","left_color":"orange","left_mu":40,"right_mu":48,"left_numbers":[41,40,53,33,45,52,39,39,34,35],"right_numbers":[59,55,56,53,55,40,43,58,56,51],"points_earned":465,"trial_type":"horizons-task","trial_index":58,"time_elapsed":725542,"internal_node_id":"0.0-54.0"},{"response_times":[481,656,424,712,496],"keys_pressed":["rightarrow","rightarrow","leftarrow","leftarrow","leftarrow"],"horizon":5,"forced_choices":["rightarrow","rightarrow","leftarrow","leftarrow"],"right_color":"lightblue","left_color":"orange","left_mu":40,"right_mu":44,"left_numbers":[35,44,50,41,51],"right_numbers":[39,51,40,40,54],"points_earned":232,"trial_type":"horizons-task","trial_index":59,"time_elapsed":729813,"internal_node_id":"0.0-55.0"},{"response_times":[473,512,568,464,360],"keys_pressed":["rightarrow","leftarrow","rightarrow","rightarrow","leftarrow"],"horizon":5,"forced_choices":["rightarrow","leftarrow","rightarrow","rightarrow"],"right_color":"orange","left_color":"lightblue","left_mu":60,"right_mu":64,"left_numbers":[59,60,62,58,47],"right_numbers":[79,69,77,59,68],"points_earned":322,"trial_type":"horizons-task","trial_index":60,"time_elapsed":733693,"internal_node_id":"0.0-56.0"},{"response_times":[451,439,424,593,360],"keys_pressed":["rightarrow","leftarrow","rightarrow","rightarrow","leftarrow"],"horizon":5,"forced_choices":["rightarrow","leftarrow","rightarrow","rightarrow"],"right_color":"orange","left_color":"lightblue","left_mu":60,"right_mu":56,"left_numbers":[58,53,57,56,62],"right_numbers":[54,49,56,53,56],"points_earned":278,"trial_type":"horizons-task","trial_index":61,"time_elapsed":737460,"internal_node_id":"0.0-57.0"},{"response_times":[426,488,449,471,425],"keys_pressed":["leftarrow","leftarrow","rightarrow","leftarrow","leftarrow"],"horizon":5,"forced_choices":["leftarrow","leftarrow","rightarrow","leftarrow"],"right_color":"lightblue","left_color":"orange","left_mu":40,"right_mu":44,"left_numbers":[28,44,35,44,42],"right_numbers":[44,50,44,38,56],"points_earned":202,"trial_type":"horizons-task","trial_index":62,"time_elapsed":741221,"internal_node_id":"0.0-58.0"},{"response_times":[407,401,632,487,456,16,591,17,447,4],"keys_pressed":["leftarrow","rightarrow","rightarrow","rightarrow","leftarrow","rightarrow","leftarrow","rightarrow","leftarrow","rightarrow"],"horizon":10,"forced_choices":["leftarrow","rightarrow","rightarrow","rightarrow"],"right_color":"lightblue","left_color":"orange","left_mu":40,"right_mu":36,"left_numbers":[37,26,38,29,41,23,45,35,47,33],"right_numbers":[32,42,35,27,21,34,23,34,41,26],"points_earned":368,"trial_type":"horizons-task","trial_index":63,"time_elapsed":746184,"internal_node_id":"0.0-59.0"},{"response_times":[439,574,536,536,64,816,24,912,24,1032],"keys_pressed":["rightarrow","rightarrow","rightarrow","leftarrow","rightarrow","leftarrow","rightarrow","rightarrow","leftarrow","leftarrow"],"horizon":10,"forced_choices":["rightarrow","rightarrow","rightarrow","leftarrow"],"right_color":"orange","left_color":"lightblue","left_mu":40,"right_mu":10,"left_numbers":[41,60,41,48,45,41,39,39,34,34],"right_numbers":[6,10,13,26,0,12,8,14,12,3],"points_earned":208,"trial_type":"horizons-task","trial_index":64,"time_elapsed":752644,"internal_node_id":"0.0-60.0"},{"response_times":[466,408,424,527,576,16,520,896,24,640],"keys_pressed":["rightarrow","leftarrow","rightarrow","leftarrow","leftarrow","rightarrow","leftarrow","rightarrow","leftarrow","leftarrow"],"horizon":10,"forced_choices":["rightarrow","leftarrow","rightarrow","leftarrow"],"right_color":"orange","left_color":"lightblue","left_mu":60,"right_mu":56,"left_numbers":[67,59,63,62,49,47,55,62,71,67],"right_numbers":[46,61,71,53,58,43,66,46,50,54],"points_earned":569,"trial_type":"horizons-task","trial_index":65,"time_elapsed":758644,"internal_node_id":"0.0-61.0"},{"response_times":[513,737,544,423,577,15,576,17,552,32],"keys_pressed":["rightarrow","rightarrow","rightarrow","leftarrow","leftarrow","rightarrow","rightarrow","leftarrow","leftarrow","rightarrow"],"horizon":10,"forced_choices":["rightarrow","rightarrow","rightarrow","leftarrow"],"right_color":"lightblue","left_color":"orange","left_mu":60,"right_mu":56,"left_numbers":[52,44,58,74,51,54,52,50,50,77],"right_numbers":[61,54,63,61,62,65,56,47,57,58],"points_earned":582,"trial_type":"horizons-task","trial_index":66,"time_elapsed":764132,"internal_node_id":"0.0-62.0"},{"response_times":[489,657,479,441,503],"keys_pressed":["rightarrow","rightarrow","leftarrow","rightarrow","leftarrow"],"horizon":5,"forced_choices":["rightarrow","rightarrow","leftarrow","rightarrow"],"right_color":"orange","left_color":"lightblue","left_mu":40,"right_mu":44,"left_numbers":[40,47,27,24,31],"right_numbers":[36,45,24,38,51],"points_earned":177,"trial_type":"horizons-task","trial_index":67,"time_elapsed":768203,"internal_node_id":"0.0-63.0"},{"response_times":[490,824,416,608,535],"keys_pressed":["rightarrow","rightarrow","leftarrow","leftarrow","leftarrow"],"horizon":5,"forced_choices":["rightarrow","rightarrow","leftarrow","leftarrow"],"right_color":"lightblue","left_color":"orange","left_mu":40,"right_mu":10,"left_numbers":[44,31,33,43,52],"right_numbers":[18,2,17,17,7],"points_earned":148,"trial_type":"horizons-task","trial_index":68,"time_elapsed":772580,"internal_node_id":"0.0-64.0"},{"response_times":[427,496,487,521,527,16,520,15,431,57],"keys_pressed":["rightarrow","leftarrow","rightarrow","leftarrow","leftarrow","rightarrow","leftarrow","rightarrow","leftarrow","rightarrow"],"horizon":10,"forced_choices":["rightarrow","leftarrow","rightarrow","leftarrow"],"right_color":"orange","left_color":"lightblue","left_mu":40,"right_mu":32,"left_numbers":[42,49,50,53,36,41,55,50,28,23],"right_numbers":[20,37,35,30,24,32,29,21,26,45],"points_earned":374,"trial_type":"horizons-task","trial_index":69,"time_elapsed":777580,"internal_node_id":"0.0-65.0"},{"response_times":[674,424,496,848,448],"keys_pressed":["leftarrow","rightarrow","rightarrow","rightarrow","leftarrow"],"horizon":5,"forced_choices":["leftarrow","rightarrow","rightarrow","rightarrow"],"right_color":"orange","left_color":"lightblue","left_mu":60,"right_mu":90,"left_numbers":[45,46,42,61,72],"right_numbers":[95,82,92,92,98],"points_earned":383,"trial_type":"horizons-task","trial_index":70,"time_elapsed":781971,"internal_node_id":"0.0-66.0"},{"response_times":[643,512,727,608,495],"keys_pressed":["rightarrow","leftarrow","leftarrow","leftarrow","leftarrow"],"horizon":5,"forced_choices":["rightarrow","leftarrow","leftarrow","leftarrow"],"right_color":"orange","left_color":"lightblue","left_mu":60,"right_mu":52,"left_numbers":[59,50,57,62,57],"right_numbers":[44,38,49,61,43],"points_earned":270,"trial_type":"horizons-task","trial_index":71,"time_elapsed":786459,"internal_node_id":"0.0-67.0"},{"response_times":[513,696,632,535,561,19,573,544,24,672],"keys_pressed":["leftarrow","leftarrow","rightarrow","leftarrow","leftarrow","rightarrow","rightarrow","leftarrow","rightarrow","leftarrow"],"horizon":10,"forced_choices":["leftarrow","leftarrow","rightarrow","leftarrow"],"right_color":"lightblue","left_color":"orange","left_mu":40,"right_mu":70,"left_numbers":[37,51,43,45,40,47,34,48,53,39],"right_numbers":[65,61,75,56,75,74,58,73,75,76],"points_earned":542,"trial_type":"horizons-task","trial_index":72,"time_elapsed":792731,"internal_node_id":"0.0-68.0"},{"response_times":[626,416,672,511,503,592,40,512,625,16],"keys_pressed":["leftarrow","rightarrow","rightarrow","rightarrow","leftarrow","leftarrow","rightarrow","rightarrow","rightarrow","leftarrow"],"horizon":10,"forced_choices":["leftarrow","rightarrow","rightarrow","rightarrow"],"right_color":"orange","left_color":"lightblue","left_mu":40,"right_mu":20,"left_numbers":[36,41,33,40,41,38,40,24,47,41],"right_numbers":[29,20,27,25,22,0,15,20,22,17],"points_earned":285,"trial_type":"horizons-task","trial_index":73,"time_elapsed":798747,"internal_node_id":"0.0-69.0"},{"response_times":[520,336,447,361,599,16,584,18,470,15],"keys_pressed":["rightarrow","leftarrow","rightarrow","leftarrow","rightarrow","leftarrow","rightarrow","leftarrow","rightarrow","leftarrow"],"horizon":10,"forced_choices":["rightarrow","leftarrow","rightarrow","leftarrow"],"right_color":"lightblue","left_color":"orange","left_mu":40,"right_mu":44,"left_numbers":[49,23,49,23,43,46,40,32,36,48],"right_numbers":[34,46,45,28,50,40,37,45,42,43],"points_earned":380,"trial_type":"horizons-task","trial_index":74,"time_elapsed":803618,"internal_node_id":"0.0-70.0"},{"response_times":[548,424,543,432,559],"keys_pressed":["leftarrow","rightarrow","rightarrow","leftarrow","leftarrow"],"horizon":5,"forced_choices":["leftarrow","rightarrow","rightarrow","leftarrow"],"right_color":"lightblue","left_color":"orange","left_mu":60,"right_mu":80,"left_numbers":[45,65,66,60,56],"right_numbers":[80,90,68,81,68],"points_earned":319,"trial_type":"horizons-task","trial_index":75,"time_elapsed":807626,"internal_node_id":"0.0-71.0"},{"response_times":[498,351,400,656,432],"keys_pressed":["rightarrow","leftarrow","rightarrow","leftarrow","rightarrow"],"horizon":5,"forced_choices":["rightarrow","leftarrow","rightarrow","leftarrow"],"right_color":"lightblue","left_color":"orange","left_mu":60,"right_mu":40,"left_numbers":[67,50,60,71,63],"right_numbers":[26,35,31,43,49],"points_earned":227,"trial_type":"horizons-task","trial_index":76,"time_elapsed":811465,"internal_node_id":"0.0-72.0"},{"response_times":[811,456,352,328,488],"keys_pressed":["leftarrow","rightarrow","leftarrow","rightarrow","leftarrow"],"horizon":5,"forced_choices":["leftarrow","rightarrow","leftarrow","rightarrow"],"right_color":"orange","left_color":"lightblue","left_mu":40,"right_mu":48,"left_numbers":[34,37,37,31,46],"right_numbers":[52,56,39,44,44],"points_earned":217,"trial_type":"horizons-task","trial_index":77,"time_elapsed":815401,"internal_node_id":"0.0-73.0"},{"response_times":[523,888,520,903,543,17,607,31,472,16],"keys_pressed":["rightarrow","rightarrow","leftarrow","leftarrow","leftarrow","rightarrow","rightarrow","leftarrow","rightarrow","leftarrow"],"horizon":10,"forced_choices":["rightarrow","rightarrow","leftarrow","leftarrow"],"right_color":"lightblue","left_color":"orange","left_mu":40,"right_mu":44,"left_numbers":[26,31,40,41,44,42,42,29,34,50],"right_numbers":[65,47,27,38,56,38,42,47,50,44],"points_earned":446,"trial_type":"horizons-task","trial_index":78,"time_elapsed":821426,"internal_node_id":"0.0-74.0"},{"response_times":[619,471,472,824,503],"keys_pressed":["leftarrow","leftarrow","rightarrow","rightarrow","leftarrow"],"horizon":5,"forced_choices":["leftarrow","leftarrow","rightarrow","rightarrow"],"right_color":"orange","left_color":"lightblue","left_mu":40,"right_mu":70,"left_numbers":[32,39,43,32,26],"right_numbers":[68,69,69,66,80],"points_earned":232,"trial_type":"horizons-task","trial_index":79,"time_elapsed":825819,"internal_node_id":"0.0-75.0"},{"response_times":[531,631,497,847,551],"keys_pressed":["rightarrow","rightarrow","leftarrow","leftarrow","leftarrow"],"horizon":5,"forced_choices":["rightarrow","rightarrow","leftarrow","leftarrow"],"right_color":"orange","left_color":"lightblue","left_mu":40,"right_mu":52,"left_numbers":[42,33,49,43,35],"right_numbers":[68,61,56,66,52],"points_earned":256,"trial_type":"horizons-task","trial_index":80,"time_elapsed":830377,"internal_node_id":"0.0-76.0"},{"response_times":[595,696,496,449,663,15,601,24,504,32],"keys_pressed":["rightarrow","rightarrow","rightarrow","leftarrow","leftarrow","rightarrow","leftarrow","rightarrow","rightarrow","leftarrow"],"horizon":10,"forced_choices":["rightarrow","rightarrow","rightarrow","leftarrow"],"right_color":"lightblue","left_color":"orange","left_mu":40,"right_mu":52,"left_numbers":[30,40,44,29,39,35,39,51,38,40],"right_numbers":[56,55,46,63,51,52,42,34,52,55],"points_earned":442,"trial_type":"horizons-task","trial_index":81,"time_elapsed":835954,"internal_node_id":"0.0-77.0"},{"response_times":[627,535,713,784,584,17,599,24,495,25],"keys_pressed":["rightarrow","rightarrow","rightarrow","leftarrow","leftarrow","rightarrow","leftarrow","rightarrow","rightarrow","leftarrow"],"horizon":10,"forced_choices":["rightarrow","rightarrow","rightarrow","leftarrow"],"right_color":"orange","left_color":"lightblue","left_mu":60,"right_mu":68,"left_numbers":[55,70,53,55,69,62,64,57,59,66],"right_numbers":[69,59,59,78,78,69,76,71,69,59],"points_earned":650,"trial_type":"horizons-task","trial_index":82,"time_elapsed":841857,"internal_node_id":"0.0-78.0"},{"response_times":[577,408,519,728,505],"keys_pressed":["rightarrow","leftarrow","leftarrow","leftarrow","rightarrow"],"horizon":5,"forced_choices":["rightarrow","leftarrow","leftarrow","leftarrow"],"right_color":"lightblue","left_color":"orange","left_mu":40,"right_mu":36,"left_numbers":[46,36,39,44,34],"right_numbers":[24,33,37,29,44],"points_earned":187,"trial_type":"horizons-task","trial_index":83,"time_elapsed":846096,"internal_node_id":"0.0-79.0"},{"response_times":[508,640,743,1073,575],"keys_pressed":["leftarrow","leftarrow","rightarrow","rightarrow","leftarrow"],"horizon":5,"forced_choices":["leftarrow","leftarrow","rightarrow","rightarrow"],"right_color":"lightblue","left_color":"orange","left_mu":60,"right_mu":72,"left_numbers":[65,55,56,73,56],"right_numbers":[64,80,75,75,66],"points_earned":326,"trial_type":"horizons-task","trial_index":84,"time_elapsed":851137,"internal_node_id":"0.0-80.0"},{"response_times":[514,472,408,464,528],"keys_pressed":["leftarrow","rightarrow","leftarrow","rightarrow","leftarrow"],"horizon":5,"forced_choices":["leftarrow","rightarrow","leftarrow","rightarrow"],"right_color":"lightblue","left_color":"orange","left_mu":60,"right_mu":64,"left_numbers":[76,63,63,71,65],"right_numbers":[72,56,58,60,71],"points_earned":320,"trial_type":"horizons-task","trial_index":85,"time_elapsed":855025,"internal_node_id":"0.0-81.0"},{"response_times":[635,552,575,456,672,19,549,24,480,32],"keys_pressed":["leftarrow","rightarrow","rightarrow","leftarrow","leftarrow","rightarrow","rightarrow","leftarrow","rightarrow","leftarrow"],"horizon":10,"forced_choices":["leftarrow","rightarrow","rightarrow","leftarrow"],"right_color":"lightblue","left_color":"orange","left_mu":40,"right_mu":32,"left_numbers":[43,40,44,35,23,46,35,22,35,47],"right_numbers":[41,33,37,27,35,28,32,27,21,33],"points_earned":321,"trial_type":"horizons-task","trial_index":86,"time_elapsed":860520,"internal_node_id":"0.0-82.0"},{"response_times":[619,480,680,440,624],"keys_pressed":["leftarrow","leftarrow","leftarrow","rightarrow","leftarrow"],"horizon":5,"forced_choices":["leftarrow","leftarrow","leftarrow","rightarrow"],"right_color":"lightblue","left_color":"orange","left_mu":40,"right_mu":44,"left_numbers":[28,45,30,38,45],"right_numbers":[39,38,44,49,39],"points_earned":197,"trial_type":"horizons-task","trial_index":87,"time_elapsed":864864,"internal_node_id":"0.0-83.0"},{"response_times":[624,448,496,488,448,96,495,17,480,16],"keys_pressed":["leftarrow","rightarrow","rightarrow","rightarrow","leftarrow","rightarrow","rightarrow","leftarrow","rightarrow","leftarrow"],"horizon":10,"forced_choices":["leftarrow","rightarrow","rightarrow","rightarrow"],"right_color":"lightblue","left_color":"orange","left_mu":40,"right_mu":32,"left_numbers":[52,37,39,22,47,47,33,36,27,51],"right_numbers":[37,20,29,22,29,30,27,42,24,28],"points_earned":338,"trial_type":"horizons-task","trial_index":88,"time_elapsed":869976,"internal_node_id":"0.0-84.0"},{"response_times":[498,384,560,679,464,33,552,16,551,32],"keys_pressed":["rightarrow","leftarrow","leftarrow","leftarrow","rightarrow","leftarrow","rightarrow","leftarrow","rightarrow","leftarrow"],"horizon":10,"forced_choices":["rightarrow","leftarrow","leftarrow","leftarrow"],"right_color":"lightblue","left_color":"orange","left_mu":60,"right_mu":48,"left_numbers":[62,43,41,57,60,73,63,64,56,54],"right_numbers":[60,40,52,59,62,46,44,29,54,68],"points_earned":552,"trial_type":"horizons-task","trial_index":89,"time_elapsed":875247,"internal_node_id":"0.0-85.0"},{"rt":42428,"responses":{"age":"41","gender-categorical":"Male","gender-free-response":"","ethnicity":"Rather not say","race":["White"],"language":"Yes","fluency":"Very well"},"survey":"demographics","trial_type":"survey-demo","trial_index":90,"time_elapsed":917768,"internal_node_id":"0.0-86.0"},{"rt":47283,"responses":{"difficulty":"4","fun":"4","clarity":"5","strategy":"No","feedback":"No.but best of luck with your study"},"survey":"debrief","trial_type":"survey-debrief","trial_index":91,"time_elapsed":965098,"internal_node_id":"0.0-87.0","interactions":"[{\"event\":\"focus\",\"trial\":0,\"time\":0},{\"event\":\"blur\",\"trial\":0,\"time\":1550},{\"event\":\"focus\",\"trial\":0,\"time\":7846},{\"event\":\"blur\",\"trial\":0,\"time\":16051},{\"event\":\"focus\",\"trial\":0,\"time\":41910},{\"event\":\"blur\",\"trial\":3,\"time\":248158},{\"event\":\"focus\",\"trial\":3,\"time\":278524},{\"event\":\"blur\",\"trial\":4,\"time\":400880},{\"event\":\"focus\",\"trial\":4,\"time\":404456},{\"event\":\"blur\",\"trial\":90,\"time\":879559},{\"event\":\"focus\",\"trial\":90,\"time\":881648},{\"event\":\"blur\",\"trial\":90,\"time\":882633},{\"event\":\"focus\",\"trial\":90,\"time\":887854}]"}]