[{"view_history":"[{\"page_index\":0,\"viewing_time\":930.3700000164099}]","rt":931.1199999938253,"trial_type":"instructions","trial_index":0,"time_elapsed":941,"internal_node_id":"0.0-0.0"},{"item_order":[3,9,10,1,13,0,6,16,14,11,8,2,5,4,7,15,12],"responses":{"Q04":"1","Q10":"1","Q11":"2","Q02":"0","Q14":"0","Q01":"3","Q07":"1","Q17":"0","Q15":"0","Q12":"0","Q09":"1","Q03":"3","Q06":"2","Q05":"0","Q08":"1","Q16":"2","Q13":"1"},"radio_events":[4700.154999998631,9107.574999972712,11272.73499997682,14537.594999972498,15203.82499997504,17463.544999976875,18232.03499999363,20075.50999999512,20556.12499997369,21115.449999982957,21424.124999990454,23567.339999979595,31981.414999987464,33953.65499999025,38061.48999999277,38908.219999982975,39840.409999975236,40768.049999984214,43571.649999998044,45300.93999998644,46999.97499998426,49004.08499999321,49644.209999998566],"key_events":[],"mouse_events":[0.23499998496845365,4700.154999998631,8036.339999991469,9107.574999972712,9447.864999994636,10713.409999996657,11032.519999978831,11272.73499997682,13700.03999999608,14537.594999972498,14932.484999997541,15203.82499997504,17463.544999976875,18232.03499999363,20075.50999999512,20556.12499997369,21115.449999982957,21424.124999990454,23567.339999979595,30376.07999998727,31981.414999987464,33953.65499999025,36059.78999999934,36474.414999975124,38061.48999999277,38908.219999982975,39840.409999975236,40594.03999999631,40768.049999984214,43571.649999998044,45300.93999998644,46999.97499998426,49004.08499999321,49644.209999998566,50395.59999998892],"rt":50400.224999990314,"survey":"pswq","trial_type":"survey-template","trial_index":1,"time_elapsed":51350,"internal_node_id":"0.0-1.0"},{"item_order":[3,4,2,0,8,5,10,1,6,7,11,12,9],"responses":{"Q04":"3","Q05":"2","Q03":"0","Q01":"1","Q09":"1","Q06":"0","Q11":"4","Q02":"4","Q07":"0","Q08":"3","Q12":"1","Q13":"4","Q10":"0"},"radio_events":[3237.330000003567,6362.905000016326,8277.160000026925,9286.595000012312,11098.770000011427,11435.50000002142,15974.150000023656,17128.610000014305,17977.100000018254,18633.29500000691,24033.30999999889,25042.130000016186,30529.840000002878,31425.795000017388,32807.22500002594,36073.32500000484,37965.600000025006],"key_events":[],"mouse_events":[3237.330000003567,6362.905000016326,8277.160000026925,9286.595000012312,11098.770000011427,11435.50000002142,15037.390000012238,15974.150000023656,16421.730000001844,17128.610000014305,17721.985000011045,17977.100000018254,18344.935000000987,18633.29500000691,21789.770000003045,23009.67500000843,23218.560000008438,24033.30999999889,24755.010000022594,25042.130000016186,29306.170000025304,30529.840000002878,31425.795000017388,32807.22500002594,36073.32500000484,37965.600000025006,38700.88500002748],"rt":38704.08500000485,"survey":"ius12","trial_type":"survey-template","trial_index":2,"time_elapsed":90063,"internal_node_id":"0.0-2.0"},{"view_history":"[{\"page_index\":0,\"viewing_time\":2888.2699999958277},{\"page_index\":1,\"viewing_time\":4849.304999981541},{\"page_index\":2,\"viewing_time\":4739.305000024615},{\"page_index\":3,\"viewing_time\":3163.024999987101},{\"page_index\":4,\"viewing_time\":6120.605000003707},{\"page_index\":5,\"viewing_time\":2251.7900000093505},{\"page_index\":6,\"viewing_time\":4551.7499999841675},{\"page_index\":7,\"viewing_time\":7832.1799999976065},{\"page_index\":8,\"viewing_time\":3755.875000002561},{\"page_index\":9,\"viewing_time\":4916.4549999986775}]","rt":45070.034999982454,"trial_type":"instructions","trial_index":3,"time_elapsed":135132,"internal_node_id":"0.0-3.0-0.0"},{"response_times":[1167.8399999800604,490.25000000256114,399.5649999997113,494.1150000086054,3224.480000004405],"keys_pressed":["rightarrow","leftarrow","rightarrow","rightarrow","leftarrow"],"horizon":5,"forced_choices":["rightarrow","leftarrow","rightarrow","rightarrow"],"right_color":"lightblue","left_color":"orange","left_mu":40,"right_mu":20,"left_numbers":[31,41,46,42,33],"right_numbers":[25,21,0,27,22],"points_earned":126,"trial_type":"horizons-task","trial_index":4,"time_elapsed":142431,"internal_node_id":"0.0-3.0-1.0"},{"response_times":[1024.119999987306,389.4950000103563,385.7900000002701,403.87499998905696,683.6349999939557,2233.970000001136,561.0450000094716,607.8049999778159,641.1650000081863,485.50999999861233],"keys_pressed":["leftarrow","leftarrow","rightarrow","rightarrow","rightarrow","rightarrow","rightarrow","rightarrow","rightarrow","rightarrow"],"horizon":10,"forced_choices":["leftarrow","leftarrow","rightarrow","rightarrow"],"right_color":"orange","left_color":"lightblue","left_mu":60,"right_mu":70,"left_numbers":[61,57,67,51,44,76,48,64,61,59],"right_numbers":[74,62,70,81,79,72,69,69,66,81],"points_earned":705,"trial_type":"horizons-task","trial_index":5,"time_elapsed":151358,"internal_node_id":"0.0-3.0-2.0"},{"view_history":"[{\"page_index\":0,\"viewing_time\":1359.020000003511},{\"page_index\":1,\"viewing_time\":1948.3049999980722},{\"page_index\":2,\"viewing_time\":2435.6799999950454},{\"page_index\":3,\"viewing_time\":1588.2799999963026}]","rt":7331.919999996899,"trial_type":"instructions","trial_index":6,"time_elapsed":158692,"internal_node_id":"0.0-3.0-3.0"},{"responses":["true","false","false","true"],"num_errors":0,"rt":9201.854999992065,"trial_type":"horizons-comprehension","trial_index":7,"time_elapsed":167898,"internal_node_id":"0.0-3.0-4.0"},{"view_history":"[{\"page_index\":0,\"viewing_time\":919.3950000044424},{\"page_index\":1,\"viewing_time\":2683.549999987008}]","rt":3603.5550000087824,"trial_type":"instructions","trial_index":8,"time_elapsed":171512,"internal_node_id":"0.0-4.0"},{"response_times":[937.9450000124052,583.9750000159256,1000.5999999993946,638.8150000129826,1209.9100000050385],"keys_pressed":["rightarrow","rightarrow","leftarrow","leftarrow","rightarrow"],"horizon":5,"forced_choices":["rightarrow","rightarrow","leftarrow","leftarrow"],"right_color":"orange","left_color":"lightblue","left_mu":40,"right_mu":36,"left_numbers":[44,47,36,32,38],"right_numbers":[45,51,31,38,26],"points_earned":190,"trial_type":"horizons-task","trial_index":9,"time_elapsed":177395,"internal_node_id":"0.0-5.0"},{"response_times":[890.7249999756459,464.55999999307096,721.96000002441,606.6749999881722,847.3499999963678],"keys_pressed":["leftarrow","leftarrow","rightarrow","rightarrow","rightarrow"],"horizon":5,"forced_choices":["leftarrow","leftarrow","rightarrow","rightarrow"],"right_color":"orange","left_color":"lightblue","left_mu":60,"right_mu":68,"left_numbers":[61,56,62,55,70],"right_numbers":[63,69,62,72,52],"points_earned":303,"trial_type":"horizons-task","trial_index":10,"time_elapsed":182430,"internal_node_id":"0.0-6.0"},{"response_times":[566.385000012815,433.6499999917578,491.4799999969546,481.6300000238698,1687.915000016801,889.9799999780953,1611.3149999873713,1028.714999993099,997.8199999895878,589.3299999879673],"keys_pressed":["rightarrow","rightarrow","leftarrow","leftarrow","leftarrow","leftarrow","rightarrow","leftarrow","leftarrow","leftarrow"],"horizon":10,"forced_choices":["rightarrow","rightarrow","leftarrow","leftarrow"],"right_color":"orange","left_color":"lightblue","left_mu":60,"right_mu":48,"left_numbers":[57,60,56,54,66,36,72,58,71,61],"right_numbers":[34,50,49,58,50,52,44,47,34,43],"points_earned":530,"trial_type":"horizons-task","trial_index":11,"time_elapsed":192719,"internal_node_id":"0.0-7.0"},{"response_times":[651.0200000193436,616.8499999912456,456.1399999947753,422.8350000048522,1103.8750000006985,722.5599999947008,709.0949999983422,519.399999990128,430.01000001095235,373.97000001510605],"keys_pressed":["leftarrow","leftarrow","leftarrow","rightarrow","leftarrow","leftarrow","leftarrow","leftarrow","leftarrow","leftarrow"],"horizon":10,"forced_choices":["leftarrow","leftarrow","leftarrow","rightarrow"],"right_color":"lightblue","left_color":"orange","left_mu":60,"right_mu":52,"left_numbers":[64,50,64,66,65,61,65,55,57,64],"right_numbers":[58,50,65,55,50,61,45,39,58,47],"points_earned":600,"trial_type":"horizons-task","trial_index":12,"time_elapsed":200236,"internal_node_id":"0.0-8.0"},{"response_times":[517.9449999995995,702.9500000062399,446.54000000446104,416.285000013886,1513.6749999946915,757.3099999863189,505.99499998497777,526.4299999980722,399.09500000067055,339.5299999974668],"keys_pressed":["rightarrow","leftarrow","leftarrow","rightarrow","leftarrow","leftarrow","leftarrow","leftarrow","leftarrow","leftarrow"],"horizon":10,"forced_choices":["rightarrow","leftarrow","leftarrow","rightarrow"],"right_color":"lightblue","left_color":"orange","left_mu":60,"right_mu":30,"left_numbers":[52,63,67,64,60,62,58,67,64,38],"right_numbers":[19,30,23,28,29,15,34,36,22,34],"points_earned":526,"trial_type":"horizons-task","trial_index":13,"time_elapsed":207882,"internal_node_id":"0.0-9.0"},{"response_times":[485.23500000010245,404.1900000011083,1002.2849999950267,753.6850000033155,728.6149999999907],"keys_pressed":["leftarrow","rightarrow","rightarrow","leftarrow","leftarrow"],"horizon":5,"forced_choices":["leftarrow","rightarrow","rightarrow","leftarrow"],"right_color":"orange","left_color":"lightblue","left_mu":60,"right_mu":30,"left_numbers":[65,51,62,62,56],"right_numbers":[37,27,28,25,21],"points_earned":238,"trial_type":"horizons-task","trial_index":14,"time_elapsed":212764,"internal_node_id":"0.0-10.0"},{"response_times":[2481.7299999995157,404.08999999635853,370.664999994915,1148.4099999943282,1650.0400000077207,664.6100000070874,474.53999999561347,342.304999998305,218.36999998777173,392.48499998939224],"keys_pressed":["leftarrow","rightarrow","rightarrow","leftarrow","rightarrow","rightarrow","rightarrow","rightarrow","rightarrow","rightarrow"],"horizon":10,"forced_choices":["leftarrow","rightarrow","rightarrow","leftarrow"],"right_color":"lightblue","left_color":"orange","left_mu":60,"right_mu":80,"left_numbers":[74,51,65,63,52,56,55,55,66,39],"right_numbers":[86,86,78,75,81,85,84,80,72,70],"points_earned":773,"trial_type":"horizons-task","trial_index":15,"time_elapsed":222437,"internal_node_id":"0.0-11.0"},{"response_times":[486.14500000257976,335.72999999159947,579.6149999951012,459.42500000819564,489.5200000028126,2184.464999998454,1194.4899999944028,434.7649999835994,1076.8850000167731,398.5150000080466],"keys_pressed":["leftarrow","rightarrow","leftarrow","rightarrow","rightarrow","leftarrow","leftarrow","leftarrow","rightarrow","leftarrow"],"horizon":10,"forced_choices":["leftarrow","rightarrow","leftarrow","rightarrow"],"right_color":"orange","left_color":"lightblue","left_mu":60,"right_mu":56,"left_numbers":[57,50,68,51,60,49,60,53,54,64],"right_numbers":[54,54,63,58,48,50,68,50,53,69],"points_earned":564,"trial_type":"horizons-task","trial_index":16,"time_elapsed":231579,"internal_node_id":"0.0-12.0"},{"response_times":[956.1749999993481,498.73000002116896,519.5700000040233,670.3350000025239,459.9599999783095],"keys_pressed":["leftarrow","rightarrow","rightarrow","leftarrow","rightarrow"],"horizon":5,"forced_choices":["leftarrow","rightarrow","rightarrow","leftarrow"],"right_color":"orange","left_color":"lightblue","left_mu":60,"right_mu":72,"left_numbers":[64,70,66,62,57],"right_numbers":[70,80,78,74,65],"points_earned":349,"trial_type":"horizons-task","trial_index":17,"time_elapsed":236188,"internal_node_id":"0.0-13.0"},{"response_times":[495.0599999865517,469.34999999939464,405.9750000014901,412.5699999858625,457.54000000306405,1737.7599999890663,381.3700000173412,322.98500000615604,324.6450000151526,265.030000009574],"keys_pressed":["leftarrow","leftarrow","leftarrow","rightarrow","rightarrow","rightarrow","rightarrow","rightarrow","rightarrow","rightarrow"],"horizon":10,"forced_choices":["leftarrow","leftarrow","leftarrow","rightarrow"],"right_color":"lightblue","left_color":"orange","left_mu":60,"right_mu":72,"left_numbers":[60,50,48,55,56,51,65,60,49,42],"right_numbers":[82,66,68,64,68,78,77,68,68,67],"points_earned":648,"trial_type":"horizons-task","trial_index":18,"time_elapsed":242967,"internal_node_id":"0.0-14.0"},{"response_times":[1075.0699999916833,329.939999995986,438.76499999896623,413.4800000174437,1106.6749999881722,699.6300000173505,364.8350000148639,198.05500001530163,143.9550000068266,136.0500000009779],"keys_pressed":["rightarrow","leftarrow","leftarrow","leftarrow","leftarrow","leftarrow","leftarrow","leftarrow","leftarrow","leftarrow"],"horizon":10,"forced_choices":["rightarrow","leftarrow","leftarrow","leftarrow"],"right_color":"lightblue","left_color":"orange","left_mu":60,"right_mu":48,"left_numbers":[55,59,68,64,67,55,56,53,63,65],"right_numbers":[49,52,52,39,29,44,50,41,36,59],"points_earned":599,"trial_type":"horizons-task","trial_index":19,"time_elapsed":249380,"internal_node_id":"0.0-15.0"},{"response_times":[425.054999999702,485.32500001601875,972.08999999566,728.4849999996368,790.1999999885447,507.7049999963492,1127.314999990631,331.7300000053365,162.36000001663342,136.1099999921862],"keys_pressed":["rightarrow","rightarrow","leftarrow","rightarrow","leftarrow","leftarrow","leftarrow","leftarrow","leftarrow","leftarrow"],"horizon":10,"forced_choices":["rightarrow","rightarrow","leftarrow","rightarrow"],"right_color":"orange","left_color":"lightblue","left_mu":40,"right_mu":20,"left_numbers":[44,36,39,38,38,31,50,49,46,29],"right_numbers":[13,20,16,13,15,35,22,15,28,14],"points_earned":328,"trial_type":"horizons-task","trial_index":20,"time_elapsed":256551,"internal_node_id":"0.0-16.0"},{"response_times":[488.7099999759812,451.76499997614883,429.2999999888707,489.4749999803025,1207.5999999942724,765.3349999745842,388.31999999820255,436.99499999638647,150.47499997308478,117.16500000329688],"keys_pressed":["leftarrow","rightarrow","leftarrow","rightarrow","rightarrow","leftarrow","leftarrow","leftarrow","leftarrow","leftarrow"],"horizon":10,"forced_choices":["leftarrow","rightarrow","leftarrow","rightarrow"],"right_color":"orange","left_color":"lightblue","left_mu":40,"right_mu":36,"left_numbers":[41,47,45,26,52,36,42,37,50,40],"right_numbers":[38,34,46,27,18,39,29,27,45,23],"points_earned":370,"trial_type":"horizons-task","trial_index":21,"time_elapsed":262983,"internal_node_id":"0.0-17.0"},{"response_times":[441.2200000078883,481.4349999942351,617.484999995213,569.6750000061002,857.3850000102539],"keys_pressed":["leftarrow","leftarrow","rightarrow","rightarrow","rightarrow"],"horizon":5,"forced_choices":["leftarrow","leftarrow","rightarrow","rightarrow"],"right_color":"orange","left_color":"lightblue","left_mu":40,"right_mu":52,"left_numbers":[45,38,42,38,47],"right_numbers":[53,57,55,47,40],"points_earned":225,"trial_type":"horizons-task","trial_index":22,"time_elapsed":267460,"internal_node_id":"0.0-18.0"},{"response_times":[389.5849999971688,491.4799999969546,330.11500001884997,490.41500000748783,1352.694999979576,426.60999999498017,425.8799999952316,238.12000002362765,139.0149999933783,143.94499998888932],"keys_pressed":["rightarrow","leftarrow","rightarrow","leftarrow","rightarrow","rightarrow","rightarrow","rightarrow","rightarrow","rightarrow"],"horizon":10,"forced_choices":["rightarrow","leftarrow","rightarrow","leftarrow"],"right_color":"orange","left_color":"lightblue","left_mu":40,"right_mu":44,"left_numbers":[47,31,31,24,40,54,27,45,43,36],"right_numbers":[48,30,49,32,41,48,49,40,48,40],"points_earned":418,"trial_type":"horizons-task","trial_index":23,"time_elapsed":273398,"internal_node_id":"0.0-19.0"},{"response_times":[755.8649999846239,592.4999999988358,1212.1449999976903,457.6299999898765,971.1600000155158,119.99999999534339,154.68499998678453,143.65499999257736,138.7399999948684,147.8099999949336],"keys_pressed":["rightarrow","rightarrow","leftarrow","rightarrow","rightarrow","rightarrow","rightarrow","rightarrow","rightarrow","rightarrow"],"horizon":10,"forced_choices":["rightarrow","rightarrow","leftarrow","rightarrow"],"right_color":"lightblue","left_color":"orange","left_mu":60,"right_mu":90,"left_numbers":[56,60,56,61,43,54,42,57,43,55],"right_numbers":[107,87,74,92,86,93,80,91,73,92],"points_earned":857,"trial_type":"horizons-task","trial_index":24,"time_elapsed":279615,"internal_node_id":"0.0-20.0"},{"response_times":[432.51000001328066,307.80500001856126,446.3849999883678,694.084999995539,167.37000001012348],"keys_pressed":["rightarrow","leftarrow","leftarrow","rightarrow","leftarrow"],"horizon":5,"forced_choices":["rightarrow","leftarrow","leftarrow","rightarrow"],"right_color":"lightblue","left_color":"orange","left_mu":40,"right_mu":10,"left_numbers":[52,40,46,38,46],"right_numbers":[3,22,4,0,7],"points_earned":135,"trial_type":"horizons-task","trial_index":25,"time_elapsed":283168,"internal_node_id":"0.0-21.0"},{"response_times":[473.90000001178123,357.03499999362975,511.47499997750856,954.280000005383,734.3999999866355,2271.2899999751244,500.6349999748636,137.6450000097975,131.30000000819564,129.50500001898035],"keys_pressed":["rightarrow","rightarrow","rightarrow","leftarrow","leftarrow","leftarrow","leftarrow","leftarrow","leftarrow","leftarrow"],"horizon":10,"forced_choices":["rightarrow","rightarrow","rightarrow","leftarrow"],"right_color":"orange","left_color":"lightblue","left_mu":60,"right_mu":40,"left_numbers":[62,54,67,75,55,69,61,60,75,64],"right_numbers":[51,47,28,45,44,37,35,47,32,20],"points_earned":585,"trial_type":"horizons-task","trial_index":26,"time_elapsed":290877,"internal_node_id":"0.0-22.0"},{"response_times":[447.95499998144805,566.4899999974295,374.3850000028033,489.44000000483356,492.10499998298474],"keys_pressed":["rightarrow","leftarrow","rightarrow","rightarrow","rightarrow"],"horizon":5,"forced_choices":["rightarrow","leftarrow","rightarrow","rightarrow"],"right_color":"orange","left_color":"lightblue","left_mu":60,"right_mu":72,"left_numbers":[64,57,42,67,67],"right_numbers":[67,65,58,77,83],"points_earned":342,"trial_type":"horizons-task","trial_index":27,"time_elapsed":294756,"internal_node_id":"0.0-23.0"},{"response_times":[349.8600000166334,335.8099999895785,218.5100000060629,674.6099999872968,821.2650000059512,583.1399999733549,141.6249999892898,149.1950000054203,135.23499999428168,468.82999999797903],"keys_pressed":["rightarrow","leftarrow","rightarrow","rightarrow","leftarrow","leftarrow","leftarrow","leftarrow","leftarrow","leftarrow"],"horizon":10,"forced_choices":["rightarrow","leftarrow","rightarrow","rightarrow"],"right_color":"orange","left_color":"lightblue","left_mu":60,"right_mu":40,"left_numbers":[48,50,42,61,59,48,62,60,69,65],"right_numbers":[41,38,37,48,53,36,44,42,35,35],"points_earned":539,"trial_type":"horizons-task","trial_index":28,"time_elapsed":300143,"internal_node_id":"0.0-24.0"},{"response_times":[652.734999981476,511.5200000000186,374.2550000024494,383.9649999863468,725.6799999740906,604.3649999774061,138.83999999961816,140.95499998074956,132.6849999895785,133.4999999962747],"keys_pressed":["leftarrow","leftarrow","rightarrow","rightarrow","rightarrow","leftarrow","leftarrow","leftarrow","leftarrow","leftarrow"],"horizon":10,"forced_choices":["leftarrow","leftarrow","rightarrow","rightarrow"],"right_color":"orange","left_color":"lightblue","left_mu":60,"right_mu":52,"left_numbers":[61,57,52,54,60,66,61,56,66,58],"right_numbers":[54,45,54,40,40,50,51,51,52,62],"points_earned":559,"trial_type":"horizons-task","trial_index":29,"time_elapsed":305452,"internal_node_id":"0.0-25.0"},{"response_times":[487.1350000030361,572.7650000189897,1010.9900000097696,434.4799999962561,2434.849999990547,420.5049999873154,769.8650000093039,508.9250000019092,152.620000008028,128.13500000629574],"keys_pressed":["leftarrow","leftarrow","rightarrow","leftarrow","leftarrow","leftarrow","rightarrow","leftarrow","leftarrow","leftarrow"],"horizon":10,"forced_choices":["leftarrow","leftarrow","rightarrow","leftarrow"],"right_color":"orange","left_color":"lightblue","left_mu":60,"right_mu":64,"left_numbers":[63,63,61,59,54,53,67,69,71,60],"right_numbers":[63,67,63,56,57,65,47,66,57,63],"points_earned":602,"trial_type":"horizons-task","trial_index":30,"time_elapsed":313876,"internal_node_id":"0.0-26.0"},{"response_times":[621.7349999933504,394.88999999593943,1488.7349999917205,453.84000000194646,790.130000008503,864.4050000002608,308.58000001171604,131.15500001003966,132.29500001762062,131.51000000652857],"keys_pressed":["rightarrow","leftarrow","leftarrow","leftarrow","rightarrow","leftarrow","leftarrow","leftarrow","leftarrow","leftarrow"],"horizon":10,"forced_choices":["rightarrow","leftarrow","leftarrow","leftarrow"],"right_color":"lightblue","left_color":"orange","left_mu":60,"right_mu":64,"left_numbers":[63,57,51,66,58,71,61,79,56,45],"right_numbers":[77,62,60,76,44,75,47,69,57,76],"points_earned":607,"trial_type":"horizons-task","trial_index":31,"time_elapsed":320704,"internal_node_id":"0.0-27.0"},{"response_times":[548.385000001872,309.6199999854434,939.8649999930058,436.1100000096485,531.2749999866355],"keys_pressed":["rightarrow","leftarrow","leftarrow","leftarrow","rightarrow"],"horizon":5,"forced_choices":["rightarrow","leftarrow","leftarrow","leftarrow"],"right_color":"lightblue","left_color":"orange","left_mu":40,"right_mu":60,"left_numbers":[49,37,28,38,38],"right_numbers":[65,53,55,57,68],"points_earned":236,"trial_type":"horizons-task","trial_index":32,"time_elapsed":324979,"internal_node_id":"0.0-28.0"},{"response_times":[568.0649999994785,272.33500001602806,730.2449999842793,717.7599999995437,647.2749999957159],"keys_pressed":["rightarrow","leftarrow","leftarrow","leftarrow","leftarrow"],"horizon":5,"forced_choices":["rightarrow","leftarrow","leftarrow","leftarrow"],"right_color":"orange","left_color":"lightblue","left_mu":40,"right_mu":32,"left_numbers":[38,47,34,43,44],"right_numbers":[16,36,22,29,35],"points_earned":184,"trial_type":"horizons-task","trial_index":33,"time_elapsed":329418,"internal_node_id":"0.0-29.0"},{"response_times":[516.9649999879766,439.48999998974614,471.5950000099838,818.7399999878835,393.96499999566004],"keys_pressed":["rightarrow","rightarrow","rightarrow","leftarrow","rightarrow"],"horizon":5,"forced_choices":["rightarrow","rightarrow","rightarrow","leftarrow"],"right_color":"lightblue","left_color":"orange","left_mu":60,"right_mu":72,"left_numbers":[69,65,63,66,60],"right_numbers":[68,75,69,76,78],"points_earned":356,"trial_type":"horizons-task","trial_index":34,"time_elapsed":333565,"internal_node_id":"0.0-30.0"},{"response_times":[547.9950000008103,467.88999999989755,380.5399999837391,1252.9849999991711,633.67000001017],"keys_pressed":["leftarrow","leftarrow","leftarrow","rightarrow","rightarrow"],"horizon":5,"forced_choices":["leftarrow","leftarrow","leftarrow","rightarrow"],"right_color":"orange","left_color":"lightblue","left_mu":60,"right_mu":72,"left_numbers":[51,61,43,62,54],"right_numbers":[60,81,80,72,63],"points_earned":290,"trial_type":"horizons-task","trial_index":35,"time_elapsed":338359,"internal_node_id":"0.0-31.0"},{"response_times":[515.5849999864586,411.3950000028126,692.574999993667,412.79999999096617,1536.7699999769684],"keys_pressed":["rightarrow","rightarrow","leftarrow","rightarrow","rightarrow"],"horizon":5,"forced_choices":["rightarrow","rightarrow","leftarrow","rightarrow"],"right_color":"lightblue","left_color":"orange","left_mu":60,"right_mu":52,"left_numbers":[55,62,59,58,77],"right_numbers":[60,47,42,55,50],"points_earned":271,"trial_type":"horizons-task","trial_index":36,"time_elapsed":343435,"internal_node_id":"0.0-32.0"},{"response_times":[434.1949999798089,525.8849999809172,398.44499999890104,412.3799999943003,380.8849999913946,1163.5649999952875,691.6250000067521,335.31500000390224,158.06500002508983,177.8700000140816],"keys_pressed":["leftarrow","rightarrow","rightarrow","rightarrow","rightarrow","leftarrow","rightarrow","rightarrow","rightarrow","rightarrow"],"horizon":10,"forced_choices":["leftarrow","rightarrow","rightarrow","rightarrow"],"right_color":"lightblue","left_color":"orange","left_mu":40,"right_mu":52,"left_numbers":[44,45,33,52,38,48,51,45,38,37],"right_numbers":[47,53,64,37,57,62,46,53,43,48],"points_earned":493,"trial_type":"horizons-task","trial_index":37,"time_elapsed":349621,"internal_node_id":"0.0-33.0"},{"response_times":[510.7799999823328,234.1700000106357,251.93500000750646,670.7499999902211,1204.9800000095274],"keys_pressed":["rightarrow","leftarrow","rightarrow","rightarrow","rightarrow"],"horizon":5,"forced_choices":["rightarrow","leftarrow","rightarrow","rightarrow"],"right_color":"lightblue","left_color":"orange","left_mu":40,"right_mu":48,"left_numbers":[42,46,44,34,37],"right_numbers":[44,36,43,48,42],"points_earned":223,"trial_type":"horizons-task","trial_index":38,"time_elapsed":353998,"internal_node_id":"0.0-34.0"},{"response_times":[812.3149999883026,502.1300000080373,620.9650000091642,384.65500000165775,554.7099999967031],"keys_pressed":["rightarrow","leftarrow","leftarrow","leftarrow","rightarrow"],"horizon":5,"forced_choices":["rightarrow","leftarrow","leftarrow","leftarrow"],"right_color":"orange","left_color":"lightblue","left_mu":60,"right_mu":68,"left_numbers":[53,70,70,44,50],"right_numbers":[78,61,72,71,63],"points_earned":325,"trial_type":"horizons-task","trial_index":39,"time_elapsed":358383,"internal_node_id":"0.0-35.0"},{"response_times":[412.9850000026636,521.3499999954365,532.7850000176113,443.11500000185333,334.8649999825284],"keys_pressed":["leftarrow","leftarrow","rightarrow","rightarrow","rightarrow"],"horizon":5,"forced_choices":["leftarrow","leftarrow","rightarrow","rightarrow"],"right_color":"lightblue","left_color":"orange","left_mu":40,"right_mu":20,"left_numbers":[33,30,50,56,34],"right_numbers":[3,8,40,14,26],"points_earned":143,"trial_type":"horizons-task","trial_index":40,"time_elapsed":362134,"internal_node_id":"0.0-36.0"},{"response_times":[384.0650000202004,253.65999998757616,543.6099999933504,244.91999999736436,111.23499998939224],"keys_pressed":["rightarrow","leftarrow","leftarrow","rightarrow","leftarrow"],"horizon":5,"forced_choices":["rightarrow","leftarrow","leftarrow","rightarrow"],"right_color":"orange","left_color":"lightblue","left_mu":60,"right_mu":90,"left_numbers":[64,46,50,55,58],"right_numbers":[84,78,98,84,79],"points_earned":322,"trial_type":"horizons-task","trial_index":41,"time_elapsed":365192,"internal_node_id":"0.0-37.0"},{"response_times":[610.4800000030082,597.2199999960139,463.59499997925013,498.3699999866076,422.29499999666587],"keys_pressed":["leftarrow","leftarrow","rightarrow","rightarrow","leftarrow"],"horizon":5,"forced_choices":["leftarrow","leftarrow","rightarrow","rightarrow"],"right_color":"lightblue","left_color":"orange","left_mu":60,"right_mu":56,"left_numbers":[62,48,61,56,59],"right_numbers":[70,69,45,71,46],"points_earned":285,"trial_type":"horizons-task","trial_index":42,"time_elapsed":369291,"internal_node_id":"0.0-38.0"},{"response_times":[358.4499999997206,413.83000000496395,432.08500000764616,499.2000000202097,576.7749999940861,445.6200000131503,339.8600000073202,298.69500000495464,152.99999999115244,146.81500001461245],"keys_pressed":["rightarrow","rightarrow","rightarrow","leftarrow","rightarrow","rightarrow","rightarrow","rightarrow","rightarrow","rightarrow"],"horizon":10,"forced_choices":["rightarrow","rightarrow","rightarrow","leftarrow"],"right_color":"orange","left_color":"lightblue","left_mu":40,"right_mu":70,"left_numbers":[38,42,51,33,28,44,38,33,41,28],"right_numbers":[46,71,69,77,64,73,61,66,63,91],"points_earned":637,"trial_type":"horizons-task","trial_index":43,"time_elapsed":374460,"internal_node_id":"0.0-39.0"},{"response_times":[539.9899999902118,154.32999999029562,576.5649999957532,142.25999999325722,985.6450000079349,982.6649999886286,467.79500000411645,134.0349999954924,136.69499999377877,142.32499999343418],"keys_pressed":["leftarrow","rightarrow","leftarrow","rightarrow","leftarrow","leftarrow","leftarrow","leftarrow","leftarrow","leftarrow"],"horizon":10,"forced_choices":["leftarrow","rightarrow","leftarrow","rightarrow"],"right_color":"lightblue","left_color":"orange","left_mu":60,"right_mu":56,"left_numbers":[65,69,67,63,51,72,63,61,61,55],"right_numbers":[56,52,55,51,50,62,65,45,50,53],"points_earned":598,"trial_type":"horizons-task","trial_index":44,"time_elapsed":380232,"internal_node_id":"0.0-40.0"},{"response_times":[538.5499999974854,305.58499999460764,343.15000000060536,558.1900000106543,1228.3949999837205],"keys_pressed":["leftarrow","rightarrow","leftarrow","leftarrow","rightarrow"],"horizon":5,"forced_choices":["leftarrow","rightarrow","leftarrow","leftarrow"],"right_color":"orange","left_color":"lightblue","left_mu":40,"right_mu":70,"left_numbers":[38,39,41,34,39],"right_numbers":[67,69,77,55,70],"points_earned":252,"trial_type":"horizons-task","trial_index":45,"time_elapsed":384710,"internal_node_id":"0.0-41.0"},{"response_times":[541.945000004489,498.1350000016391,404.81499998713844,954.6700000064448,422.4050000193529,975.864999985788,144.17999997385778,146.47999999579042,142.29499999783002,120.519999996759],"keys_pressed":["rightarrow","rightarrow","leftarrow","leftarrow","rightarrow","rightarrow","rightarrow","rightarrow","rightarrow","rightarrow"],"horizon":10,"forced_choices":["rightarrow","rightarrow","leftarrow","leftarrow"],"right_color":"lightblue","left_color":"orange","left_mu":60,"right_mu":80,"left_numbers":[62,73,62,56,61,69,66,66,56,50],"right_numbers":[76,97,80,84,81,94,79,79,81,86],"points_earned":791,"trial_type":"horizons-task","trial_index":46,"time_elapsed":390571,"internal_node_id":"0.0-42.0"},{"response_times":[469.71999999368563,150.9399999922607,862.8699999826495,124.63000000570901,767.4249999981839,149.33000001474284,125.15999999595806,131.67999999132007,153.09999999590218,152.61499999905936],"keys_pressed":["leftarrow","rightarrow","leftarrow","rightarrow","rightarrow","rightarrow","rightarrow","rightarrow","rightarrow","rightarrow"],"horizon":10,"forced_choices":["leftarrow","rightarrow","leftarrow","rightarrow"],"right_color":"lightblue","left_color":"orange","left_mu":60,"right_mu":90,"left_numbers":[44,56,49,57,65,45,74,54,52,65],"right_numbers":[81,87,91,90,98,83,95,95,99,88],"points_earned":828,"trial_type":"horizons-task","trial_index":47,"time_elapsed":395166,"internal_node_id":"0.0-43.0"},{"response_times":[656.7249999789055,427.25499998778105,681.7149999842513,468.2749999919906,562.8849999920931],"keys_pressed":["rightarrow","rightarrow","leftarrow","rightarrow","leftarrow"],"horizon":5,"forced_choices":["rightarrow","rightarrow","leftarrow","rightarrow"],"right_color":"lightblue","left_color":"orange","left_mu":60,"right_mu":30,"left_numbers":[65,50,48,42,63],"right_numbers":[39,37,45,32,39],"points_earned":219,"trial_type":"horizons-task","trial_index":48,"time_elapsed":399472,"internal_node_id":"0.0-44.0"},{"view_history":"[{\"page_index\":0,\"viewing_time\":1369.139999995241},{\"page_index\":1,\"viewing_time\":1346.9800000020768}]","rt":2716.9449999928474,"trial_type":"instructions","trial_index":49,"time_elapsed":402192,"internal_node_id":"0.0-45.0"},{"response_times":[992.3600000038277,262.4550000182353,587.8800000064075,118.0400000012014,582.9549999907613],"keys_pressed":["leftarrow","rightarrow","leftarrow","rightarrow","leftarrow"],"horizon":5,"forced_choices":["leftarrow","rightarrow","leftarrow","rightarrow"],"right_color":"lightblue","left_color":"orange","left_mu":40,"right_mu":20,"left_numbers":[39,29,39,41,29],"right_numbers":[25,20,23,14,12],"points_earned":141,"trial_type":"horizons-task","trial_index":50,"time_elapsed":406254,"internal_node_id":"0.0-46.0"},{"response_times":[488.4199999796692,726.2749999936204,552.4699999950826,592.239999998128,273.43000000109896],"keys_pressed":["leftarrow","leftarrow","rightarrow","rightarrow","rightarrow"],"horizon":5,"forced_choices":["leftarrow","leftarrow","rightarrow","rightarrow"],"right_color":"orange","left_color":"lightblue","left_mu":60,"right_mu":80,"left_numbers":[53,63,60,77,53],"right_numbers":[75,85,92,75,78],"points_earned":361,"trial_type":"horizons-task","trial_index":51,"time_elapsed":410397,"internal_node_id":"0.0-47.0"},{"response_times":[423.81000000750646,168.03000000072643,643.1900000025053,475.59499999624677,437.2399999992922,314.60499999229796,1424.4499999913387,135.46999997925013,131.294999999227,138.4050000051502],"keys_pressed":["rightarrow","leftarrow","rightarrow","rightarrow","rightarrow","rightarrow","leftarrow","leftarrow","leftarrow","leftarrow"],"horizon":10,"forced_choices":["rightarrow","leftarrow","rightarrow","rightarrow"],"right_color":"orange","left_color":"lightblue","left_mu":40,"right_mu":32,"left_numbers":[37,34,40,47,40,54,44,44,37,41],"right_numbers":[24,41,35,28,19,26,20,22,23,19],"points_earned":332,"trial_type":"horizons-task","trial_index":52,"time_elapsed":416198,"internal_node_id":"0.0-48.0"},{"response_times":[510.6099999975413,499.8849999974482,337.3000000137836,686.6949999821372,345.3950000111945,1299.815000005765,134.87499998882413,119.3349999957718,126.54499997734092,126.5700000221841],"keys_pressed":["leftarrow","leftarrow","leftarrow","rightarrow","rightarrow","leftarrow","leftarrow","leftarrow","leftarrow","leftarrow"],"horizon":10,"forced_choices":["leftarrow","leftarrow","leftarrow","rightarrow"],"right_color":"orange","left_color":"lightblue","left_mu":60,"right_mu":48,"left_numbers":[59,47,57,38,76,53,58,58,71,69],"right_numbers":[43,43,38,51,41,55,51,43,49,33],"points_earned":564,"trial_type":"horizons-task","trial_index":53,"time_elapsed":421893,"internal_node_id":"0.0-49.0"},{"response_times":[482.7899999800138,120.59499998576939,576.5499999979511,800.7550000038464,117.53000001772307],"keys_pressed":["leftarrow","rightarrow","rightarrow","leftarrow","rightarrow"],"horizon":5,"forced_choices":["leftarrow","rightarrow","rightarrow","leftarrow"],"right_color":"lightblue","left_color":"orange","left_mu":40,"right_mu":52,"left_numbers":[46,46,42,39,44],"right_numbers":[47,46,57,47,28],"points_earned":216,"trial_type":"horizons-task","trial_index":54,"time_elapsed":425498,"internal_node_id":"0.0-50.0"},{"response_times":[557.730000000447,481.789999990724,341.7699999990873,777.1500000089873,116.13999999826774],"keys_pressed":["leftarrow","leftarrow","leftarrow","rightarrow","leftarrow"],"horizon":5,"forced_choices":["leftarrow","leftarrow","leftarrow","rightarrow"],"right_color":"orange","left_color":"lightblue","left_mu":60,"right_mu":80,"left_numbers":[47,67,62,65,49],"right_numbers":[80,78,75,85,82],"points_earned":310,"trial_type":"horizons-task","trial_index":55,"time_elapsed":429283,"internal_node_id":"0.0-51.0"},{"response_times":[446.3349999859929,79.07999999588355,741.9450000161305,212.55500000552274,920.1449999818578,114.50500000501052,134.93999998900108,143.76500001526438,140.86500002304092,132.9400000104215],"keys_pressed":["rightarrow","leftarrow","leftarrow","rightarrow","leftarrow","leftarrow","leftarrow","leftarrow","leftarrow","leftarrow"],"horizon":10,"forced_choices":["rightarrow","leftarrow","leftarrow","rightarrow"],"right_color":"lightblue","left_color":"orange","left_mu":40,"right_mu":28,"left_numbers":[23,54,41,45,53,37,46,40,45,24],"right_numbers":[37,18,18,17,22,28,30,32,37,24],"points_earned":394,"trial_type":"horizons-task","trial_index":56,"time_elapsed":433860,"internal_node_id":"0.0-52.0"},{"response_times":[467.86500001326203,92.35999998054467,662.5099999946542,149.63999998872168,860.515000007581],"keys_pressed":["rightarrow","leftarrow","leftarrow","leftarrow","leftarrow"],"horizon":5,"forced_choices":["rightarrow","leftarrow","leftarrow","leftarrow"],"right_color":"orange","left_color":"lightblue","left_mu":60,"right_mu":52,"left_numbers":[70,73,63,54,57],"right_numbers":[56,40,39,48,61],"points_earned":303,"trial_type":"horizons-task","trial_index":57,"time_elapsed":437597,"internal_node_id":"0.0-53.0"},{"response_times":[442.7950000099372,101.14000001340173,657.5000000011642,130.86499998462386,162.68000000854954],"keys_pressed":["leftarrow","rightarrow","rightarrow","rightarrow","rightarrow"],"horizon":5,"forced_choices":["leftarrow","rightarrow","rightarrow","rightarrow"],"right_color":"orange","left_color":"lightblue","left_mu":60,"right_mu":80,"left_numbers":[59,67,66,45,50],"right_numbers":[74,74,79,70,83],"points_earned":365,"trial_type":"horizons-task","trial_index":58,"time_elapsed":440600,"internal_node_id":"0.0-54.0"},{"response_times":[579.649999999674,148.2149999937974,789.9349999788683,574.1949999937788,669.0499999967869],"keys_pressed":["rightarrow","leftarrow","leftarrow","rightarrow","rightarrow"],"horizon":5,"forced_choices":["rightarrow","leftarrow","leftarrow","rightarrow"],"right_color":"orange","left_color":"lightblue","left_mu":60,"right_mu":80,"left_numbers":[61,47,74,64,54],"right_numbers":[82,80,83,72,86],"points_earned":361,"trial_type":"horizons-task","trial_index":59,"time_elapsed":444867,"internal_node_id":"0.0-55.0"},{"response_times":[460.9249999921303,437.88000001222827,903.4000000101514,139.9600000004284,932.5599999865517],"keys_pressed":["rightarrow","rightarrow","leftarrow","rightarrow","leftarrow"],"horizon":5,"forced_choices":["rightarrow","rightarrow","leftarrow","rightarrow"],"right_color":"lightblue","left_color":"orange","left_mu":40,"right_mu":48,"left_numbers":[51,27,44,40,39],"right_numbers":[50,41,45,32,42],"points_earned":206,"trial_type":"horizons-task","trial_index":60,"time_elapsed":449251,"internal_node_id":"0.0-56.0"},{"response_times":[411.99500000220723,122.19000002369285,147.6200000033714,946.0949999920558,929.6200000098906,767.0500000240281,131.74500002060086,141.15000001038425,127.91499999002554,139.9600000004284],"keys_pressed":["rightarrow","leftarrow","rightarrow","leftarrow","rightarrow","leftarrow","leftarrow","leftarrow","leftarrow","leftarrow"],"horizon":10,"forced_choices":["rightarrow","leftarrow","rightarrow","leftarrow"],"right_color":"lightblue","left_color":"orange","left_mu":60,"right_mu":64,"left_numbers":[68,67,69,72,47,76,53,49,45,57],"right_numbers":[59,66,47,72,55,68,53,74,67,60],"points_earned":580,"trial_type":"horizons-task","trial_index":61,"time_elapsed":454621,"internal_node_id":"0.0-57.0"},{"response_times":[580.7550000026822,137.21499999519438,108.95500000333413,1024.505000008503,113.51500000455417],"keys_pressed":["leftarrow","rightarrow","leftarrow","leftarrow","rightarrow"],"horizon":5,"forced_choices":["leftarrow","rightarrow","leftarrow","leftarrow"],"right_color":"orange","left_color":"lightblue","left_mu":40,"right_mu":52,"left_numbers":[40,46,23,23,50],"right_numbers":[47,58,41,53,52],"points_earned":196,"trial_type":"horizons-task","trial_index":62,"time_elapsed":458090,"internal_node_id":"0.0-58.0"},{"response_times":[495.6149999925401,111.10499998903833,769.6749999886379,99.79999999632128,469.7349999914877],"keys_pressed":["leftarrow","rightarrow","rightarrow","leftarrow","leftarrow"],"horizon":5,"forced_choices":["leftarrow","rightarrow","rightarrow","leftarrow"],"right_color":"orange","left_color":"lightblue","left_mu":40,"right_mu":20,"left_numbers":[58,55,42,49,54],"right_numbers":[9,19,21,25,23],"points_earned":201,"trial_type":"horizons-task","trial_index":63,"time_elapsed":461544,"internal_node_id":"0.0-59.0"},{"response_times":[555.3300000028685,135.96000001416542,691.9449999986682,121.45499998587184,645.5249999999069,118.41999998432584,132.62499999837019,141.57500001601875,127.90499997208826,127.45500000892207],"keys_pressed":["leftarrow","rightarrow","leftarrow","rightarrow","leftarrow","leftarrow","leftarrow","leftarrow","leftarrow","leftarrow"],"horizon":10,"forced_choices":["leftarrow","rightarrow","leftarrow","rightarrow"],"right_color":"lightblue","left_color":"orange","left_mu":60,"right_mu":30,"left_numbers":[74,50,51,64,67,53,67,54,55,63],"right_numbers":[37,40,31,21,13,34,25,20,26,15],"points_earned":545,"trial_type":"horizons-task","trial_index":64,"time_elapsed":465864,"internal_node_id":"0.0-60.0"},{"response_times":[443.0149999971036,146.57999997143634,1015.095000009751,1464.0000000072177,400.70999998715706],"keys_pressed":["leftarrow","rightarrow","rightarrow","rightarrow","rightarrow"],"horizon":5,"forced_choices":["leftarrow","rightarrow","rightarrow","rightarrow"],"right_color":"lightblue","left_color":"orange","left_mu":40,"right_mu":52,"left_numbers":[38,48,39,39,36],"right_numbers":[70,30,42,52,46],"points_earned":208,"trial_type":"horizons-task","trial_index":65,"time_elapsed":470838,"internal_node_id":"0.0-61.0"},{"response_times":[541.8999999819789,103.8049999915529,735.3750000183936,620.5400000035297,845.5750000139233,122.79500000295229,154.90500000305474,144.70500001334585,126.0550000006333,130.9950000140816],"keys_pressed":["leftarrow","rightarrow","rightarrow","rightarrow","leftarrow","leftarrow","leftarrow","leftarrow","leftarrow","leftarrow"],"horizon":10,"forced_choices":["leftarrow","rightarrow","rightarrow","rightarrow"],"right_color":"lightblue","left_color":"orange","left_mu":40,"right_mu":20,"left_numbers":[34,40,37,50,48,46,18,37,36,48],"right_numbers":[8,23,13,22,22,12,18,14,28,37],"points_earned":325,"trial_type":"horizons-task","trial_index":66,"time_elapsed":475872,"internal_node_id":"0.0-62.0"},{"response_times":[460.01999999862164,227.62499999953434,430.5600000079721,767.1750000154134,499.7399999992922,139.38000000780448,141.3849999953527,142.58499999414198,136.72999999835156,143.68999999715015],"keys_pressed":["leftarrow","leftarrow","rightarrow","rightarrow","leftarrow","leftarrow","leftarrow","leftarrow","leftarrow","leftarrow"],"horizon":10,"forced_choices":["leftarrow","leftarrow","rightarrow","rightarrow"],"right_color":"orange","left_color":"lightblue","left_mu":40,"right_mu":20,"left_numbers":[50,44,29,41,37,45,40,37,46,36],"right_numbers":[17,31,22,16,21,25,13,38,10,24],"points_earned":373,"trial_type":"horizons-task","trial_index":67,"time_elapsed":480472,"internal_node_id":"0.0-63.0"},{"response_times":[701.679999998305,110.1300000154879,603.2450000056997,773.3200000075158,951.0949999967124,123.46999999135733,149.4900000107009,131.67499998235144,142.38000000477768,122.08000000100583],"keys_pressed":["rightarrow","leftarrow","leftarrow","leftarrow","leftarrow","leftarrow","leftarrow","leftarrow","leftarrow","leftarrow"],"horizon":10,"forced_choices":["rightarrow","leftarrow","leftarrow","leftarrow"],"right_color":"orange","left_color":"lightblue","left_mu":40,"right_mu":32,"left_numbers":[40,29,47,36,35,45,29,41,38,42],"right_numbers":[33,24,47,19,20,20,53,31,31,36],"points_earned":375,"trial_type":"horizons-task","trial_index":68,"time_elapsed":485788,"internal_node_id":"0.0-64.0"},{"response_times":[379.89499999093823,128.64999999874271,590.1049999811221,101.87000001315027,602.9249999846797,141.1249999946449,139.13999998476356,142.56499998737127,131.7599999892991,128.84499999927357],"keys_pressed":["leftarrow","rightarrow","leftarrow","rightarrow","leftarrow","leftarrow","leftarrow","leftarrow","leftarrow","leftarrow"],"horizon":10,"forced_choices":["leftarrow","rightarrow","leftarrow","rightarrow"],"right_color":"lightblue","left_color":"orange","left_mu":40,"right_mu":28,"left_numbers":[45,54,41,42,54,44,43,20,35,37],"right_numbers":[41,21,26,27,21,21,18,27,18,13],"points_earned":367,"trial_type":"horizons-task","trial_index":69,"time_elapsed":489791,"internal_node_id":"0.0-65.0"},{"response_times":[483.47500001545995,200.77999998466112,957.4799999827519,588.9099999913014,301.3000000210013,1516.5750000160187,519.8899999959394,145.89000001433305,152.4749999807682,147.33999999589287],"keys_pressed":["leftarrow","leftarrow","leftarrow","rightarrow","rightarrow","rightarrow","rightarrow","rightarrow","rightarrow","rightarrow"],"horizon":10,"forced_choices":["leftarrow","leftarrow","leftarrow","rightarrow"],"right_color":"lightblue","left_color":"orange","left_mu":40,"right_mu":48,"left_numbers":[37,47,26,42,40,35,52,39,27,48],"right_numbers":[54,39,68,44,33,43,53,48,44,55],"points_earned":430,"trial_type":"horizons-task","trial_index":70,"time_elapsed":496314,"internal_node_id":"0.0-66.0"},{"response_times":[512.0400000014342,198.68500001030043,667.4950000015087,118.53000000701286,626.3500000059139],"keys_pressed":["leftarrow","leftarrow","leftarrow","rightarrow","leftarrow"],"horizon":5,"forced_choices":["leftarrow","leftarrow","leftarrow","rightarrow"],"right_color":"orange","left_color":"lightblue","left_mu":40,"right_mu":32,"left_numbers":[34,26,46,43,43],"right_numbers":[29,29,34,24,33],"points_earned":173,"trial_type":"horizons-task","trial_index":71,"time_elapsed":499943,"internal_node_id":"0.0-67.0"},{"response_times":[528.149999998277,103.75999999814667,145.5100000021048,853.0999999784399,95.63500000513159],"keys_pressed":["leftarrow","rightarrow","leftarrow","rightarrow","leftarrow"],"horizon":5,"forced_choices":["leftarrow","rightarrow","leftarrow","rightarrow"],"right_color":"lightblue","left_color":"orange","left_mu":60,"right_mu":40,"left_numbers":[63,63,67,56,59],"right_numbers":[29,43,35,33,33],"points_earned":265,"trial_type":"horizons-task","trial_index":72,"time_elapsed":503177,"internal_node_id":"0.0-68.0"},{"response_times":[513.1450000044424,91.55499999178573,906.5750000008848,710.6450000137556,2366.985000000568],"keys_pressed":["rightarrow","leftarrow","rightarrow","rightarrow","rightarrow"],"horizon":5,"forced_choices":["rightarrow","leftarrow","rightarrow","rightarrow"],"right_color":"orange","left_color":"lightblue","left_mu":40,"right_mu":28,"left_numbers":[39,35,42,31,44],"right_numbers":[17,28,36,29,19],"points_earned":136,"trial_type":"horizons-task","trial_index":73,"time_elapsed":509274,"internal_node_id":"0.0-69.0"},{"response_times":[486.67500002193265,68.57999999192543,758.5799999942537,101.19499999564141,748.8149999990128,83.34500002092682,930.4899999988265,131.76499999826774,155.89499997440726,133.23000000673346],"keys_pressed":["rightarrow","leftarrow","leftarrow","rightarrow","rightarrow","leftarrow","rightarrow","rightarrow","rightarrow","rightarrow"],"horizon":10,"forced_choices":["rightarrow","leftarrow","leftarrow","rightarrow"],"right_color":"lightblue","left_color":"orange","left_mu":40,"right_mu":44,"left_numbers":[29,47,50,27,31,34,26,25,25,30],"right_numbers":[46,44,34,42,38,41,30,45,48,41],"points_earned":421,"trial_type":"horizons-task","trial_index":74,"time_elapsed":514383,"internal_node_id":"0.0-70.0"},{"response_times":[476.5100000076927,98.57999999076128,729.04499998549,523.1700000003912,538.0149999982677,120.10500000906177,136.87000001664273,141.0500000056345,134.32499999180436,132.2199999995064],"keys_pressed":["rightarrow","leftarrow","leftarrow","leftarrow","leftarrow","leftarrow","leftarrow","leftarrow","leftarrow","leftarrow"],"horizon":10,"forced_choices":["rightarrow","leftarrow","leftarrow","leftarrow"],"right_color":"orange","left_color":"lightblue","left_mu":60,"right_mu":48,"left_numbers":[70,79,60,56,58,71,63,51,53,40],"right_numbers":[56,28,41,55,56,47,34,49,46,48],"points_earned":587,"trial_type":"horizons-task","trial_index":75,"time_elapsed":518919,"internal_node_id":"0.0-71.0"},{"response_times":[487.0900000096299,383.140000019921,701.1150000034831,791.0700000065845,304.89500000840053,682.7850000117905,138.24500000919215,145.699999993667,146.00500001688488,136.6799999959767],"keys_pressed":["rightarrow","rightarrow","leftarrow","leftarrow","rightarrow","rightarrow","rightarrow","rightarrow","rightarrow","rightarrow"],"horizon":10,"forced_choices":["rightarrow","rightarrow","leftarrow","leftarrow"],"right_color":"lightblue","left_color":"orange","left_mu":40,"right_mu":44,"left_numbers":[43,33,31,51,27,44,57,46,39,42],"right_numbers":[67,32,39,38,50,44,59,51,42,36],"points_earned":463,"trial_type":"horizons-task","trial_index":76,"time_elapsed":524344,"internal_node_id":"0.0-72.0"},{"response_times":[572.8900000103749,303.97000000812113,614.6999999764375,575.8700000005774,344.79999999166466],"keys_pressed":["leftarrow","leftarrow","rightarrow","rightarrow","rightarrow"],"horizon":5,"forced_choices":["leftarrow","leftarrow","rightarrow","rightarrow"],"right_color":"orange","left_color":"lightblue","left_mu":60,"right_mu":90,"left_numbers":[72,57,48,62,64],"right_numbers":[77,93,97,99,105],"points_earned":430,"trial_type":"horizons-task","trial_index":77,"time_elapsed":528265,"internal_node_id":"0.0-73.0"},{"response_times":[497.81000000075437,400.435000017751,688.5100000072271,138.71499997912906,641.8000000121538,137.04999999026768,158.77499998896383,148.765000019921,158.86999998474494,142.18999998411164],"keys_pressed":["rightarrow","rightarrow","leftarrow","rightarrow","rightarrow","rightarrow","rightarrow","rightarrow","rightarrow","rightarrow"],"horizon":10,"forced_choices":["rightarrow","rightarrow","leftarrow","rightarrow"],"right_color":"orange","left_color":"lightblue","left_mu":60,"right_mu":64,"left_numbers":[59,44,55,49,64,58,50,54,66,55],"right_numbers":[72,63,64,53,64,65,76,62,63,42],"points_earned":615,"trial_type":"horizons-task","trial_index":78,"time_elapsed":532890,"internal_node_id":"0.0-74.0"},{"response_times":[877.9949999880046,393.404999980703,997.7800000051502,487.0449999871198,403.27999999863096],"keys_pressed":["rightarrow","rightarrow","leftarrow","leftarrow","leftarrow"],"horizon":5,"forced_choices":["rightarrow","rightarrow","leftarrow","leftarrow"],"right_color":"lightblue","left_color":"orange","left_mu":40,"right_mu":20,"left_numbers":[30,57,45,50,39],"right_numbers":[25,14,17,22,23],"points_earned":173,"trial_type":"horizons-task","trial_index":79,"time_elapsed":537558,"internal_node_id":"0.0-75.0"},{"response_times":[444.13999997777864,140.9799999964889,653.9399999892339,130.18999999621883,478.64499999559484],"keys_pressed":["leftarrow","rightarrow","leftarrow","rightarrow","leftarrow"],"horizon":5,"forced_choices":["leftarrow","rightarrow","leftarrow","rightarrow"],"right_color":"lightblue","left_color":"orange","left_mu":40,"right_mu":10,"left_numbers":[33,37,29,39,35],"right_numbers":[8,12,7,3,16],"points_earned":112,"trial_type":"horizons-task","trial_index":80,"time_elapsed":540909,"internal_node_id":"0.0-76.0"},{"response_times":[503.76500000129454,71.12000000779517,823.8800000108313,82.76499999919906,861.3400000031106],"keys_pressed":["rightarrow","leftarrow","leftarrow","rightarrow","leftarrow"],"horizon":5,"forced_choices":["rightarrow","leftarrow","leftarrow","rightarrow"],"right_color":"orange","left_color":"lightblue","left_mu":40,"right_mu":36,"left_numbers":[29,38,42,49,44],"right_numbers":[42,28,27,20,44],"points_earned":186,"trial_type":"horizons-task","trial_index":81,"time_elapsed":544761,"internal_node_id":"0.0-77.0"},{"response_times":[490.41500000748783,429.7799999767449,125.0399999844376,768.5899999924004,86.16000000620261,568.8650000083726,125.54999999701977,141.44500001566485,140.43500000843778,138.92999998643063],"keys_pressed":["leftarrow","leftarrow","rightarrow","leftarrow","rightarrow","leftarrow","leftarrow","leftarrow","leftarrow","leftarrow"],"horizon":10,"forced_choices":["leftarrow","leftarrow","rightarrow","leftarrow"],"right_color":"orange","left_color":"lightblue","left_mu":40,"right_mu":28,"left_numbers":[40,39,41,47,33,37,34,33,49,25],"right_numbers":[45,19,33,16,38,20,43,40,30,33],"points_earned":375,"trial_type":"horizons-task","trial_index":82,"time_elapsed":549282,"internal_node_id":"0.0-78.0"},{"response_times":[397.0549999794457,89.30500000133179,721.4399999938905,93.6750000109896,674.2099999974016,128.3699999912642,153.16999997594394,161.919999984093,161.3950000028126,112.75499998009764],"keys_pressed":["leftarrow","rightarrow","rightarrow","leftarrow","rightarrow","rightarrow","rightarrow","rightarrow","rightarrow","rightarrow"],"horizon":10,"forced_choices":["leftarrow","rightarrow","rightarrow","leftarrow"],"right_color":"lightblue","left_color":"orange","left_mu":60,"right_mu":68,"left_numbers":[62,46,68,56,64,70,44,58,60,45],"right_numbers":[43,68,71,67,55,73,67,81,66,61],"points_earned":660,"trial_type":"horizons-task","trial_index":83,"time_elapsed":553483,"internal_node_id":"0.0-79.0"},{"response_times":[517.4300000071526,110.19500001566485,768.7300000106916,497.8750000009313,467.9750000068452,1093.5499999905005,149.85999997588806,167.69999999087304,338.38500001002103,156.1550000042189],"keys_pressed":["leftarrow","rightarrow","rightarrow","rightarrow","rightarrow","rightarrow","rightarrow","rightarrow","rightarrow","rightarrow"],"horizon":10,"forced_choices":["leftarrow","rightarrow","rightarrow","rightarrow"],"right_color":"lightblue","left_color":"orange","left_mu":60,"right_mu":68,"left_numbers":[58,63,59,67,55,56,69,66,56,65],"right_numbers":[59,60,66,66,71,69,71,77,60,54],"points_earned":652,"trial_type":"horizons-task","trial_index":84,"time_elapsed":559261,"internal_node_id":"0.0-80.0"},{"response_times":[446.07500001438893,481.6900000150781,898.7100000085775,705.8200000028592,162.27000000071712],"keys_pressed":["rightarrow","rightarrow","leftarrow","rightarrow","leftarrow"],"horizon":5,"forced_choices":["rightarrow","rightarrow","leftarrow","rightarrow"],"right_color":"lightblue","left_color":"orange","left_mu":60,"right_mu":30,"left_numbers":[62,60,53,62,56],"right_numbers":[36,25,21,25,12],"points_earned":195,"trial_type":"horizons-task","trial_index":85,"time_elapsed":563463,"internal_node_id":"0.0-81.0"},{"response_times":[611.1800000071526,146.069999987958,757.8750000102445,95.02000000793487,704.9699999915902,920.3249999845866,139.290000020992,139.82000001124106,131.98499998543411,129.849999997532],"keys_pressed":["rightarrow","leftarrow","rightarrow","leftarrow","leftarrow","leftarrow","leftarrow","leftarrow","leftarrow","leftarrow"],"horizon":10,"forced_choices":["rightarrow","leftarrow","rightarrow","leftarrow"],"right_color":"lightblue","left_color":"orange","left_mu":60,"right_mu":40,"left_numbers":[78,68,71,53,66,58,60,66,65,48],"right_numbers":[36,54,42,64,59,52,38,29,36,42],"points_earned":562,"trial_type":"horizons-task","trial_index":86,"time_elapsed":568747,"internal_node_id":"0.0-82.0"},{"response_times":[383.9950000110548,112.6300000178162,777.990000002319,132.6499999850057,544.8949999990873,172.28500000783242,167.170000000624,148.27999999397434,180.6849999993574,95.19999998155981],"keys_pressed":["rightarrow","leftarrow","leftarrow","rightarrow","rightarrow","rightarrow","rightarrow","rightarrow","rightarrow","rightarrow"],"horizon":10,"forced_choices":["rightarrow","leftarrow","leftarrow","rightarrow"],"right_color":"orange","left_color":"lightblue","left_mu":60,"right_mu":72,"left_numbers":[57,61,50,50,64,55,56,56,60,74],"right_numbers":[83,82,75,67,69,73,73,64,41,72],"points_earned":653,"trial_type":"horizons-task","trial_index":87,"time_elapsed":572967,"internal_node_id":"0.0-83.0"},{"response_times":[509.41999998758547,141.08000000123866,936.9250000163447,35.540000011678785,635.9700000029989],"keys_pressed":["leftarrow","rightarrow","leftarrow","rightarrow","rightarrow"],"horizon":5,"forced_choices":["leftarrow","rightarrow","leftarrow","rightarrow"],"right_color":"orange","left_color":"lightblue","left_mu":40,"right_mu":48,"left_numbers":[37,55,57,42,46],"right_numbers":[47,52,37,46,57],"points_earned":249,"trial_type":"horizons-task","trial_index":88,"time_elapsed":576729,"internal_node_id":"0.0-84.0"},{"response_times":[423.8400000031106,796.3500000187196,565.0500000047032,384.74500001757406,123.67499998072162],"keys_pressed":["rightarrow","rightarrow","rightarrow","leftarrow","leftarrow"],"horizon":5,"forced_choices":["rightarrow","rightarrow","rightarrow","leftarrow"],"right_color":"orange","left_color":"lightblue","left_mu":40,"right_mu":28,"left_numbers":[36,33,26,50,43],"right_numbers":[16,20,24,22,19],"points_earned":153,"trial_type":"horizons-task","trial_index":89,"time_elapsed":580533,"internal_node_id":"0.0-85.0"},{"rt":11660.050000005867,"responses":{"age":"25","gender-categorical":"Male","gender-free-response":"","ethnicity":"Not Hispanic or Latino","race":["Asian"],"language":"Yes","fluency":"Very well"},"survey":"demographics","trial_type":"survey-demo","trial_index":90,"time_elapsed":592193,"internal_node_id":"0.0-86.0"},{"rt":29490.145000017947,"responses":{"difficulty":"5","fun":"5","clarity":"5","strategy":"Tried to look at which one's had bigger values before making my choice","feedback":""},"survey":"debrief","trial_type":"survey-debrief","trial_index":91,"time_elapsed":621694,"internal_node_id":"0.0-87.0","interactions":"[]"}]