[{"view_history":"[{\"page_index\":0,\"viewing_time\":4617.50499997288}]","rt":4619.380000047386,"trial_type":"instructions","trial_index":0,"time_elapsed":4623,"internal_node_id":"0.0-0.0"},{"item_order":[3,5,6,12,8,11,0,7,4,9,10,1,2],"responses":{"Q04":"3","Q06":"3","Q07":"2","Q13":"4","Q09":"1","Q12":"1","Q01":"1","Q08":"2","Q05":"1","Q10":"1","Q11":"4","Q02":"3","Q03":"2"},"radio_events":[5146.124999970198,8685.289999935776,11382.385000120848,15963.970000157133,18096.82000009343,20494.15499996394,22172.40500007756,24586.95000014268,26152.849999954924,27945.880000013858,28852.47500007972,31310.25500013493,33286.0600000713,34969.42500001751],"key_events":[],"mouse_events":[36.115000024437904,5146.124999970198,7560.305000049993,8685.289999935776,11382.385000120848,15963.970000157133,18096.82000009343,20494.15499996394,22172.40500007756,24586.95000014268,26152.849999954924,27945.880000013858,28419.750000117347,28852.47500007972,31310.25500013493,33286.0600000713,34969.42500001751,35746.70000001788],"rt":35754.7800000757,"survey":"ius12","trial_type":"survey-template","trial_index":1,"time_elapsed":40387,"internal_node_id":"0.0-1.0"},{"item_order":[3,8,0,16,14,2,11,6,12,5,15,13,4,1,10,9,7],"responses":{"Q04":"3","Q09":"3","Q01":"3","Q17":"0","Q15":"2","Q03":"4","Q12":"3","Q07":"2","Q13":"2","Q06":"3","Q16":"3","Q14":"2","Q05":"3","Q02":"3","Q11":"1","Q10":"4","Q08":"3"},"radio_events":[3015.8200000878423,4842.699999921024,9757.459999993443,10519.614999881014,12564.000000013039,15314.42499998957,17274.290000088513,21097.24500006996,22296.82999989018,23970.710000023246,25792.355000041425,27544.66999997385,29031.33499994874,32606.224999995902,33186.495000030845,34604.71000010148,38529.06499989331,39635.79500000924,43486.70000000857],"key_events":[],"mouse_events":[2758.8150000665337,3015.8200000878423,4842.699999921024,8826.725000049919,9757.459999993443,10519.614999881014,12564.000000013039,13989.860000088811,15314.42499998957,17274.290000088513,19843.89999997802,21097.24500006996,21759.2949999962,22296.82999989018,23970.710000023246,25792.355000041425,27544.66999997385,29031.33499994874,30654.080000007525,32606.224999995902,33186.495000030845,34604.71000010148,38529.06499989331,39635.79500000924,43486.70000000857,44231.804999988526],"rt":44241.394999902695,"survey":"pswq","trial_type":"survey-template","trial_index":2,"time_elapsed":84644,"internal_node_id":"0.0-2.0"},{"view_history":"[{\"page_index\":0,\"viewing_time\":1710.969999898225},{\"page_index\":1,\"viewing_time\":4433.669999940321},{\"page_index\":2,\"viewing_time\":11056.055000051856},{\"page_index\":3,\"viewing_time\":5445.10000012815},{\"page_index\":4,\"viewing_time\":5196.890000021085},{\"page_index\":5,\"viewing_time\":2306.7699999082834},{\"page_index\":6,\"viewing_time\":3951.9100000616163},{\"page_index\":7,\"viewing_time\":4849.900000030175},{\"page_index\":8,\"viewing_time\":5527.284999843687},{\"page_index\":9,\"viewing_time\":4679.680000059307}]","rt":49162.61999984272,"trial_type":"instructions","trial_index":3,"time_elapsed":133821,"internal_node_id":"0.0-3.0-0.0"},{"response_times":[1425.8149999659508,1106.764999916777,770.2099999878556,1034.7049999982119,1195.134999928996],"keys_pressed":["rightarrow","leftarrow","rightarrow","rightarrow","leftarrow"],"horizon":5,"forced_choices":["rightarrow","leftarrow","rightarrow","rightarrow"],"right_color":"lightblue","left_color":"orange","left_mu":40,"right_mu":20,"left_numbers":[28,37,42,44,48],"right_numbers":[16,28,21,7,21],"points_earned":129,"trial_type":"horizons-task","trial_index":4,"time_elapsed":140978,"internal_node_id":"0.0-3.0-1.0"},{"response_times":[1930.2749999333173,728.4000001382083,777.7350000105798,857.6699998229742,1635.1000000722706,2427.5050000287592,1449.3400000501424,886.2350000999868,712.3549999669194,539.4299998879433],"keys_pressed":["leftarrow","leftarrow","rightarrow","rightarrow","rightarrow","leftarrow","rightarrow","rightarrow","rightarrow","rightarrow"],"horizon":10,"forced_choices":["leftarrow","leftarrow","rightarrow","rightarrow"],"right_color":"orange","left_color":"lightblue","left_mu":60,"right_mu":70,"left_numbers":[65,41,61,64,42,58,52,54,64,64],"right_numbers":[75,59,71,82,70,73,86,71,64,60],"points_earned":668,"trial_type":"horizons-task","trial_index":5,"time_elapsed":154429,"internal_node_id":"0.0-3.0-2.0"},{"view_history":"[{\"page_index\":0,\"viewing_time\":2369.535000063479},{\"page_index\":1,\"viewing_time\":2121.515000006184},{\"page_index\":2,\"viewing_time\":1457.8750000800937},{\"page_index\":3,\"viewing_time\":136.10499980859458}]","rt":6085.510000120848,"trial_type":"instructions","trial_index":6,"time_elapsed":160516,"internal_node_id":"0.0-3.0-3.0"},{"responses":["true","false","false","true"],"num_errors":0,"rt":10551.929999841377,"trial_type":"horizons-comprehension","trial_index":7,"time_elapsed":171073,"internal_node_id":"0.0-3.0-4.0"},{"view_history":"[{\"page_index\":0,\"viewing_time\":1037.8299998119473},{\"page_index\":1,\"viewing_time\":2513.35999998264}]","rt":3552.3049999028444,"trial_type":"instructions","trial_index":8,"time_elapsed":174630,"internal_node_id":"0.0-4.0"},{"response_times":[731.0450000222772,1630.9199999086559,1327.5699999649078,1304.9349999055266,1197.7049999404699,960.2399999275804,775.2799999434501,1121.640000026673,686.8650000542402,687.9199999384582],"keys_pressed":["rightarrow","rightarrow","leftarrow","leftarrow","rightarrow","leftarrow","rightarrow","rightarrow","rightarrow","rightarrow"],"horizon":10,"forced_choices":["rightarrow","rightarrow","leftarrow","leftarrow"],"right_color":"orange","left_color":"lightblue","left_mu":40,"right_mu":70,"left_numbers":[42,52,41,39,38,45,27,35,37,45],"right_numbers":[76,67,74,61,73,68,69,68,68,96],"points_earned":642,"trial_type":"horizons-task","trial_index":9,"time_elapsed":186592,"internal_node_id":"0.0-5.0"},{"response_times":[745.3949998598546,509.71500016748905,932.2549998760223,760.6949999462813,3254.6250000596046],"keys_pressed":["rightarrow","leftarrow","leftarrow","rightarrow","leftarrow"],"horizon":5,"forced_choices":["rightarrow","leftarrow","leftarrow","rightarrow"],"right_color":"orange","left_color":"lightblue","left_mu":40,"right_mu":32,"left_numbers":[35,38,47,44,34],"right_numbers":[44,30,49,25,38],"points_earned":188,"trial_type":"horizons-task","trial_index":10,"time_elapsed":194302,"internal_node_id":"0.0-6.0"},{"response_times":[591.855000006035,452.70499982871115,561.6249998565763,1120.325000025332,1476.8650000914931,670.1500001363456,626.0750000365078,1434.5050000119954,526.1899998877198,478.025000076741],"keys_pressed":["rightarrow","leftarrow","leftarrow","leftarrow","rightarrow","rightarrow","rightarrow","rightarrow","rightarrow","rightarrow"],"horizon":10,"forced_choices":["rightarrow","leftarrow","leftarrow","leftarrow"],"right_color":"lightblue","left_color":"orange","left_mu":60,"right_mu":90,"left_numbers":[66,73,70,59,70,54,56,61,68,52],"right_numbers":[92,94,100,73,103,85,85,87,83,83],"points_earned":820,"trial_type":"horizons-task","trial_index":11,"time_elapsed":203760,"internal_node_id":"0.0-7.0"},{"response_times":[477.2700001485646,616.2900000344962,517.564999870956,473.81999995559454,1450.96500008367,861.3749998621643,365.69999996572733,446.95000001229346,375.9850000496954,424.4649999309331],"keys_pressed":["leftarrow","leftarrow","rightarrow","rightarrow","rightarrow","leftarrow","rightarrow","rightarrow","rightarrow","rightarrow"],"horizon":10,"forced_choices":["leftarrow","leftarrow","rightarrow","rightarrow"],"right_color":"orange","left_color":"lightblue","left_mu":60,"right_mu":64,"left_numbers":[58,54,54,56,55,53,61,55,71,65],"right_numbers":[62,73,71,66,76,50,74,78,67,64],"points_earned":661,"trial_type":"horizons-task","trial_index":12,"time_elapsed":211274,"internal_node_id":"0.0-8.0"},{"response_times":[515.6849999912083,405.6700000073761,461.8949999567121,462.0900000445545,1396.2349998764694,564.0049998182803,399.57499993033707,432.26000014692545,457.9499999526888,404.31999997235835],"keys_pressed":["rightarrow","leftarrow","rightarrow","leftarrow","leftarrow","rightarrow","leftarrow","leftarrow","leftarrow","leftarrow"],"horizon":10,"forced_choices":["rightarrow","leftarrow","rightarrow","leftarrow"],"right_color":"orange","left_color":"lightblue","left_mu":40,"right_mu":32,"left_numbers":[36,51,34,40,39,39,37,36,44,36],"right_numbers":[36,29,21,32,26,18,36,37,23,20],"points_earned":358,"trial_type":"horizons-task","trial_index":13,"time_elapsed":218280,"internal_node_id":"0.0-9.0"},{"response_times":[647.8500000666827,556.8649999331683,1013.3450001012534,548.2600000686944,1680.204999865964],"keys_pressed":["rightarrow","rightarrow","rightarrow","leftarrow","leftarrow"],"horizon":5,"forced_choices":["rightarrow","rightarrow","rightarrow","leftarrow"],"right_color":"lightblue","left_color":"orange","left_mu":60,"right_mu":56,"left_numbers":[63,54,58,72,42],"right_numbers":[68,45,51,34,43],"points_earned":278,"trial_type":"horizons-task","trial_index":14,"time_elapsed":224235,"internal_node_id":"0.0-10.0"},{"response_times":[519.459999864921,459.60000017657876,615.3299999423325,685.7549999840558,928.5249998793006,970.2700001653284,874.2199998814613,308.7499998509884,670.0899999123067,393.04999983869493],"keys_pressed":["rightarrow","leftarrow","leftarrow","leftarrow","rightarrow","rightarrow","leftarrow","rightarrow","rightarrow","rightarrow"],"horizon":10,"forced_choices":["rightarrow","leftarrow","leftarrow","leftarrow"],"right_color":"lightblue","left_color":"orange","left_mu":60,"right_mu":72,"left_numbers":[59,70,72,66,58,54,72,60,61,65],"right_numbers":[78,60,61,93,74,74,82,82,60,76],"points_earned":724,"trial_type":"horizons-task","trial_index":15,"time_elapsed":232176,"internal_node_id":"0.0-11.0"},{"response_times":[822.5300000049174,724.1950000170618,802.8049999848008,3006.1899998690933,1155.7849999517202,444.12999995984137,392.51499995589256,492.09999991580844,340.68500017747283,300.1999999396503],"keys_pressed":["rightarrow","rightarrow","leftarrow","leftarrow","leftarrow","rightarrow","leftarrow","leftarrow","leftarrow","leftarrow"],"horizon":10,"forced_choices":["rightarrow","rightarrow","leftarrow","leftarrow"],"right_color":"lightblue","left_color":"orange","left_mu":40,"right_mu":28,"left_numbers":[37,30,34,49,41,40,63,42,45,36],"right_numbers":[18,14,22,15,34,33,25,26,22,41],"points_earned":375,"trial_type":"horizons-task","trial_index":16,"time_elapsed":242175,"internal_node_id":"0.0-12.0"},{"response_times":[510.49500005319715,347.50499995425344,399.9699999112636,646.32000005804,1119.440000038594,665.6400000210851,241.7000001296401,1094.760000007227,411.5599999204278,389.86500003375113],"keys_pressed":["leftarrow","rightarrow","leftarrow","rightarrow","leftarrow","rightarrow","leftarrow","leftarrow","leftarrow","leftarrow"],"horizon":10,"forced_choices":["leftarrow","rightarrow","leftarrow","rightarrow"],"right_color":"orange","left_color":"lightblue","left_mu":60,"right_mu":40,"left_numbers":[58,66,64,57,66,53,68,55,61,60],"right_numbers":[21,41,38,38,46,55,45,59,43,27],"points_earned":566,"trial_type":"horizons-task","trial_index":17,"time_elapsed":249508,"internal_node_id":"0.0-13.0"},{"response_times":[528.4000001847744,318.3250001166016,547.8300000540912,438.01499996334314,1004.8399998340756],"keys_pressed":["rightarrow","leftarrow","leftarrow","rightarrow","leftarrow"],"horizon":5,"forced_choices":["rightarrow","leftarrow","leftarrow","rightarrow"],"right_color":"orange","left_color":"lightblue","left_mu":40,"right_mu":20,"left_numbers":[35,28,52,42,58],"right_numbers":[13,7,8,28,24],"points_earned":179,"trial_type":"horizons-task","trial_index":18,"time_elapsed":253850,"internal_node_id":"0.0-14.0"},{"response_times":[649.9499999918044,556.4400001894683,528.5650000441819,402.4300000164658,1322.6699999067932,924.3850000202656,343.4399999678135,387.5449998304248,303.8650001399219,344.539999961853],"keys_pressed":["leftarrow","leftarrow","rightarrow","rightarrow","rightarrow","leftarrow","rightarrow","rightarrow","rightarrow","rightarrow"],"horizon":10,"forced_choices":["leftarrow","leftarrow","rightarrow","rightarrow"],"right_color":"lightblue","left_color":"orange","left_mu":40,"right_mu":48,"left_numbers":[43,30,30,38,39,36,40,34,40,45],"right_numbers":[43,54,54,50,46,40,43,43,55,41],"points_earned":441,"trial_type":"horizons-task","trial_index":19,"time_elapsed":261119,"internal_node_id":"0.0-15.0"},{"response_times":[370.94499985687435,253.77000006847084,743.8949998468161,738.7049999088049,1418.9900001510978,1020.0900000054389,237.13500006124377,765.9799999091774,656.2549998052418,488.52499993517995],"keys_pressed":["rightarrow","leftarrow","leftarrow","leftarrow","rightarrow","leftarrow","rightarrow","rightarrow","leftarrow","rightarrow"],"horizon":10,"forced_choices":["rightarrow","leftarrow","leftarrow","leftarrow"],"right_color":"orange","left_color":"lightblue","left_mu":60,"right_mu":56,"left_numbers":[59,56,52,55,68,62,71,51,57,72],"right_numbers":[86,71,54,64,60,47,47,53,59,72],"points_earned":600,"trial_type":"horizons-task","trial_index":20,"time_elapsed":269319,"internal_node_id":"0.0-16.0"},{"response_times":[748.2199999503791,528.1100000720471,634.3549999874085,540.5050001572818,427.64999996870756],"keys_pressed":["leftarrow","leftarrow","rightarrow","leftarrow","leftarrow"],"horizon":5,"forced_choices":["leftarrow","leftarrow","rightarrow","leftarrow"],"right_color":"orange","left_color":"lightblue","left_mu":60,"right_mu":48,"left_numbers":[61,66,63,77,59],"right_numbers":[49,42,45,49,53],"points_earned":308,"trial_type":"horizons-task","trial_index":21,"time_elapsed":273703,"internal_node_id":"0.0-17.0"},{"response_times":[495.1100000180304,492.2050000168383,557.9500000458211,1130.2600000053644,773.2449998147786,1260.679999832064,656.9700001273304,1053.214999847114,352.5249999947846,332.83500000834465],"keys_pressed":["rightarrow","rightarrow","rightarrow","leftarrow","leftarrow","leftarrow","leftarrow","leftarrow","leftarrow","leftarrow"],"horizon":10,"forced_choices":["rightarrow","rightarrow","rightarrow","leftarrow"],"right_color":"lightblue","left_color":"orange","left_mu":60,"right_mu":40,"left_numbers":[48,57,58,55,62,59,63,45,58,69],"right_numbers":[46,50,42,34,31,46,45,37,34,41],"points_earned":549,"trial_type":"horizons-task","trial_index":22,"time_elapsed":282313,"internal_node_id":"0.0-18.0"},{"response_times":[445.03000006079674,1260.8099998906255,926.5199999790639,767.3700000159442,1068.4899999760091],"keys_pressed":["rightarrow","leftarrow","leftarrow","rightarrow","rightarrow"],"horizon":5,"forced_choices":["rightarrow","leftarrow","leftarrow","rightarrow"],"right_color":"lightblue","left_color":"orange","left_mu":60,"right_mu":72,"left_numbers":[59,72,61,59,51],"right_numbers":[63,88,82,80,65],"points_earned":341,"trial_type":"horizons-task","trial_index":23,"time_elapsed":288285,"internal_node_id":"0.0-19.0"},{"response_times":[666.620000032708,522.1400000154972,505.0650001503527,855.2600000984967,3007.884999969974,901.8399999476969,724.6850000228733,464.64499994181097,660.6349998619407,480.3249998949468],"keys_pressed":["rightarrow","leftarrow","leftarrow","rightarrow","leftarrow","rightarrow","rightarrow","rightarrow","rightarrow","rightarrow"],"horizon":10,"forced_choices":["rightarrow","leftarrow","leftarrow","rightarrow"],"right_color":"orange","left_color":"lightblue","left_mu":40,"right_mu":70,"left_numbers":[48,41,50,30,36,48,34,47,40,39],"right_numbers":[46,86,81,80,70,59,74,68,71,66],"points_earned":591,"trial_type":"horizons-task","trial_index":24,"time_elapsed":298581,"internal_node_id":"0.0-20.0"},{"response_times":[1648.31000007689,839.5399998407811,376.40000018291175,519.3650000728667,362.7800000831485],"keys_pressed":["rightarrow","leftarrow","rightarrow","rightarrow","rightarrow"],"horizon":5,"forced_choices":["rightarrow","leftarrow","rightarrow","rightarrow"],"right_color":"lightblue","left_color":"orange","left_mu":40,"right_mu":70,"left_numbers":[45,35,35,39,29],"right_numbers":[75,58,73,77,65],"points_earned":325,"trial_type":"horizons-task","trial_index":25,"time_elapsed":303833,"internal_node_id":"0.0-21.0"},{"response_times":[467.59000001475215,523.9299999084324,437.9950000438839,860.7750001829118,531.9549997802824],"keys_pressed":["leftarrow","leftarrow","rightarrow","rightarrow","rightarrow"],"horizon":5,"forced_choices":["leftarrow","leftarrow","rightarrow","rightarrow"],"right_color":"orange","left_color":"lightblue","left_mu":40,"right_mu":70,"left_numbers":[29,42,42,37,41],"right_numbers":[73,76,64,82,57],"points_earned":274,"trial_type":"horizons-task","trial_index":26,"time_elapsed":308160,"internal_node_id":"0.0-22.0"},{"response_times":[517.6149997860193,570.4950001090765,487.4150000978261,747.0949999988079,2857.414999976754],"keys_pressed":["leftarrow","rightarrow","leftarrow","rightarrow","leftarrow"],"horizon":5,"forced_choices":["leftarrow","rightarrow","leftarrow","rightarrow"],"right_color":"orange","left_color":"lightblue","left_mu":60,"right_mu":52,"left_numbers":[51,64,62,57,78],"right_numbers":[62,46,57,59,47],"points_earned":296,"trial_type":"horizons-task","trial_index":27,"time_elapsed":314845,"internal_node_id":"0.0-23.0"},{"response_times":[469.16499990038574,360.4200000409037,473.2600001152605,524.4350000284612,427.64500016346574,788.6299998499453,537.0350000448525,323.7149999476969,383.03499994799495,325.5300000309944],"keys_pressed":["rightarrow","leftarrow","leftarrow","leftarrow","rightarrow","rightarrow","leftarrow","rightarrow","rightarrow","rightarrow"],"horizon":10,"forced_choices":["rightarrow","leftarrow","leftarrow","leftarrow"],"right_color":"orange","left_color":"lightblue","left_mu":40,"right_mu":52,"left_numbers":[35,33,36,46,25,41,37,43,37,34],"right_numbers":[49,48,70,45,60,45,45,51,54,50],"points_earned":461,"trial_type":"horizons-task","trial_index":28,"time_elapsed":320963,"internal_node_id":"0.0-24.0"},{"response_times":[806.3850000035018,311.5350001025945,593.8150000292808,462.4199999962002,781.1000000219792,683.5349998436868,404.11000000312924,478.8849998731166,449.99999995343387,542.9499999154359],"keys_pressed":["rightarrow","leftarrow","rightarrow","leftarrow","leftarrow","leftarrow","rightarrow","leftarrow","rightarrow","rightarrow"],"horizon":10,"forced_choices":["rightarrow","leftarrow","rightarrow","leftarrow"],"right_color":"lightblue","left_color":"orange","left_mu":60,"right_mu":64,"left_numbers":[65,74,70,65,60,51,59,59,45,63],"right_numbers":[60,71,46,62,65,54,63,50,73,73],"points_earned":624,"trial_type":"horizons-task","trial_index":29,"time_elapsed":327985,"internal_node_id":"0.0-25.0"},{"response_times":[361.3799999002367,621.0900000296533,325.7400000002235,546.3949998375028,490.92000001110137],"keys_pressed":["leftarrow","leftarrow","rightarrow","leftarrow","leftarrow"],"horizon":5,"forced_choices":["leftarrow","leftarrow","rightarrow","leftarrow"],"right_color":"lightblue","left_color":"orange","left_mu":40,"right_mu":10,"left_numbers":[37,30,38,39,47],"right_numbers":[8,4,8,17,13],"points_earned":161,"trial_type":"horizons-task","trial_index":30,"time_elapsed":331835,"internal_node_id":"0.0-26.0"},{"response_times":[465.7099999021739,566.9700000435114,541.6600001044571,460.4599999729544,578.3499998506159],"keys_pressed":["rightarrow","rightarrow","rightarrow","leftarrow","leftarrow"],"horizon":5,"forced_choices":["rightarrow","rightarrow","rightarrow","leftarrow"],"right_color":"lightblue","left_color":"orange","left_mu":40,"right_mu":32,"left_numbers":[37,36,41,45,47],"right_numbers":[29,20,35,23,26],"points_earned":176,"trial_type":"horizons-task","trial_index":31,"time_elapsed":335968,"internal_node_id":"0.0-27.0"},{"response_times":[477.96500008553267,541.9550000224262,497.13000003248453,934.5650000032037,337.5649999361485,840.7650000881404,428.7749999202788,381.8300000857562,301.90499988384545,377.47499998658895],"keys_pressed":["rightarrow","rightarrow","leftarrow","rightarrow","leftarrow","rightarrow","leftarrow","leftarrow","leftarrow","leftarrow"],"horizon":10,"forced_choices":["rightarrow","rightarrow","leftarrow","rightarrow"],"right_color":"orange","left_color":"lightblue","left_mu":40,"right_mu":28,"left_numbers":[37,45,61,29,38,41,33,51,41,36],"right_numbers":[32,30,23,16,24,20,27,18,32,25],"points_earned":358,"trial_type":"horizons-task","trial_index":32,"time_elapsed":342595,"internal_node_id":"0.0-28.0"},{"response_times":[2204.5849999412894,408.9699999894947,635.2449997793883,558.0650002229959,770.4300000332296,357.5849998742342,350.40000011213124,362.70499997772276,335.14500013552606,480.77999986708164],"keys_pressed":["rightarrow","leftarrow","rightarrow","leftarrow","leftarrow","leftarrow","leftarrow","leftarrow","leftarrow","leftarrow"],"horizon":10,"forced_choices":["rightarrow","leftarrow","rightarrow","leftarrow"],"right_color":"orange","left_color":"lightblue","left_mu":60,"right_mu":40,"left_numbers":[72,56,55,68,54,65,61,56,57,66],"right_numbers":[32,41,50,40,31,36,41,46,43,53],"points_earned":565,"trial_type":"horizons-task","trial_index":33,"time_elapsed":350564,"internal_node_id":"0.0-29.0"},{"response_times":[503.4749999176711,532.4649999383837,808.8050000369549,367.88999987766147,493.36500000208616],"keys_pressed":["rightarrow","rightarrow","rightarrow","leftarrow","leftarrow"],"horizon":5,"forced_choices":["rightarrow","rightarrow","rightarrow","leftarrow"],"right_color":"lightblue","left_color":"orange","left_mu":40,"right_mu":32,"left_numbers":[33,35,39,41,41],"right_numbers":[31,27,24,28,35],"points_earned":164,"trial_type":"horizons-task","trial_index":34,"time_elapsed":354776,"internal_node_id":"0.0-30.0"},{"response_times":[851.130000082776,764.1000000294298,664.8349999450147,699.06000001356,1696.0799999069422,1367.1150000300258,1571.8599997926503,249.5399999897927,141.22499991208315,304.2149997781962],"keys_pressed":["rightarrow","rightarrow","leftarrow","rightarrow","rightarrow","rightarrow","rightarrow","rightarrow","rightarrow","rightarrow"],"horizon":10,"forced_choices":["rightarrow","rightarrow","leftarrow","rightarrow"],"right_color":"orange","left_color":"lightblue","left_mu":60,"right_mu":80,"left_numbers":[73,48,49,59,60,68,45,59,66,66],"right_numbers":[74,60,67,95,70,88,73,74,81,84],"points_earned":748,"trial_type":"horizons-task","trial_index":35,"time_elapsed":364593,"internal_node_id":"0.0-31.0"},{"response_times":[557.9599998891354,655.3499998990446,796.1200000718236,662.3249999247491,529.2749998625368,419.5350001100451,449.62000008672476,552.3600000888109,1482.8899998683482,390.3749999590218],"keys_pressed":["rightarrow","leftarrow","rightarrow","leftarrow","rightarrow","rightarrow","rightarrow","rightarrow","leftarrow","rightarrow"],"horizon":10,"forced_choices":["rightarrow","leftarrow","rightarrow","leftarrow"],"right_color":"orange","left_color":"lightblue","left_mu":60,"right_mu":64,"left_numbers":[47,54,53,55,73,58,67,66,50,57],"right_numbers":[65,68,56,74,61,62,72,60,62,69],"points_earned":604,"trial_type":"horizons-task","trial_index":36,"time_elapsed":372594,"internal_node_id":"0.0-32.0"},{"response_times":[1621.2599999271333,294.06999982893467,335.36000014282763,713.444999884814,643.4649999719113,480.9650001116097,327.7650000527501,130.62499999068677,239.2400000244379,364.6499998867512],"keys_pressed":["leftarrow","rightarrow","leftarrow","leftarrow","rightarrow","leftarrow","leftarrow","leftarrow","leftarrow","leftarrow"],"horizon":10,"forced_choices":["leftarrow","rightarrow","leftarrow","leftarrow"],"right_color":"orange","left_color":"lightblue","left_mu":60,"right_mu":30,"left_numbers":[72,67,58,70,58,52,61,61,49,60],"right_numbers":[28,25,50,12,15,23,24,30,39,22],"points_earned":523,"trial_type":"horizons-task","trial_index":37,"time_elapsed":379248,"internal_node_id":"0.0-33.0"},{"response_times":[540.1049999054521,302.9549999628216,670.3600001055747,621.9200000632554,611.9200000539422,632.4350000359118,405.144999967888,138.13499989919364,159.51499994844198,198.219999903813],"keys_pressed":["leftarrow","rightarrow","rightarrow","rightarrow","leftarrow","leftarrow","leftarrow","leftarrow","leftarrow","leftarrow"],"horizon":10,"forced_choices":["leftarrow","rightarrow","rightarrow","rightarrow"],"right_color":"orange","left_color":"lightblue","left_mu":60,"right_mu":40,"left_numbers":[62,50,59,67,56,55,61,56,44,56],"right_numbers":[71,45,36,30,53,35,44,44,39,54],"points_earned":501,"trial_type":"horizons-task","trial_index":38,"time_elapsed":385034,"internal_node_id":"0.0-34.0"},{"response_times":[410.2549999952316,301.31000000983477,386.3049999345094,894.7199999820441,2237.7800000831485],"keys_pressed":["leftarrow","rightarrow","leftarrow","leftarrow","leftarrow"],"horizon":5,"forced_choices":["leftarrow","rightarrow","leftarrow","leftarrow"],"right_color":"lightblue","left_color":"orange","left_mu":40,"right_mu":36,"left_numbers":[42,38,28,45,35],"right_numbers":[26,38,27,45,36],"points_earned":188,"trial_type":"horizons-task","trial_index":39,"time_elapsed":390772,"internal_node_id":"0.0-35.0"},{"response_times":[473.204999929294,694.1349999979138,435.12500007636845,586.525000166148,553.539999993518],"keys_pressed":["rightarrow","rightarrow","leftarrow","rightarrow","rightarrow"],"horizon":5,"forced_choices":["rightarrow","rightarrow","leftarrow","rightarrow"],"right_color":"lightblue","left_color":"orange","left_mu":60,"right_mu":90,"left_numbers":[72,52,61,56,76],"right_numbers":[85,92,76,96,86],"points_earned":420,"trial_type":"horizons-task","trial_index":40,"time_elapsed":395019,"internal_node_id":"0.0-36.0"},{"response_times":[375.99000008776784,300.8299998473376,564.1850000247359,822.6149999536574,1853.2250002026558],"keys_pressed":["rightarrow","leftarrow","leftarrow","leftarrow","leftarrow"],"horizon":5,"forced_choices":["rightarrow","leftarrow","leftarrow","leftarrow"],"right_color":"lightblue","left_color":"orange","left_mu":60,"right_mu":90,"left_numbers":[65,84,66,59,51],"right_numbers":[94,88,81,88,94],"points_earned":354,"trial_type":"horizons-task","trial_index":41,"time_elapsed":400440,"internal_node_id":"0.0-37.0"},{"response_times":[508.45000008121133,336.92999999038875,455.0900000613183,438.70999990031123,3118.4050000738353,476.6299999319017,3469.3799999076873,569.300000090152,746.9299999065697,368.7750000972301],"keys_pressed":["leftarrow","rightarrow","rightarrow","leftarrow","rightarrow","leftarrow","leftarrow","leftarrow","leftarrow","leftarrow"],"horizon":10,"forced_choices":["leftarrow","rightarrow","rightarrow","leftarrow"],"right_color":"orange","left_color":"lightblue","left_mu":40,"right_mu":44,"left_numbers":[55,39,33,47,44,36,49,35,48,36],"right_numbers":[43,48,51,44,31,41,33,46,41,49],"points_earned":436,"trial_type":"horizons-task","trial_index":42,"time_elapsed":412434,"internal_node_id":"0.0-38.0"},{"response_times":[492.82500008121133,604.1950001381338,520.4600000288337,621.9799998216331,785.0899999029934,513.4550000075251,166.05999995954335,144.39000003039837,124.41000016406178,1319.8550001252443],"keys_pressed":["leftarrow","leftarrow","rightarrow","rightarrow","rightarrow","rightarrow","rightarrow","rightarrow","rightarrow","rightarrow"],"horizon":10,"forced_choices":["leftarrow","leftarrow","rightarrow","rightarrow"],"right_color":"orange","left_color":"lightblue","left_mu":60,"right_mu":80,"left_numbers":[56,52,47,47,46,52,56,66,61,58],"right_numbers":[66,80,93,79,74,75,79,77,76,74],"points_earned":735,"trial_type":"horizons-task","trial_index":43,"time_elapsed":419233,"internal_node_id":"0.0-39.0"},{"response_times":[869.5000000298023,474.4449998252094,976.4900000300258,695.6699998117983,1095.3199998475611,655.2699999883771,629.810000071302,403.37000018917024,562.934999819845,3280.934999929741],"keys_pressed":["leftarrow","rightarrow","leftarrow","leftarrow","rightarrow","leftarrow","leftarrow","rightarrow","rightarrow","rightarrow"],"horizon":10,"forced_choices":["leftarrow","rightarrow","leftarrow","leftarrow"],"right_color":"lightblue","left_color":"orange","left_mu":40,"right_mu":36,"left_numbers":[42,32,30,35,30,49,19,40,37,39],"right_numbers":[40,37,30,54,35,44,40,38,31,47],"points_earned":363,"trial_type":"horizons-task","trial_index":44,"time_elapsed":430383,"internal_node_id":"0.0-40.0"},{"response_times":[388.94500001333654,412.67500002868474,521.1700000800192,751.6099999193102,574.3150000926107],"keys_pressed":["leftarrow","rightarrow","rightarrow","leftarrow","leftarrow"],"horizon":5,"forced_choices":["leftarrow","rightarrow","rightarrow","leftarrow"],"right_color":"orange","left_color":"lightblue","left_mu":60,"right_mu":40,"left_numbers":[60,55,53,58,65],"right_numbers":[46,53,44,35,43],"points_earned":280,"trial_type":"horizons-task","trial_index":45,"time_elapsed":434538,"internal_node_id":"0.0-41.0"},{"response_times":[429.36499998904765,482.94000001624227,398.3750001061708,422.1350001171231,606.740000192076],"keys_pressed":["rightarrow","rightarrow","leftarrow","leftarrow","rightarrow"],"horizon":5,"forced_choices":["rightarrow","rightarrow","leftarrow","leftarrow"],"right_color":"orange","left_color":"lightblue","left_mu":60,"right_mu":72,"left_numbers":[56,54,56,51,65],"right_numbers":[80,66,78,82,73],"points_earned":326,"trial_type":"horizons-task","trial_index":46,"time_elapsed":438382,"internal_node_id":"0.0-42.0"},{"response_times":[389.0849999152124,514.6349999122322,396.69499988667667,455.4000000935048,1364.8250000551343,670.1599999796599,390.4150000307709,289.3300000578165,145.01999993808568,132.86500005051494],"keys_pressed":["leftarrow","leftarrow","rightarrow","leftarrow","leftarrow","rightarrow","leftarrow","leftarrow","leftarrow","leftarrow"],"horizon":10,"forced_choices":["leftarrow","leftarrow","rightarrow","leftarrow"],"right_color":"lightblue","left_color":"orange","left_mu":60,"right_mu":48,"left_numbers":[59,64,71,64,56,64,59,62,65,61],"right_numbers":[46,61,52,60,50,29,42,56,53,56],"points_earned":571,"trial_type":"horizons-task","trial_index":47,"time_elapsed":444637,"internal_node_id":"0.0-43.0"},{"response_times":[439.49500005692244,462.72499999031425,399.82000016607344,533.15500007011,1193.324999883771],"keys_pressed":["rightarrow","rightarrow","leftarrow","rightarrow","rightarrow"],"horizon":5,"forced_choices":["rightarrow","rightarrow","leftarrow","rightarrow"],"right_color":"orange","left_color":"lightblue","left_mu":60,"right_mu":56,"left_numbers":[46,53,54,53,62],"right_numbers":[48,60,45,49,52],"points_earned":263,"trial_type":"horizons-task","trial_index":48,"time_elapsed":449171,"internal_node_id":"0.0-44.0"},{"view_history":"[{\"page_index\":0,\"viewing_time\":56598.17999997176},{\"page_index\":1,\"viewing_time\":1948.4250000678003}]","rt":58548.96500008181,"trial_type":"instructions","trial_index":49,"time_elapsed":507723,"internal_node_id":"0.0-45.0"},{"response_times":[943.5600000433624,502.8200000524521,343.59499998390675,771.2550000287592,264.98500001616776],"keys_pressed":["leftarrow","leftarrow","rightarrow","leftarrow","rightarrow"],"horizon":5,"forced_choices":["leftarrow","leftarrow","rightarrow","leftarrow"],"right_color":"lightblue","left_color":"orange","left_mu":40,"right_mu":60,"left_numbers":[31,40,36,44,44],"right_numbers":[61,64,39,60,52],"points_earned":206,"trial_type":"horizons-task","trial_index":50,"time_elapsed":512077,"internal_node_id":"0.0-46.0"},{"response_times":[710.4299999773502,416.9099999126047,467.07000001333654,675.359999993816,471.70999995432794,532.9299999866635,385.8949998393655,193.78499989397824,129.37500001862645,765.8750000409782],"keys_pressed":["rightarrow","leftarrow","leftarrow","leftarrow","rightarrow","rightarrow","rightarrow","rightarrow","rightarrow","rightarrow"],"horizon":10,"forced_choices":["rightarrow","leftarrow","leftarrow","leftarrow"],"right_color":"lightblue","left_color":"orange","left_mu":60,"right_mu":72,"left_numbers":[61,54,56,54,58,65,46,61,56,52],"right_numbers":[75,61,74,70,77,68,80,80,85,65],"points_earned":694,"trial_type":"horizons-task","trial_index":51,"time_elapsed":518332,"internal_node_id":"0.0-47.0"},{"response_times":[438.5149998124689,450.0449998304248,366.58999999053776,363.965000025928,1143.2100001256913,562.2099998872727,410.69499985314906,361.0249999910593,519.85999988392,294.3600001744926],"keys_pressed":["rightarrow","rightarrow","leftarrow","leftarrow","leftarrow","rightarrow","leftarrow","leftarrow","leftarrow","leftarrow"],"horizon":10,"forced_choices":["rightarrow","rightarrow","leftarrow","leftarrow"],"right_color":"lightblue","left_color":"orange","left_mu":60,"right_mu":30,"left_numbers":[63,63,57,47,44,61,41,61,55,58],"right_numbers":[46,27,41,26,29,34,31,44,21,19],"points_earned":470,"trial_type":"horizons-task","trial_index":52,"time_elapsed":524764,"internal_node_id":"0.0-48.0"},{"response_times":[433.85499995201826,348.8499999511987,891.6050000116229,376.7900001257658,393.26500007882714,138.89500009827316,226.7549999523908,154.94000003673136,322.3200000356883,264.7850001230836],"keys_pressed":["rightarrow","leftarrow","rightarrow","leftarrow","leftarrow","leftarrow","leftarrow","leftarrow","leftarrow","leftarrow"],"horizon":10,"forced_choices":["rightarrow","leftarrow","rightarrow","leftarrow"],"right_color":"orange","left_color":"lightblue","left_mu":40,"right_mu":10,"left_numbers":[34,45,57,47,50,45,33,38,47,51],"right_numbers":[0,10,16,15,15,0,8,11,4,8],"points_earned":372,"trial_type":"horizons-task","trial_index":53,"time_elapsed":529821,"internal_node_id":"0.0-49.0"},{"response_times":[576.9550001714379,275.12499992735684,479.52000005170703,481.9900000002235,641.1300001200289,331.304999999702,351.9249998498708,262.3900000471622,87.70000003278255,180.51999993622303],"keys_pressed":["leftarrow","rightarrow","leftarrow","rightarrow","rightarrow","leftarrow","rightarrow","rightarrow","rightarrow","rightarrow"],"horizon":10,"forced_choices":["leftarrow","rightarrow","leftarrow","rightarrow"],"right_color":"lightblue","left_color":"orange","left_mu":40,"right_mu":70,"left_numbers":[39,52,41,34,49,40,36,47,51,43],"right_numbers":[85,80,70,66,59,66,69,70,67,71],"points_earned":602,"trial_type":"horizons-task","trial_index":54,"time_elapsed":534994,"internal_node_id":"0.0-50.0"},{"response_times":[351.03999986313283,321.6349999420345,335.97999997437,719.319999916479,632.5600000564009],"keys_pressed":["leftarrow","rightarrow","leftarrow","leftarrow","leftarrow"],"horizon":5,"forced_choices":["leftarrow","rightarrow","leftarrow","leftarrow"],"right_color":"lightblue","left_color":"orange","left_mu":40,"right_mu":10,"left_numbers":[33,54,32,39,38],"right_numbers":[13,16,8,13,7],"points_earned":158,"trial_type":"horizons-task","trial_index":55,"time_elapsed":538860,"internal_node_id":"0.0-51.0"},{"response_times":[498.9199999254197,331.66999998502433,542.1549999155104,399.015000090003,1063.225000165403,458.53999978862703,185.88000000454485,163.18999999202788,129.56000003032386,158.99499994702637],"keys_pressed":["rightarrow","leftarrow","rightarrow","rightarrow","rightarrow","leftarrow","rightarrow","rightarrow","rightarrow","rightarrow"],"horizon":10,"forced_choices":["rightarrow","leftarrow","rightarrow","rightarrow"],"right_color":"lightblue","left_color":"orange","left_mu":60,"right_mu":72,"left_numbers":[65,60,54,56,68,56,61,53,54,66],"right_numbers":[73,69,74,79,66,72,73,56,53,95],"points_earned":685,"trial_type":"horizons-task","trial_index":56,"time_elapsed":544295,"internal_node_id":"0.0-52.0"},{"response_times":[453.8750001229346,505.1300001796335,602.5300000328571,348.85499998927116,745.2850001864135,607.6050000265241,714.2549999989569,138.63499998115003,315.5949998181313,113.97499986924231],"keys_pressed":["leftarrow","leftarrow","leftarrow","rightarrow","leftarrow","leftarrow","rightarrow","leftarrow","leftarrow","leftarrow"],"horizon":10,"forced_choices":["leftarrow","leftarrow","leftarrow","rightarrow"],"right_color":"lightblue","left_color":"orange","left_mu":40,"right_mu":10,"left_numbers":[34,51,43,48,22,37,35,35,39,40],"right_numbers":[3,29,20,9,8,13,7,18,8,18],"points_earned":317,"trial_type":"horizons-task","trial_index":57,"time_elapsed":550346,"internal_node_id":"0.0-53.0"},{"response_times":[409.97999999672174,412.88499999791384,318.0150000844151,699.4749999139458,940.1300000026822],"keys_pressed":["leftarrow","leftarrow","rightarrow","rightarrow","rightarrow"],"horizon":5,"forced_choices":["leftarrow","leftarrow","rightarrow","rightarrow"],"right_color":"lightblue","left_color":"orange","left_mu":40,"right_mu":48,"left_numbers":[36,31,42,46,34],"right_numbers":[61,47,41,57,61],"points_earned":226,"trial_type":"horizons-task","trial_index":58,"time_elapsed":554632,"internal_node_id":"0.0-54.0"},{"response_times":[656.3450000248849,330.2799998782575,375.6250001024455,399.5250000152737,923.8899999763817],"keys_pressed":["rightarrow","leftarrow","rightarrow","leftarrow","rightarrow"],"horizon":5,"forced_choices":["rightarrow","leftarrow","rightarrow","leftarrow"],"right_color":"lightblue","left_color":"orange","left_mu":60,"right_mu":68,"left_numbers":[62,63,56,59,55],"right_numbers":[53,71,72,73,69],"points_earned":316,"trial_type":"horizons-task","trial_index":59,"time_elapsed":558824,"internal_node_id":"0.0-55.0"},{"response_times":[485.0449999794364,481.5799999050796,818.4400000609457,282.36500010825694,512.8699999768287],"keys_pressed":["leftarrow","leftarrow","leftarrow","rightarrow","rightarrow"],"horizon":5,"forced_choices":["leftarrow","leftarrow","leftarrow","rightarrow"],"right_color":"orange","left_color":"lightblue","left_mu":40,"right_mu":70,"left_numbers":[39,43,52,48,28],"right_numbers":[69,62,78,75,52],"points_earned":261,"trial_type":"horizons-task","trial_index":60,"time_elapsed":562909,"internal_node_id":"0.0-56.0"},{"response_times":[493.38999995961785,336.54500008560717,355.12500000186265,424.14000001735985,343.31999998539686,471.5700000524521,855.150000192225,154.20500002801418,126.09000015072525,708.0050001386553],"keys_pressed":["rightarrow","leftarrow","rightarrow","leftarrow","rightarrow","rightarrow","rightarrow","rightarrow","rightarrow","rightarrow"],"horizon":10,"forced_choices":["rightarrow","leftarrow","rightarrow","leftarrow"],"right_color":"lightblue","left_color":"orange","left_mu":60,"right_mu":80,"left_numbers":[77,56,63,52,62,59,66,64,64,59],"right_numbers":[80,69,69,77,74,79,76,83,78,76],"points_earned":723,"trial_type":"horizons-task","trial_index":61,"time_elapsed":568682,"internal_node_id":"0.0-57.0"},{"response_times":[525.3800000064075,370.4250000882894,626.9149999134243,342.0100000221282,540.7549999654293],"keys_pressed":["leftarrow","rightarrow","rightarrow","leftarrow","leftarrow"],"horizon":5,"forced_choices":["leftarrow","rightarrow","rightarrow","leftarrow"],"right_color":"orange","left_color":"lightblue","left_mu":40,"right_mu":10,"left_numbers":[40,43,48,57,39],"right_numbers":[0,2,14,4,19],"points_earned":152,"trial_type":"horizons-task","trial_index":62,"time_elapsed":572592,"internal_node_id":"0.0-58.0"},{"response_times":[494.47000003419816,406.0599999502301,344.47499993257225,899.805000051856,502.1349999587983,501.97000009939075,602.7150000445545,139.02999996207654,144.0749999601394,273.0100001208484],"keys_pressed":["rightarrow","rightarrow","leftarrow","rightarrow","leftarrow","leftarrow","leftarrow","leftarrow","leftarrow","leftarrow"],"horizon":10,"forced_choices":["rightarrow","rightarrow","leftarrow","rightarrow"],"right_color":"lightblue","left_color":"orange","left_mu":60,"right_mu":48,"left_numbers":[58,61,57,73,67,48,58,45,64,66],"right_numbers":[47,39,53,46,45,48,49,52,35,42],"points_earned":537,"trial_type":"horizons-task","trial_index":63,"time_elapsed":578406,"internal_node_id":"0.0-59.0"},{"response_times":[2245.4750000033528,996.8450001906604,408.37499988265336,502.8800000436604,385.6099999975413],"keys_pressed":["rightarrow","rightarrow","leftarrow","leftarrow","leftarrow"],"horizon":5,"forced_choices":["rightarrow","rightarrow","leftarrow","leftarrow"],"right_color":"lightblue","left_color":"orange","left_mu":60,"right_mu":30,"left_numbers":[57,71,48,66,70],"right_numbers":[33,27,26,27,48],"points_earned":244,"trial_type":"horizons-task","trial_index":64,"time_elapsed":584451,"internal_node_id":"0.0-60.0"},{"response_times":[439.3649999983609,386.33000012487173,526.1299998965114,442.3450001049787,1183.309999993071],"keys_pressed":["rightarrow","leftarrow","leftarrow","rightarrow","leftarrow"],"horizon":5,"forced_choices":["rightarrow","leftarrow","leftarrow","rightarrow"],"right_color":"lightblue","left_color":"orange","left_mu":60,"right_mu":56,"left_numbers":[53,66,61,69,52],"right_numbers":[59,69,65,56,58],"points_earned":294,"trial_type":"horizons-task","trial_index":65,"time_elapsed":588933,"internal_node_id":"0.0-61.0"},{"response_times":[500.91999978758395,434.9799999035895,554.8449999187142,353.4149997867644,397.83999999053776],"keys_pressed":["rightarrow","leftarrow","leftarrow","rightarrow","leftarrow"],"horizon":5,"forced_choices":["rightarrow","leftarrow","leftarrow","rightarrow"],"right_color":"orange","left_color":"lightblue","left_mu":60,"right_mu":68,"left_numbers":[74,54,56,59,64],"right_numbers":[70,68,72,71,64],"points_earned":315,"trial_type":"horizons-task","trial_index":66,"time_elapsed":592680,"internal_node_id":"0.0-62.0"},{"response_times":[1340.1450000237674,433.71000001206994,629.5650000683963,473.0500001460314,567.3899999819696],"keys_pressed":["leftarrow","leftarrow","rightarrow","rightarrow","rightarrow"],"horizon":5,"forced_choices":["leftarrow","leftarrow","rightarrow","rightarrow"],"right_color":"orange","left_color":"lightblue","left_mu":60,"right_mu":80,"left_numbers":[48,70,50,47,68],"right_numbers":[83,76,73,81,73],"points_earned":345,"trial_type":"horizons-task","trial_index":67,"time_elapsed":597629,"internal_node_id":"0.0-63.0"},{"response_times":[885.7399998232722,315.4299999587238,484.48500013910234,398.30000000074506,1088.8750001322478],"keys_pressed":["leftarrow","rightarrow","rightarrow","leftarrow","rightarrow"],"horizon":5,"forced_choices":["leftarrow","rightarrow","rightarrow","leftarrow"],"right_color":"orange","left_color":"lightblue","left_mu":60,"right_mu":64,"left_numbers":[49,69,68,58,59],"right_numbers":[77,72,68,64,71],"points_earned":318,"trial_type":"horizons-task","trial_index":68,"time_elapsed":602306,"internal_node_id":"0.0-64.0"},{"response_times":[530.5500000249594,354.89999991841614,333.0050001386553,411.0749999526888,1127.8000001329929,728.1800000928342,237.32000007294118,521.6749999672174,791.9249997939914,1005.0250000786036],"keys_pressed":["leftarrow","rightarrow","leftarrow","rightarrow","rightarrow","leftarrow","rightarrow","leftarrow","rightarrow","rightarrow"],"horizon":10,"forced_choices":["leftarrow","rightarrow","leftarrow","rightarrow"],"right_color":"lightblue","left_color":"orange","left_mu":40,"right_mu":32,"left_numbers":[36,37,31,41,36,51,34,30,49,49],"right_numbers":[27,20,24,42,36,40,42,24,39,32],"points_earned":359,"trial_type":"horizons-task","trial_index":69,"time_elapsed":609852,"internal_node_id":"0.0-65.0"},{"response_times":[559.4649999402463,446.3400000240654,328.830000013113,561.9000000879169,790.6349999830127,639.9149999488145,196.65000005625188,226.25999990850687,165.99999996833503,159.24000018276274],"keys_pressed":["leftarrow","leftarrow","rightarrow","rightarrow","rightarrow","leftarrow","rightarrow","rightarrow","rightarrow","rightarrow"],"horizon":10,"forced_choices":["leftarrow","leftarrow","rightarrow","rightarrow"],"right_color":"orange","left_color":"lightblue","left_mu":40,"right_mu":52,"left_numbers":[45,50,40,39,47,28,43,34,46,35],"right_numbers":[50,54,42,56,51,56,68,62,44,57],"points_earned":503,"trial_type":"horizons-task","trial_index":70,"time_elapsed":615433,"internal_node_id":"0.0-66.0"},{"response_times":[324.4499999564141,254.50500007718801,474.6350001078099,857.30000003241,116.78000004030764],"keys_pressed":["leftarrow","rightarrow","rightarrow","leftarrow","rightarrow"],"horizon":5,"forced_choices":["leftarrow","rightarrow","rightarrow","leftarrow"],"right_color":"lightblue","left_color":"orange","left_mu":60,"right_mu":68,"left_numbers":[66,57,66,46,55],"right_numbers":[69,65,81,73,66],"points_earned":324,"trial_type":"horizons-task","trial_index":71,"time_elapsed":618966,"internal_node_id":"0.0-67.0"},{"response_times":[500.0249999575317,397.1899999305606,376.11500010825694,400.4550001118332,621.4799999725074,274.0600001998246,169.88499998115003,140.21000009961426,148.7749998923391,140.4050001874566],"keys_pressed":["leftarrow","leftarrow","rightarrow","leftarrow","rightarrow","leftarrow","leftarrow","leftarrow","leftarrow","leftarrow"],"horizon":10,"forced_choices":["leftarrow","leftarrow","rightarrow","leftarrow"],"right_color":"orange","left_color":"lightblue","left_mu":60,"right_mu":40,"left_numbers":[65,64,61,67,65,67,57,52,64,61],"right_numbers":[35,44,38,37,37,34,38,27,32,38],"points_earned":572,"trial_type":"horizons-task","trial_index":72,"time_elapsed":623640,"internal_node_id":"0.0-68.0"},{"response_times":[441.5349999908358,276.9450000487268,330.1250000949949,811.784999910742,441.9899999629706],"keys_pressed":["rightarrow","leftarrow","rightarrow","rightarrow","rightarrow"],"horizon":5,"forced_choices":["rightarrow","leftarrow","rightarrow","rightarrow"],"right_color":"lightblue","left_color":"orange","left_mu":60,"right_mu":80,"left_numbers":[67,60,60,51,61],"right_numbers":[69,88,75,78,73],"points_earned":355,"trial_type":"horizons-task","trial_index":73,"time_elapsed":627449,"internal_node_id":"0.0-69.0"},{"response_times":[316.39000005088747,282.0200000423938,361.3500001374632,569.3550000432879,1574.1200000047684],"keys_pressed":["rightarrow","leftarrow","rightarrow","leftarrow","rightarrow"],"horizon":5,"forced_choices":["rightarrow","leftarrow","rightarrow","leftarrow"],"right_color":"orange","left_color":"lightblue","left_mu":60,"right_mu":52,"left_numbers":[70,36,55,56,64],"right_numbers":[61,58,38,57,44],"points_earned":235,"trial_type":"horizons-task","trial_index":74,"time_elapsed":632057,"internal_node_id":"0.0-70.0"},{"response_times":[370.5700000282377,228.00999996252358,605.2349999081343,697.6100001484156,844.0500001888722],"keys_pressed":["rightarrow","leftarrow","leftarrow","leftarrow","rightarrow"],"horizon":5,"forced_choices":["rightarrow","leftarrow","leftarrow","leftarrow"],"right_color":"orange","left_color":"lightblue","left_mu":40,"right_mu":70,"left_numbers":[39,46,33,44,45],"right_numbers":[63,65,64,79,61],"points_earned":247,"trial_type":"horizons-task","trial_index":75,"time_elapsed":636306,"internal_node_id":"0.0-71.0"},{"response_times":[1149.3699999991804,361.3950000144541,434.71499998122454,563.5100000072271,329.16999980807304],"keys_pressed":["leftarrow","rightarrow","leftarrow","leftarrow","rightarrow"],"horizon":5,"forced_choices":["leftarrow","rightarrow","leftarrow","leftarrow"],"right_color":"lightblue","left_color":"orange","left_mu":60,"right_mu":68,"left_numbers":[52,54,62,68,56],"right_numbers":[61,76,66,81,72],"points_earned":330,"trial_type":"horizons-task","trial_index":76,"time_elapsed":640649,"internal_node_id":"0.0-72.0"},{"response_times":[474.4599999394268,290.5850000679493,529.4000001158565,842.9250000044703,307.0000000298023],"keys_pressed":["rightarrow","leftarrow","leftarrow","leftarrow","rightarrow"],"horizon":5,"forced_choices":["rightarrow","leftarrow","leftarrow","leftarrow"],"right_color":"lightblue","left_color":"orange","left_mu":40,"right_mu":52,"left_numbers":[31,45,36,45,38],"right_numbers":[50,43,54,56,56],"points_earned":232,"trial_type":"horizons-task","trial_index":77,"time_elapsed":644612,"internal_node_id":"0.0-73.0"},{"response_times":[401.37999993748963,576.1949999723583,388.13499989919364,438.85499984025955,578.46499979496,408.13999995589256,903.1950000207871,571.1799999698997,338.6699999682605,449.41999996080995],"keys_pressed":["leftarrow","leftarrow","rightarrow","leftarrow","leftarrow","rightarrow","rightarrow","leftarrow","rightarrow","rightarrow"],"horizon":10,"forced_choices":["leftarrow","leftarrow","rightarrow","leftarrow"],"right_color":"orange","left_color":"lightblue","left_mu":40,"right_mu":32,"left_numbers":[31,40,37,52,39,29,42,40,55,37],"right_numbers":[10,32,38,25,24,44,42,29,37,26],"points_earned":389,"trial_type":"horizons-task","trial_index":78,"time_elapsed":651171,"internal_node_id":"0.0-74.0"},{"response_times":[398.42500002123415,259.1599998995662,449.34499985538423,440.764999948442,558.3150000311434],"keys_pressed":["rightarrow","leftarrow","leftarrow","rightarrow","rightarrow"],"horizon":5,"forced_choices":["rightarrow","leftarrow","leftarrow","rightarrow"],"right_color":"lightblue","left_color":"orange","left_mu":60,"right_mu":64,"left_numbers":[74,53,48,64,54],"right_numbers":[64,76,70,70,63],"points_earned":298,"trial_type":"horizons-task","trial_index":79,"time_elapsed":654781,"internal_node_id":"0.0-75.0"},{"response_times":[396.29000006243587,349.23999989405274,400.3300000913441,382.8199999406934,807.3100000619888,249.32499998249114,174.82500011101365,109.30499993264675,135.550000006333,310.41500018909574],"keys_pressed":["rightarrow","rightarrow","leftarrow","leftarrow","rightarrow","rightarrow","rightarrow","rightarrow","rightarrow","rightarrow"],"horizon":10,"forced_choices":["rightarrow","rightarrow","leftarrow","leftarrow"],"right_color":"lightblue","left_color":"orange","left_mu":40,"right_mu":60,"left_numbers":[36,36,41,45,52,55,26,46,38,41],"right_numbers":[59,55,49,68,61,68,48,62,66,47],"points_earned":552,"trial_type":"horizons-task","trial_index":80,"time_elapsed":659602,"internal_node_id":"0.0-76.0"},{"response_times":[492.1899999026209,396.8950000125915,662.1749999467283,405.4500001948327,633.329999865964],"keys_pressed":["leftarrow","leftarrow","leftarrow","rightarrow","leftarrow"],"horizon":5,"forced_choices":["leftarrow","leftarrow","leftarrow","rightarrow"],"right_color":"orange","left_color":"lightblue","left_mu":40,"right_mu":28,"left_numbers":[32,38,36,34,31],"right_numbers":[41,34,21,25,28],"points_earned":162,"trial_type":"horizons-task","trial_index":81,"time_elapsed":663696,"internal_node_id":"0.0-77.0"},{"response_times":[362.4450000934303,348.46000000834465,482.77999996207654,413.79500017501414,962.2100000269711,391.33499981835485,448.66999983787537,129.4050000142306,134.12499986588955,115.73499999940395],"keys_pressed":["rightarrow","leftarrow","leftarrow","rightarrow","rightarrow","leftarrow","leftarrow","leftarrow","leftarrow","leftarrow"],"horizon":10,"forced_choices":["rightarrow","leftarrow","leftarrow","rightarrow"],"right_color":"lightblue","left_color":"orange","left_mu":40,"right_mu":32,"left_numbers":[39,48,36,33,49,44,32,46,43,42],"right_numbers":[30,25,36,37,39,41,27,32,26,37],"points_earned":397,"trial_type":"horizons-task","trial_index":82,"time_elapsed":668990,"internal_node_id":"0.0-78.0"},{"response_times":[427.2000000346452,324.1350001189858,283.24000001884997,825.9049998596311,299.339999910444],"keys_pressed":["leftarrow","rightarrow","leftarrow","rightarrow","leftarrow"],"horizon":5,"forced_choices":["leftarrow","rightarrow","leftarrow","rightarrow"],"right_color":"orange","left_color":"lightblue","left_mu":40,"right_mu":32,"left_numbers":[42,20,35,9,35],"right_numbers":[39,23,39,39,38],"points_earned":174,"trial_type":"horizons-task","trial_index":83,"time_elapsed":672654,"internal_node_id":"0.0-79.0"},{"response_times":[398.344999877736,270.2299999073148,419.7899999562651,756.2949999701232,677.3300000932068,1263.5549998376518,560.374999884516,396.8950000125915,511.170000070706,387.2099998407066],"keys_pressed":["leftarrow","rightarrow","leftarrow","leftarrow","rightarrow","rightarrow","leftarrow","rightarrow","rightarrow","rightarrow"],"horizon":10,"forced_choices":["leftarrow","rightarrow","leftarrow","leftarrow"],"right_color":"lightblue","left_color":"orange","left_mu":40,"right_mu":44,"left_numbers":[56,46,41,26,41,28,38,41,50,37],"right_numbers":[43,56,48,40,44,48,46,26,53,41],"points_earned":429,"trial_type":"horizons-task","trial_index":84,"time_elapsed":679802,"internal_node_id":"0.0-80.0"},{"response_times":[369.18499995954335,555.299999890849,623.9249999634922,361.99999996460974,738.4849998634309,871.5550000779331,559.8799998406321,430.28500000946224,647.6999998558313,166.4300002157688],"keys_pressed":["rightarrow","rightarrow","rightarrow","leftarrow","leftarrow","rightarrow","leftarrow","rightarrow","rightarrow","rightarrow"],"horizon":10,"forced_choices":["rightarrow","rightarrow","rightarrow","leftarrow"],"right_color":"lightblue","left_color":"orange","left_mu":40,"right_mu":36,"left_numbers":[31,43,37,40,35,39,36,38,33,54],"right_numbers":[34,52,40,23,42,27,35,34,40,43],"points_earned":381,"trial_type":"horizons-task","trial_index":85,"time_elapsed":686633,"internal_node_id":"0.0-81.0"},{"response_times":[363.79499989561737,571.1649998556823,360.1699999999255,498.494999948889,505.33000007271767,388.04000010713935,128.7000000011176,148.03499984554946,97.37999993376434,125.37000002339482],"keys_pressed":["rightarrow","rightarrow","leftarrow","rightarrow","leftarrow","leftarrow","leftarrow","leftarrow","leftarrow","leftarrow"],"horizon":10,"forced_choices":["rightarrow","rightarrow","leftarrow","rightarrow"],"right_color":"orange","left_color":"lightblue","left_mu":60,"right_mu":30,"left_numbers":[59,60,62,55,70,69,60,55,51,68],"right_numbers":[31,27,39,20,34,31,29,10,38,28],"points_earned":513,"trial_type":"horizons-task","trial_index":86,"time_elapsed":691325,"internal_node_id":"0.0-82.0"},{"response_times":[432.3849999345839,221.56499978154898,471.1949999909848,382.0599999744445,541.7800000868738],"keys_pressed":["leftarrow","rightarrow","rightarrow","leftarrow","rightarrow"],"horizon":5,"forced_choices":["leftarrow","rightarrow","rightarrow","leftarrow"],"right_color":"orange","left_color":"lightblue","left_mu":40,"right_mu":60,"left_numbers":[28,35,34,45,56],"right_numbers":[52,60,83,50,63],"points_earned":279,"trial_type":"horizons-task","trial_index":87,"time_elapsed":694880,"internal_node_id":"0.0-83.0"},{"response_times":[370.35500002093613,280.3899999707937,523.1550000607967,626.3850000686944,277.2150000091642],"keys_pressed":["leftarrow","rightarrow","rightarrow","rightarrow","leftarrow"],"horizon":5,"forced_choices":["leftarrow","rightarrow","rightarrow","rightarrow"],"right_color":"orange","left_color":"lightblue","left_mu":60,"right_mu":30,"left_numbers":[55,66,68,70,74],"right_numbers":[31,23,31,31,29],"points_earned":214,"trial_type":"horizons-task","trial_index":88,"time_elapsed":698461,"internal_node_id":"0.0-84.0"},{"response_times":[358.0000000074506,400.59500001370907,344.20499997213483,405.50500014796853,350.94999987632036],"keys_pressed":["rightarrow","rightarrow","leftarrow","rightarrow","leftarrow"],"horizon":5,"forced_choices":["rightarrow","rightarrow","leftarrow","rightarrow"],"right_color":"orange","left_color":"lightblue","left_mu":40,"right_mu":20,"left_numbers":[23,44,24,33,41],"right_numbers":[13,12,21,34,0],"points_earned":124,"trial_type":"horizons-task","trial_index":89,"time_elapsed":701826,"internal_node_id":"0.0-85.0"},{"rt":17117.07999999635,"responses":{"age":"21","gender-categorical":"Female","gender-free-response":"","ethnicity":"Not Hispanic or Latino","race":["White"],"language":"Yes","fluency":"Very well"},"survey":"demographics","trial_type":"survey-demo","trial_index":90,"time_elapsed":718984,"internal_node_id":"0.0-86.0"},{"rt":22327.53499993123,"responses":{"difficulty":"3","fun":"4","clarity":"5","strategy":"no, just tried to calculate means in my head","feedback":""},"survey":"debrief","trial_type":"survey-debrief","trial_index":91,"time_elapsed":741327,"internal_node_id":"0.0-87.0","interactions":"[]"}]